"Participant"	"Task"	"Stimulus_Side"	"Response"	"RT"	"ITI"	"Previous_Response"	"Previous_RT"	"Stop_Signal"	"Stop_Signal_RT"	"Conflict"	"Cue_Response"	"Cue_Response_RT"	"Trial_Onset"	"Trial_End"	"Trial_Order"	"Duration"
"S200116"	"Conflict_Resolution"	"LEFT"	"LEFT"	612.23300000006	1400.0000028	n/a	n/a	n/a	n/a	"False"	n/a	n/a	"2020-01-16 12:41:01.628139"	"2020-01-16 12:41:02.450009"	1	5.7528385
"S200116"	"Conflict_Resolution"	"RIGHT"	"RIGHT"	612.897799999928	633.3333346	n/a	n/a	n/a	n/a	"True"	n/a	n/a	"2020-01-16 12:41:03.100817"	"2020-01-16 12:41:03.921631"	2	5.7528385
"S200116"	"Conflict_Resolution"	"RIGHT"	"LEFT"	393.243100000063	1466.6666696	n/a	n/a	n/a	n/a	"True"	n/a	n/a	"2020-01-16 12:41:05.407810"	"2020-01-16 12:41:06.009201"	3	5.7528385
"S200116"	"Conflict_Resolution"	"RIGHT"	"RIGHT"	552.225600000043	1083.3333355	n/a	n/a	n/a	n/a	"True"	n/a	n/a	"2020-01-16 12:41:07.112379"	"2020-01-16 12:41:07.873152"	4	5.7528385
"S200116"	"Conflict_Resolution"	"LEFT"	"LEFT"	403.115899999989	616.6666679	n/a	n/a	n/a	n/a	"False"	n/a	n/a	"2020-01-16 12:41:08.510004"	"2020-01-16 12:41:09.120506"	5	5.7528385
"S200116"	"Conflict_Resolution"	"RIGHT"	"RIGHT"	533.461299999999	1000.000002	n/a	n/a	n/a	n/a	"True"	n/a	n/a	"2020-01-16 12:41:10.139579"	"2020-01-16 12:41:10.880609"	6	5.7528385
"S200116"	"Conflict_Resolution"	"LEFT"	"LEFT"	325.450400000022	1000.000002	n/a	n/a	n/a	n/a	"False"	n/a	n/a	"2020-01-16 12:41:11.899723"	"2020-01-16 12:41:12.432591"	7	5.7528385
"S200116"	"Conflict_Resolution"	"RIGHT"	"RIGHT"	411.470699999995	1050.0000021	n/a	n/a	n/a	n/a	"True"	n/a	n/a	"2020-01-16 12:41:13.501923"	"2020-01-16 12:41:14.120364"	8	5.7528385
"S200116"	"Conflict_Resolution"	"RIGHT"	"RIGHT"	330.188700000008	1083.3333355	n/a	n/a	n/a	n/a	"False"	n/a	n/a	"2020-01-16 12:41:15.222242"	"2020-01-16 12:41:15.760518"	9	5.7528385
"S200116"	"Conflict_Resolution"	"RIGHT"	"RIGHT"	373.93140000006	1183.3333357	n/a	n/a	n/a	n/a	"False"	n/a	n/a	"2020-01-16 12:41:16.963036"	"2020-01-16 12:41:17.544476"	10	5.7528385
"S200116"	"Conflict_Resolution"	"LEFT"	"LEFT"	423.687200000018	1166.666669	n/a	n/a	n/a	n/a	"True"	n/a	n/a	"2020-01-16 12:41:18.730417"	"2020-01-16 12:41:19.360743"	11	5.7528385
"S200116"	"Conflict_Resolution"	"RIGHT"	"RIGHT"	385.322699999961	1050.0000021	n/a	n/a	n/a	n/a	"False"	n/a	n/a	"2020-01-16 12:41:20.431545"	"2020-01-16 12:41:21.025149"	12	5.7528385
"S200116"	"Conflict_Resolution"	"RIGHT"	"RIGHT"	449.869499999977	850.0000017	n/a	n/a	n/a	n/a	"False"	n/a	n/a	"2020-01-16 12:41:21.894403"	"2020-01-16 12:41:22.552671"	13	5.7528385
"S200116"	"Conflict_Resolution"	"LEFT"	"LEFT"	469.557500000064	783.3333349	n/a	n/a	n/a	n/a	"False"	n/a	n/a	"2020-01-16 12:41:23.355574"	"2020-01-16 12:41:24.032682"	14	5.7528385
"S200116"	"Conflict_Resolution"	"RIGHT"	"RIGHT"	379.602399999953	1216.6666691	n/a	n/a	n/a	n/a	"False"	n/a	n/a	"2020-01-16 12:41:25.268711"	"2020-01-16 12:41:25.856341"	15	5.7528385
"S200116"	"Conflict_Resolution"	"RIGHT"	"RIGHT"	685.426799999959	1183.3333357	n/a	n/a	n/a	n/a	"True"	n/a	n/a	"2020-01-16 12:41:27.058769"	"2020-01-16 12:41:27.952413"	16	5.7528385
"S200116"	"Conflict_Resolution"	"RIGHT"	"RIGHT"	448.565400000007	1283.3333359	n/a	n/a	n/a	n/a	"False"	n/a	n/a	"2020-01-16 12:41:29.256377"	"2020-01-16 12:41:29.912229"	17	5.7528385
"S200116"	"Conflict_Resolution"	"LEFT"	"LEFT"	340.826800000059	1016.6666687	n/a	n/a	n/a	n/a	"False"	n/a	n/a	"2020-01-16 12:41:30.947328"	"2020-01-16 12:41:31.496891"	18	5.7528385
"S200116"	"Conflict_Resolution"	"LEFT"	"LEFT"	627.352599999995	616.6666679	n/a	n/a	n/a	n/a	"True"	n/a	n/a	"2020-01-16 12:41:32.133455"	"2020-01-16 12:41:32.970274"	19	5.7528385
"S200116"	"Conflict_Resolution"	"RIGHT"	"RIGHT"	427.688900000021	633.3333346	n/a	n/a	n/a	n/a	"False"	n/a	n/a	"2020-01-16 12:41:33.621182"	"2020-01-16 12:41:34.257274"	20	5.7528385
"S200116"	"Conflict_Resolution"	"RIGHT"	"RIGHT"	392.97590000001	883.3333351	n/a	n/a	n/a	n/a	"False"	n/a	n/a	"2020-01-16 12:41:35.159277"	"2020-01-16 12:41:35.760796"	21	5.7528385
"S200116"	"Conflict_Resolution"	"RIGHT"	"RIGHT"	445.179600000074	600.0000012	n/a	n/a	n/a	n/a	"False"	n/a	n/a	"2020-01-16 12:41:36.379212"	"2020-01-16 12:41:37.033055"	22	5.7528385
"S200116"	"Conflict_Resolution"	"LEFT"	"LEFT"	420.426799999973	1416.6666695	n/a	n/a	n/a	n/a	"False"	n/a	n/a	"2020-01-16 12:41:38.468318"	"2020-01-16 12:41:39.096311"	23	5.7528385
"S200116"	"Conflict_Resolution"	"RIGHT"	"RIGHT"	698.23150000002	1100.0000022	n/a	n/a	n/a	n/a	"True"	n/a	n/a	"2020-01-16 12:41:40.214425"	"2020-01-16 12:41:41.120714"	24	5.7528385
"S200116"	"Conflict_Resolution"	"LEFT"	"LEFT"	861.891200000059	1366.6666694	n/a	n/a	n/a	n/a	"True"	n/a	n/a	"2020-01-16 12:41:42.506963"	"2020-01-16 12:41:43.577153"	25	5.7528385
"S200116"	"Conflict_Resolution"	"LEFT"	"LEFT"	547.435699999937	850.0000017	n/a	n/a	n/a	n/a	"True"	n/a	n/a	"2020-01-16 12:41:44.444599"	"2020-01-16 12:41:45.202088"	26	5.7528385
"S200116"	"Conflict_Resolution"	"LEFT"	"LEFT"	425.490400000058	1216.6666691	n/a	n/a	n/a	n/a	"True"	n/a	n/a	"2020-01-16 12:41:46.439303"	"2020-01-16 12:41:47.073073"	27	5.7528385
"S200116"	"Conflict_Resolution"	"RIGHT"	"RIGHT"	541.387900000018	1216.6666691	n/a	n/a	n/a	n/a	"True"	n/a	n/a	"2020-01-16 12:41:48.307579"	"2020-01-16 12:41:49.057740"	28	5.7528385
"S200116"	"Conflict_Resolution"	"RIGHT"	"RIGHT"	387.755100000049	800.0000016	n/a	n/a	n/a	n/a	"False"	n/a	n/a	"2020-01-16 12:41:49.876737"	"2020-01-16 12:41:50.472829"	29	5.7528385
"S200116"	"Conflict_Resolution"	"RIGHT"	"RIGHT"	599.185799999987	1133.3333356	n/a	n/a	n/a	n/a	"True"	n/a	n/a	"2020-01-16 12:41:51.625995"	"2020-01-16 12:41:52.433983"	30	5.7528385
"S200116"	"Conflict_Resolution"	"RIGHT"	"RIGHT"	431.325799999968	533.3333344	n/a	n/a	n/a	n/a	"False"	n/a	n/a	"2020-01-16 12:41:52.985100"	"2020-01-16 12:41:53.624944"	31	5.7528385
"S200116"	"Conflict_Resolution"	"RIGHT"	"RIGHT"	466.251299999954	1433.3333362	n/a	n/a	n/a	n/a	"False"	n/a	n/a	"2020-01-16 12:41:55.078397"	"2020-01-16 12:41:55.753241"	32	5.7528385
"S200116"	"Conflict_Resolution"	"RIGHT"	"RIGHT"	334.543499999995	550.0000011	n/a	n/a	n/a	n/a	"False"	n/a	n/a	"2020-01-16 12:41:56.322756"	"2020-01-16 12:41:56.864393"	33	5.7528385
"S200116"	"Conflict_Resolution"	"RIGHT"	"RIGHT"	336.805799999979	1133.3333356	n/a	n/a	n/a	n/a	"False"	n/a	n/a	"2020-01-16 12:41:58.015349"	"2020-01-16 12:41:58.561741"	34	5.7528385
"S200116"	"Conflict_Resolution"	"LEFT"	"LEFT"	464.464899999939	1300.0000026	n/a	n/a	n/a	n/a	"False"	n/a	n/a	"2020-01-16 12:41:59.880521"	"2020-01-16 12:42:00.553442"	35	5.7528385
"S200116"	"Conflict_Resolution"	"LEFT"	"LEFT"	353.858599999967	1250.0000025	n/a	n/a	n/a	n/a	"False"	n/a	n/a	"2020-01-16 12:42:01.823045"	"2020-01-16 12:42:02.385144"	36	5.7528385
"S200116"	"Conflict_Resolution"	"LEFT"	"LEFT"	318.637299999978	733.3333348	n/a	n/a	n/a	n/a	"False"	n/a	n/a	"2020-01-16 12:42:03.137705"	"2020-01-16 12:42:03.664352"	37	5.7528385
"S200116"	"Conflict_Resolution"	"LEFT"	"LEFT"	568.256599999927	516.6666677	n/a	n/a	n/a	n/a	"True"	n/a	n/a	"2020-01-16 12:42:04.199891"	"2020-01-16 12:42:04.976829"	38	5.7528385
"S200116"	"Conflict_Resolution"	"RIGHT"	"RIGHT"	479.604400000085	733.3333348	n/a	n/a	n/a	n/a	"True"	n/a	n/a	"2020-01-16 12:42:05.729612"	"2020-01-16 12:42:06.416452"	39	5.7528385
"S200116"	"Conflict_Resolution"	"RIGHT"	"RIGHT"	475.153800000044	1433.3333362	n/a	n/a	n/a	n/a	"True"	n/a	n/a	"2020-01-16 12:42:07.869421"	"2020-01-16 12:42:08.551597"	40	5.7528385
"S200116"	"Conflict_Resolution"	"RIGHT"	"RIGHT"	508.598000000006	1266.6666692	n/a	n/a	n/a	n/a	"True"	n/a	n/a	"2020-01-16 12:42:09.835888"	"2020-01-16 12:42:10.553163"	41	5.7528385
"S200116"	"Conflict_Resolution"	"RIGHT"	"RIGHT"	604.478200000017	800.0000016	n/a	n/a	n/a	n/a	"True"	n/a	n/a	"2020-01-16 12:42:11.372057"	"2020-01-16 12:42:12.185063"	42	5.7528385
"S200116"	"Conflict_Resolution"	"RIGHT"	"RIGHT"	419.040999999993	833.333335	n/a	n/a	n/a	n/a	"False"	n/a	n/a	"2020-01-16 12:42:13.037095"	"2020-01-16 12:42:13.664446"	43	5.7528385
"S200116"	"Conflict_Resolution"	"RIGHT"	"RIGHT"	440.182700000037	733.3333348	n/a	n/a	n/a	n/a	"False"	n/a	n/a	"2020-01-16 12:42:14.416479"	"2020-01-16 12:42:15.064352"	44	5.7528385
"S200116"	"Conflict_Resolution"	"LEFT"	"LEFT"	399.087200000054	1350.0000027	n/a	n/a	n/a	n/a	"False"	n/a	n/a	"2020-01-16 12:42:16.433122"	"2020-01-16 12:42:17.041111"	45	5.7528385
"S200116"	"Conflict_Resolution"	"RIGHT"	"RIGHT"	536.967499999946	683.3333347	n/a	n/a	n/a	n/a	"False"	n/a	n/a	"2020-01-16 12:42:17.743865"	"2020-01-16 12:42:18.489119"	46	5.7528385
"S200116"	"Conflict_Resolution"	"LEFT"	"LEFT"	423.403499999949	1316.6666693	n/a	n/a	n/a	n/a	"False"	n/a	n/a	"2020-01-16 12:42:19.825520"	"2020-01-16 12:42:20.457074"	47	5.7528385
"S200116"	"Conflict_Resolution"	"RIGHT"	"RIGHT"	538.591300000007	1283.3333359	n/a	n/a	n/a	n/a	"True"	n/a	n/a	"2020-01-16 12:42:21.757475"	"2020-01-16 12:42:22.505380"	48	5.7528385
"S200116"	"Conflict_Resolution"	"RIGHT"	"RIGHT"	379.476899999986	1033.3333354	n/a	n/a	n/a	n/a	"False"	n/a	n/a	"2020-01-16 12:42:23.557751"	"2020-01-16 12:42:24.145175"	49	5.7528385
"S200116"	"Conflict_Resolution"	"RIGHT"	"RIGHT"	458.776300000068	1033.3333354	n/a	n/a	n/a	n/a	"True"	n/a	n/a	"2020-01-16 12:42:25.198197"	"2020-01-16 12:42:25.865125"	50	5.7528385
"S200116"	"Conflict_Resolution"	"LEFT"	"LEFT"	604.920800000059	566.6666678	n/a	n/a	n/a	n/a	"True"	n/a	n/a	"2020-01-16 12:42:26.451790"	"2020-01-16 12:42:27.263679"	51	5.7528385
"S200116"	"Conflict_Resolution"	"RIGHT"	"RIGHT"	448.294300000043	933.3333352	n/a	n/a	n/a	n/a	"False"	n/a	n/a	"2020-01-16 12:42:28.216104"	"2020-01-16 12:42:28.871504"	52	5.7528385
"S200116"	"Conflict_Resolution"	"RIGHT"	"RIGHT"	405.856599999993	1000.000002	n/a	n/a	n/a	n/a	"False"	n/a	n/a	"2020-01-16 12:42:29.890471"	"2020-01-16 12:42:30.504784"	53	5.7528385
"S200116"	"Conflict_Resolution"	"RIGHT"	"RIGHT"	517.478399999959	1366.6666694	n/a	n/a	n/a	n/a	"True"	n/a	n/a	"2020-01-16 12:42:31.891351"	"2020-01-16 12:42:32.616579"	54	5.7528385
"S200116"	"Conflict_Resolution"	"LEFT"	"LEFT"	437.286599999993	766.6666682	n/a	n/a	n/a	n/a	"False"	n/a	n/a	"2020-01-16 12:42:33.403530"	"2020-01-16 12:42:34.050054"	55	5.7528385
"S200116"	"Conflict_Resolution"	"LEFT"	"LEFT"	521.124199999917	1050.0000021	n/a	n/a	n/a	n/a	"True"	n/a	n/a	"2020-01-16 12:42:35.119690"	"2020-01-16 12:42:35.849237"	56	5.7528385
"S200116"	"Conflict_Resolution"	"LEFT"	"LEFT"	518.859599999928	1100.0000022	n/a	n/a	n/a	n/a	"True"	n/a	n/a	"2020-01-16 12:42:36.969618"	"2020-01-16 12:42:37.697234"	57	5.7528385
"S200116"	"Conflict_Resolution"	"LEFT"	"LEFT"	347.651599999949	816.6666683	n/a	n/a	n/a	n/a	"False"	n/a	n/a	"2020-01-16 12:42:38.532728"	"2020-01-16 12:42:39.089265"	58	5.7528385
"S200116"	"Conflict_Resolution"	"LEFT"	"LEFT"	551.093100000003	950.0000019	n/a	n/a	n/a	n/a	"True"	n/a	n/a	"2020-01-16 12:42:40.058077"	"2020-01-16 12:42:40.817266"	59	5.7528385
"S200116"	"Conflict_Resolution"	"RIGHT"	"RIGHT"	636.767200000008	583.3333345	n/a	n/a	n/a	n/a	"True"	n/a	n/a	"2020-01-16 12:42:41.419359"	"2020-01-16 12:42:42.265198"	60	5.7528385
"S200116"	"Conflict_Resolution"	"RIGHT"	"RIGHT"	407.9342	1100.0000022	n/a	n/a	n/a	n/a	"False"	n/a	n/a	"2020-01-16 12:42:43.384402"	"2020-01-16 12:42:44.001167"	61	5.7528385
"S200116"	"Conflict_Resolution"	"LEFT"	"LEFT"	681.077899999991	1116.6666689	n/a	n/a	n/a	n/a	"True"	n/a	n/a	"2020-01-16 12:42:45.135237"	"2020-01-16 12:42:46.025836"	62	5.7528385
"S200116"	"Conflict_Resolution"	"LEFT"	"LEFT"	510.309900000038	900.0000018	n/a	n/a	n/a	n/a	"True"	n/a	n/a	"2020-01-16 12:42:46.946626"	"2020-01-16 12:42:47.665133"	63	5.7528385
"S200116"	"Conflict_Resolution"	"RIGHT"	"RIGHT"	727.819199999999	750.0000015	n/a	n/a	n/a	n/a	"False"	n/a	n/a	"2020-01-16 12:42:48.433085"	"2020-01-16 12:42:49.369250"	64	5.7528385
"S200116"	"Conflict_Resolution"	"LEFT"	"LEFT"	498.903700000028	1416.6666695	n/a	n/a	n/a	n/a	"True"	n/a	n/a	"2020-01-16 12:42:50.805793"	"2020-01-16 12:42:51.511766"	65	5.7528385
"S200116"	"Conflict_Resolution"	"LEFT"	"LEFT"	440.433300000109	566.6666678	n/a	n/a	n/a	n/a	"False"	n/a	n/a	"2020-01-16 12:42:52.095781"	"2020-01-16 12:42:52.744960"	66	5.7528385
"S200116"	"Conflict_Resolution"	"LEFT"	"LEFT"	472.984799999949	683.3333347	n/a	n/a	n/a	n/a	"True"	n/a	n/a	"2020-01-16 12:42:53.447240"	"2020-01-16 12:42:54.128433"	67	5.7528385
"S200116"	"Conflict_Resolution"	"RIGHT"	"RIGHT"	556.621700000051	1416.6666695	n/a	n/a	n/a	n/a	"True"	n/a	n/a	"2020-01-16 12:42:55.564307"	"2020-01-16 12:42:56.328298"	68	5.7528385
"S200116"	"Conflict_Resolution"	"LEFT"	"LEFT"	719.03199999997	1166.666669	n/a	n/a	n/a	n/a	"False"	n/a	n/a	"2020-01-16 12:42:57.513769"	"2020-01-16 12:42:58.441081"	69	5.7528385
"S200116"	"Conflict_Resolution"	"RIGHT"	"RIGHT"	438.068599999951	1150.0000023	n/a	n/a	n/a	n/a	"False"	n/a	n/a	"2020-01-16 12:42:59.610787"	"2020-01-16 12:43:00.255431"	70	5.7528385
"S200116"	"Conflict_Resolution"	"LEFT"	"LEFT"	530.098599999974	666.666668	n/a	n/a	n/a	n/a	"True"	n/a	n/a	"2020-01-16 12:43:00.942800"	"2020-01-16 12:43:01.680796"	71	5.7528385
"S200116"	"Conflict_Resolution"	"RIGHT"	"RIGHT"	568.10059999998	500.000001	n/a	n/a	n/a	n/a	"True"	n/a	n/a	"2020-01-16 12:43:02.199995"	"2020-01-16 12:43:02.977109"	72	5.7528385
"S200116"	"Conflict_Resolution"	"RIGHT"	"RIGHT"	456.261200000085	1483.3333363	n/a	n/a	n/a	n/a	"False"	n/a	n/a	"2020-01-16 12:43:04.480696"	"2020-01-16 12:43:05.144085"	73	5.7528385
"S200116"	"Conflict_Resolution"	"RIGHT"	"RIGHT"	775.656799999979	533.3333344	n/a	n/a	n/a	n/a	"True"	n/a	n/a	"2020-01-16 12:43:05.696547"	"2020-01-16 12:43:06.681066"	74	5.7528385
"S200116"	"Conflict_Resolution"	"LEFT"	"LEFT"	476.642799999922	1200.0000024	n/a	n/a	n/a	n/a	"False"	n/a	n/a	"2020-01-16 12:43:07.899882"	"2020-01-16 12:43:08.585084"	75	5.7528385
"S200116"	"Conflict_Resolution"	"RIGHT"	"RIGHT"	464.845200000013	1483.3333363	n/a	n/a	n/a	n/a	"True"	n/a	n/a	"2020-01-16 12:43:10.087883"	"2020-01-16 12:43:10.761004"	76	5.7528385
"S200116"	"Conflict_Resolution"	"LEFT"	"LEFT"	472.95900000006	666.666668	n/a	n/a	n/a	n/a	"False"	n/a	n/a	"2020-01-16 12:43:11.447705"	"2020-01-16 12:43:12.128661"	77	5.7528385
"S200116"	"Conflict_Resolution"	"RIGHT"	"RIGHT"	381.102800000008	1383.3333361	n/a	n/a	n/a	n/a	"False"	n/a	n/a	"2020-01-16 12:43:13.531579"	"2020-01-16 12:43:14.121277"	78	5.7528385
"S200116"	"Conflict_Resolution"	"LEFT"	"LEFT"	446.123199999988	683.3333347	n/a	n/a	n/a	n/a	"False"	n/a	n/a	"2020-01-16 12:43:14.827043"	"2020-01-16 12:43:15.481259"	79	5.7528385
"S200116"	"Conflict_Resolution"	"LEFT"	"LEFT"	593.925099999979	1450.0000029	n/a	n/a	n/a	n/a	"True"	n/a	n/a	"2020-01-16 12:43:16.950802"	"2020-01-16 12:43:17.753884"	80	5.7528385
"S200116"	"Conflict_Resolution"	"LEFT"	"LEFT"	437.409800000069	950.0000019	n/a	n/a	n/a	n/a	"False"	n/a	n/a	"2020-01-16 12:43:18.723311"	"2020-01-16 12:43:19.368534"	81	5.7528385
"S200116"	"Conflict_Resolution"	"RIGHT"	"RIGHT"	532.87540000008	600.0000012	n/a	n/a	n/a	n/a	"True"	n/a	n/a	"2020-01-16 12:43:19.988010"	"2020-01-16 12:43:20.727432"	82	5.7528385
"S200116"	"Conflict_Resolution"	"LEFT"	"LEFT"	374.461799999949	966.6666686	n/a	n/a	n/a	n/a	"False"	n/a	n/a	"2020-01-16 12:43:21.713860"	"2020-01-16 12:43:22.295772"	83	5.7528385
"S200116"	"Conflict_Resolution"	"LEFT"	"LEFT"	501.056800000015	1450.0000029	n/a	n/a	n/a	n/a	"False"	n/a	n/a	"2020-01-16 12:43:23.763264"	"2020-01-16 12:43:24.472592"	84	5.7528385
"S200116"	"Conflict_Resolution"	"LEFT"	"LEFT"	485.868299999993	583.3333345	n/a	n/a	n/a	n/a	"True"	n/a	n/a	"2020-01-16 12:43:25.074837"	"2020-01-16 12:43:25.768322"	85	5.7528385
"S200116"	"Conflict_Resolution"	"RIGHT"	"RIGHT"	354.522200000019	1466.6666696	n/a	n/a	n/a	n/a	"False"	n/a	n/a	"2020-01-16 12:43:27.254206"	"2020-01-16 12:43:27.816713"	86	5.7528385
"S200116"	"Conflict_Resolution"	"RIGHT"	"RIGHT"	563.4996	1233.3333358	n/a	n/a	n/a	n/a	"False"	n/a	n/a	"2020-01-16 12:43:29.069324"	"2020-01-16 12:43:29.841267"	87	5.7528385
"S200116"	"Conflict_Resolution"	"RIGHT"	"RIGHT"	536.134900000093	900.0000018	n/a	n/a	n/a	n/a	"False"	n/a	n/a	"2020-01-16 12:43:30.759929"	"2020-01-16 12:43:31.505265"	88	5.7528385
"S200116"	"Conflict_Resolution"	"LEFT"	"LEFT"	479.681899999946	533.3333344	n/a	n/a	n/a	n/a	"False"	n/a	n/a	"2020-01-16 12:43:32.056590"	"2020-01-16 12:43:32.743782"	89	5.7528385
"S200116"	"Conflict_Resolution"	"RIGHT"	"RIGHT"	480.616299999951	700.0000014	n/a	n/a	n/a	n/a	"True"	n/a	n/a	"2020-01-16 12:43:33.464014"	"2020-01-16 12:43:34.153844"	90	5.7528385
"S200116"	"Conflict_Resolution"	"LEFT"	"LEFT"	439.674599999989	1500.000003	n/a	n/a	n/a	n/a	"True"	n/a	n/a	"2020-01-16 12:43:35.673027"	"2020-01-16 12:43:36.322049"	91	5.7528385
"S200116"	"Conflict_Resolution"	"LEFT"	"LEFT"	555.566899999917	816.6666683	n/a	n/a	n/a	n/a	"True"	n/a	n/a	"2020-01-16 12:43:37.157944"	"2020-01-16 12:43:37.921795"	92	5.7528385
"S200116"	"Conflict_Resolution"	"LEFT"	"LEFT"	434.916100000009	1216.6666691	n/a	n/a	n/a	n/a	"False"	n/a	n/a	"2020-01-16 12:43:39.157103"	"2020-01-16 12:43:39.799498"	93	5.7528385
"S200116"	"Conflict_Resolution"	"RIGHT"	"RIGHT"	479.811199999972	550.0000011	n/a	n/a	n/a	n/a	"True"	n/a	n/a	"2020-01-16 12:43:40.368136"	"2020-01-16 12:43:41.055668"	94	5.7528385
"S200116"	"Conflict_Resolution"	"LEFT"	"LEFT"	528.138099999978	916.6666685	n/a	n/a	n/a	n/a	"False"	n/a	n/a	"2020-01-16 12:43:41.992296"	"2020-01-16 12:43:42.728573"	95	5.7528385
"S200116"	"Conflict_Resolution"	"LEFT"	"LEFT"	385.563499999989	1066.6666688	n/a	n/a	n/a	n/a	"False"	n/a	n/a	"2020-01-16 12:43:43.814995"	"2020-01-16 12:43:44.408923"	96	5.7528385
"S200116"	"Conflict_Resolution"	"RIGHT"	"RIGHT"	558.454999999981	1383.3333361	n/a	n/a	n/a	n/a	"True"	n/a	n/a	"2020-01-16 12:43:45.810344"	"2020-01-16 12:43:46.576404"	97	5.7528385
"S200116"	"Conflict_Resolution"	"LEFT"	"LEFT"	463.962400000014	533.3333344	n/a	n/a	n/a	n/a	"True"	n/a	n/a	"2020-01-16 12:43:47.129207"	"2020-01-16 12:43:47.801198"	98	5.7528385
"S200116"	"Conflict_Resolution"	"LEFT"	"LEFT"	439.569100000085	1500.000003	n/a	n/a	n/a	n/a	"False"	n/a	n/a	"2020-01-16 12:43:49.321173"	"2020-01-16 12:43:49.968679"	99	5.7528385
"S200116"	"Conflict_Resolution"	"LEFT"	"LEFT"	419.375899999977	866.6666684	n/a	n/a	n/a	n/a	"False"	n/a	n/a	"2020-01-16 12:43:50.852921"	"2020-01-16 12:43:51.481031"	100	5.7528385
"S200116"	"Conflict_Resolution"	"LEFT"	"LEFT"	504.865900000027	1316.6666693	n/a	n/a	n/a	n/a	"True"	n/a	n/a	"2020-01-16 12:43:52.817213"	"2020-01-16 12:43:53.529315"	101	5.7528385
"S200116"	"Conflict_Resolution"	"LEFT"	"LEFT"	444.17199999998	1200.0000024	n/a	n/a	n/a	n/a	"True"	n/a	n/a	"2020-01-16 12:43:54.748411"	"2020-01-16 12:43:55.399413"	102	5.7528385
"S200116"	"Conflict_Resolution"	"LEFT"	"LEFT"	444.145599999956	1016.6666687	n/a	n/a	n/a	n/a	"True"	n/a	n/a	"2020-01-16 12:43:56.436445"	"2020-01-16 12:43:57.089189"	103	5.7528385
"S200116"	"Conflict_Resolution"	"LEFT"	"LEFT"	336.55239999996	1266.6666692	n/a	n/a	n/a	n/a	"False"	n/a	n/a	"2020-01-16 12:43:58.375312"	"2020-01-16 12:43:58.920654"	104	5.7528385
"S200116"	"Conflict_Resolution"	"RIGHT"	"RIGHT"	574.415699999918	1316.6666693	n/a	n/a	n/a	n/a	"True"	n/a	n/a	"2020-01-16 12:44:00.258320"	"2020-01-16 12:44:01.040700"	105	5.7528385
"S200116"	"Conflict_Resolution"	"RIGHT"	"RIGHT"	571.284300000002	850.0000017	n/a	n/a	n/a	n/a	"True"	n/a	n/a	"2020-01-16 12:44:01.909072"	"2020-01-16 12:44:02.689108"	106	5.7528385
"S200116"	"Conflict_Resolution"	"RIGHT"	"RIGHT"	389.436499999988	783.3333349	n/a	n/a	n/a	n/a	"False"	n/a	n/a	"2020-01-16 12:44:03.491045"	"2020-01-16 12:44:04.090253"	107	5.7528385
"S200116"	"Conflict_Resolution"	"LEFT"	"LEFT"	462.727800000039	1150.0000023	n/a	n/a	n/a	n/a	"True"	n/a	n/a	"2020-01-16 12:44:05.258307"	"2020-01-16 12:44:05.928387"	108	5.7528385
"S200116"	"Conflict_Resolution"	"RIGHT"	"RIGHT"	690.453199999979	650.0000013	n/a	n/a	n/a	n/a	"True"	n/a	n/a	"2020-01-16 12:44:06.598272"	"2020-01-16 12:44:07.497027"	109	5.7528385
"S200116"	"Conflict_Resolution"	"LEFT"	"LEFT"	405.569900000046	1150.0000023	n/a	n/a	n/a	n/a	"False"	n/a	n/a	"2020-01-16 12:44:08.666484"	"2020-01-16 12:44:09.279517"	110	5.7528385
"S200116"	"Conflict_Resolution"	"LEFT"	"LEFT"	449.376899999947	716.6666681	n/a	n/a	n/a	n/a	"False"	n/a	n/a	"2020-01-16 12:44:10.015641"	"2020-01-16 12:44:10.673361"	111	5.7528385
"S200116"	"Conflict_Resolution"	"RIGHT"	"RIGHT"	502.16839999996	950.0000019	n/a	n/a	n/a	n/a	"True"	n/a	n/a	"2020-01-16 12:44:11.642502"	"2020-01-16 12:44:12.351320"	112	5.7528385
"S200116"	"Conflict_Resolution"	"RIGHT"	"RIGHT"	515.484499999957	833.333335	n/a	n/a	n/a	n/a	"True"	n/a	n/a	"2020-01-16 12:44:13.204483"	"2020-01-16 12:44:13.928332"	113	5.7528385
"S200116"	"Conflict_Resolution"	"LEFT"	"LEFT"	625.572899999952	1300.0000026	n/a	n/a	n/a	n/a	"True"	n/a	n/a	"2020-01-16 12:44:15.246496"	"2020-01-16 12:44:16.080813"	114	5.7528385
"S200116"	"Conflict_Resolution"	"RIGHT"	"RIGHT"	399.255699999912	1333.333336	n/a	n/a	n/a	n/a	"False"	n/a	n/a	"2020-01-16 12:44:17.432767"	"2020-01-16 12:44:18.039908"	115	5.7528385
"S200116"	"Conflict_Resolution"	"RIGHT"	"RIGHT"	456.313200000068	933.3333352	n/a	n/a	n/a	n/a	"True"	n/a	n/a	"2020-01-16 12:44:18.992017"	"2020-01-16 12:44:19.657243"	116	5.7528385
"S200116"	"Conflict_Resolution"	"RIGHT"	"RIGHT"	418.786999999952	1266.6666692	n/a	n/a	n/a	n/a	"False"	n/a	n/a	"2020-01-16 12:44:20.941785"	"2020-01-16 12:44:21.569274"	117	5.7528385
"S200116"	"Conflict_Resolution"	"RIGHT"	"RIGHT"	484.499699999901	783.3333349	n/a	n/a	n/a	n/a	"True"	n/a	n/a	"2020-01-16 12:44:22.371414"	"2020-01-16 12:44:23.065166"	118	5.7528385
"S200116"	"Conflict_Resolution"	"RIGHT"	"RIGHT"	541.456100000005	1333.333336	n/a	n/a	n/a	n/a	"True"	n/a	n/a	"2020-01-16 12:44:24.419030"	"2020-01-16 12:44:25.167760"	119	5.7528385
"S200116"	"Conflict_Resolution"	"RIGHT"	"RIGHT"	456.984299999931	950.0000019	n/a	n/a	n/a	n/a	"False"	n/a	n/a	"2020-01-16 12:44:26.135266"	"2020-01-16 12:44:26.800933"	120	5.7528385
"S200116"	"Conflict_Resolution"	"LEFT"	"LEFT"	457.990700000096	516.6666677	n/a	n/a	n/a	n/a	"False"	n/a	n/a	"2020-01-16 12:44:27.335503"	"2020-01-16 12:44:28.002056"	121	5.7528385
"S200116"	"Conflict_Resolution"	"LEFT"	"LEFT"	536.894999999959	1466.6666696	n/a	n/a	n/a	n/a	"True"	n/a	n/a	"2020-01-16 12:44:29.487540"	"2020-01-16 12:44:30.232965"	122	5.7528385
"S200116"	"Conflict_Resolution"	"RIGHT"	"RIGHT"	478.209500000048	983.3333353	n/a	n/a	n/a	n/a	"True"	n/a	n/a	"2020-01-16 12:44:31.235436"	"2020-01-16 12:44:31.922170"	123	5.7528385
"S200116"	"Conflict_Resolution"	"RIGHT"	"RIGHT"	459.651000000008	1150.0000023	n/a	n/a	n/a	n/a	"True"	n/a	n/a	"2020-01-16 12:44:33.092824"	"2020-01-16 12:44:33.761224"	124	5.7528385
"S200116"	"Conflict_Resolution"	"LEFT"	"LEFT"	417.294099999935	1050.0000021	n/a	n/a	n/a	n/a	"False"	n/a	n/a	"2020-01-16 12:44:34.831284"	"2020-01-16 12:44:35.457181"	125	5.7528385
"S200116"	"Conflict_Resolution"	"LEFT"	"RIGHT"	342.87740000002	966.6666686	n/a	n/a	n/a	n/a	"True"	n/a	n/a	"2020-01-16 12:44:36.441434"	"2020-01-16 12:44:36.993093"	126	5.7528385
"S200116"	"Conflict_Resolution"	"RIGHT"	"RIGHT"	544.143899999995	883.3333351	n/a	n/a	n/a	n/a	"True"	n/a	n/a	"2020-01-16 12:44:37.896685"	"2020-01-16 12:44:38.648973"	127	5.7528385
"S200116"	"Conflict_Resolution"	"LEFT"	"LEFT"	441.778399999976	633.3333346	n/a	n/a	n/a	n/a	"True"	n/a	n/a	"2020-01-16 12:44:39.303278"	"2020-01-16 12:44:39.953201"	128	5.7528385
"S200116"	"Conflict_Resolution"	"LEFT"	"LEFT"	477.996000000076	1366.6666694	n/a	n/a	n/a	n/a	"False"	n/a	n/a	"2020-01-16 12:44:41.338277"	"2020-01-16 12:44:42.025039"	129	5.7528385
"S200116"	"Conflict_Resolution"	"LEFT"	"LEFT"	564.723400000048	766.6666682	n/a	n/a	n/a	n/a	"True"	n/a	n/a	"2020-01-16 12:44:42.812105"	"2020-01-16 12:44:43.584155"	130	5.7528385
"S200116"	"Conflict_Resolution"	"LEFT"	"LEFT"	393.908199999942	900.0000018	n/a	n/a	n/a	n/a	"False"	n/a	n/a	"2020-01-16 12:44:44.502353"	"2020-01-16 12:44:45.104315"	131	5.7528385
"S200116"	"Conflict_Resolution"	"LEFT"	"LEFT"	544.127399999979	716.6666681	n/a	n/a	n/a	n/a	"True"	n/a	n/a	"2020-01-16 12:44:45.840434"	"2020-01-16 12:44:46.591655"	132	5.7528385
"S200116"	"Conflict_Resolution"	"RIGHT"	"RIGHT"	566.525800000022	750.0000015	n/a	n/a	n/a	n/a	"True"	n/a	n/a	"2020-01-16 12:44:47.361945"	"2020-01-16 12:44:48.135533"	133	5.7528385
"S200116"	"Conflict_Resolution"	"LEFT"	"LEFT"	631.734600000073	1350.0000027	n/a	n/a	n/a	n/a	"True"	n/a	n/a	"2020-01-16 12:44:49.505107"	"2020-01-16 12:44:50.344905"	134	5.7528385
"S200116"	"Conflict_Resolution"	"LEFT"	"LEFT"	498.88240000007	1066.6666688	n/a	n/a	n/a	n/a	"True"	n/a	n/a	"2020-01-16 12:44:51.429537"	"2020-01-16 12:44:52.136330"	135	5.7528385
"S200116"	"Conflict_Resolution"	"LEFT"	"LEFT"	507.751299999995	1000.000002	n/a	n/a	n/a	n/a	"True"	n/a	n/a	"2020-01-16 12:44:53.156490"	"2020-01-16 12:44:53.873793"	136	5.7528385
"S200116"	"Conflict_Resolution"	"LEFT"	"LEFT"	471.282600000109	733.3333348	n/a	n/a	n/a	n/a	"True"	n/a	n/a	"2020-01-16 12:44:54.624475"	"2020-01-16 12:44:55.304976"	137	5.7528385
"S200116"	"Conflict_Resolution"	"LEFT"	"LEFT"	585.890999999947	1266.6666692	n/a	n/a	n/a	n/a	"True"	n/a	n/a	"2020-01-16 12:44:56.590100"	"2020-01-16 12:44:57.385153"	138	5.7528385
"S200116"	"Conflict_Resolution"	"LEFT"	"LEFT"	539.258099999984	1400.0000028	n/a	n/a	n/a	n/a	"True"	n/a	n/a	"2020-01-16 12:44:58.805282"	"2020-01-16 12:44:59.552139"	139	5.7528385
"S200116"	"Conflict_Resolution"	"RIGHT"	"RIGHT"	521.672899999999	500.000001	n/a	n/a	n/a	n/a	"False"	n/a	n/a	"2020-01-16 12:45:00.070250"	"2020-01-16 12:45:00.801965"	140	5.7528385
"S200116"	"Conflict_Resolution"	"LEFT"	"LEFT"	531.532500000026	633.3333346	n/a	n/a	n/a	n/a	"False"	n/a	n/a	"2020-01-16 12:45:01.453237"	"2020-01-16 12:45:02.191494"	141	5.7528385
"S200116"	"Conflict_Resolution"	"RIGHT"	"RIGHT"	382.434100000069	583.3333345	n/a	n/a	n/a	n/a	"False"	n/a	n/a	"2020-01-16 12:45:02.793464"	"2020-01-16 12:45:03.384817"	142	5.7528385
"S200116"	"Conflict_Resolution"	"RIGHT"	"RIGHT"	608.861600000068	683.3333347	n/a	n/a	n/a	n/a	"True"	n/a	n/a	"2020-01-16 12:45:04.087400"	"2020-01-16 12:45:04.904010"	143	5.7528385
"S200116"	"Conflict_Resolution"	"LEFT"	"LEFT"	402.331400000094	850.0000017	n/a	n/a	n/a	n/a	"False"	n/a	n/a	"2020-01-16 12:45:05.773530"	"2020-01-16 12:45:06.383736"	144	5.7528385
"S200116"	"Conflict_Resolution"	"RIGHT"	"RIGHT"	412.254899999994	1233.3333358	n/a	n/a	n/a	n/a	"True"	n/a	n/a	"2020-01-16 12:45:07.635909"	"2020-01-16 12:45:08.256371"	145	5.7528385
"S200116"	"Conflict_Resolution"	"RIGHT"	"RIGHT"	468.375100000003	1416.6666695	n/a	n/a	n/a	n/a	"False"	n/a	n/a	"2020-01-16 12:45:09.692234"	"2020-01-16 12:45:10.367612"	146	5.7528385
"S200116"	"Conflict_Resolution"	"LEFT"	"LEFT"	493.141299999934	583.3333345	n/a	n/a	n/a	n/a	"False"	n/a	n/a	"2020-01-16 12:45:10.970873"	"2020-01-16 12:45:11.672989"	147	5.7528385
"S200116"	"Conflict_Resolution"	"RIGHT"	"RIGHT"	427.174200000081	650.0000013	n/a	n/a	n/a	n/a	"False"	n/a	n/a	"2020-01-16 12:45:12.340795"	"2020-01-16 12:45:12.977160"	148	5.7528385
"S200116"	"Conflict_Resolution"	"RIGHT"	"RIGHT"	412.626799999998	983.3333353	n/a	n/a	n/a	n/a	"False"	n/a	n/a	"2020-01-16 12:45:13.980316"	"2020-01-16 12:45:14.601802"	149	5.7528385
"S200116"	"Conflict_Resolution"	"RIGHT"	"RIGHT"	509.756799999991	1366.6666694	n/a	n/a	n/a	n/a	"False"	n/a	n/a	"2020-01-16 12:45:15.986671"	"2020-01-16 12:45:16.703419"	150	5.7528385
"S200116"	"Conflict_Resolution"	"RIGHT"	"RIGHT"	369.003899999939	700.0000014	n/a	n/a	n/a	n/a	"False"	n/a	n/a	"2020-01-16 12:45:17.423522"	"2020-01-16 12:45:18.000957"	151	5.7528385
"S200116"	"Conflict_Resolution"	"RIGHT"	"RIGHT"	457.346400000006	900.0000018	n/a	n/a	n/a	n/a	"True"	n/a	n/a	"2020-01-16 12:45:18.918585"	"2020-01-16 12:45:19.583691"	152	5.7528385
"S200116"	"Conflict_Resolution"	"LEFT"	"LEFT"	464.231700000028	916.6666685	n/a	n/a	n/a	n/a	"True"	n/a	n/a	"2020-01-16 12:45:20.520178"	"2020-01-16 12:45:21.192491"	153	5.7528385
"S200116"	"Conflict_Resolution"	"LEFT"	"LEFT"	513.60950000003	866.6666684	n/a	n/a	n/a	n/a	"True"	n/a	n/a	"2020-01-16 12:45:22.078806"	"2020-01-16 12:45:22.800870"	154	5.7528385
"S200116"	"Conflict_Resolution"	"LEFT"	"LEFT"	509.019799999919	783.3333349	n/a	n/a	n/a	n/a	"True"	n/a	n/a	"2020-01-16 12:45:23.603492"	"2020-01-16 12:45:24.320602"	155	5.7528385
"S200116"	"Conflict_Resolution"	"LEFT"	"LEFT"	384.199699999954	1466.6666696	n/a	n/a	n/a	n/a	"False"	n/a	n/a	"2020-01-16 12:45:25.808481"	"2020-01-16 12:45:26.399313"	156	5.7528385
"S200116"	"Conflict_Resolution"	"LEFT"	"LEFT"	459.941299999969	1250.0000025	n/a	n/a	n/a	n/a	"True"	n/a	n/a	"2020-01-16 12:45:27.667809"	"2020-01-16 12:45:28.337121"	157	5.7528385
"S200116"	"Conflict_Resolution"	"LEFT"	"LEFT"	607.685800000013	1100.0000022	n/a	n/a	n/a	n/a	"False"	n/a	n/a	"2020-01-16 12:45:29.456451"	"2020-01-16 12:45:30.272274"	158	5.7528385
"S200116"	"Conflict_Resolution"	"RIGHT"	"RIGHT"	415.515300000038	1316.6666693	n/a	n/a	n/a	n/a	"False"	n/a	n/a	"2020-01-16 12:45:31.608849"	"2020-01-16 12:45:32.231890"	159	5.7528385
"S200116"	"Conflict_Resolution"	"LEFT"	"LEFT"	431.864700000006	1116.6666689	n/a	n/a	n/a	n/a	"False"	n/a	n/a	"2020-01-16 12:45:33.368103"	"2020-01-16 12:45:34.007863"	160	5.7528385
"S200116"	"Processing_Speed"	"LEFT"	"DOWN"	308.418000000003	850.0000017	""	n/a	n/a	n/a	n/a	n/a	n/a	"2020-01-16 12:30:45.469148"	"2020-01-16 12:30:45.985425"	1	1.6470304
"S200116"	"Processing_Speed"	"RIGHT"	"DOWN"	256.286000000003	983.3333353	""	n/a	n/a	n/a	n/a	n/a	n/a	"2020-01-16 12:30:46.977038"	"2020-01-16 12:30:47.441828"	2	1.6470304
"S200116"	"Processing_Speed"	"RIGHT"	"DOWN"	242.856700000004	500.000001	""	n/a	n/a	n/a	n/a	n/a	n/a	"2020-01-16 12:30:47.951139"	"2020-01-16 12:30:48.401509"	3	1.6470304
"S200116"	"Processing_Speed"	"LEFT"	"DOWN"	215.015700000009	633.3333346	""	n/a	n/a	n/a	n/a	n/a	n/a	"2020-01-16 12:30:49.043816"	"2020-01-16 12:30:49.466317"	4	1.6470304
"S200116"	"Processing_Speed"	"LEFT"	"DOWN"	235.894099999996	666.666668	""	n/a	n/a	n/a	n/a	n/a	n/a	"2020-01-16 12:30:50.141909"	"2020-01-16 12:30:50.586273"	5	1.6470304
"S200116"	"Processing_Speed"	"LEFT"	"DOWN"	308.494699999997	1466.6666696	""	n/a	n/a	n/a	n/a	n/a	n/a	"2020-01-16 12:30:52.061889"	"2020-01-16 12:30:52.578507"	6	1.6470304
"S200116"	"Processing_Speed"	"LEFT"	"DOWN"	232.644399999998	950.0000019	""	n/a	n/a	n/a	n/a	n/a	n/a	"2020-01-16 12:30:53.537523"	"2020-01-16 12:30:53.978770"	7	1.6470304
"S200116"	"Processing_Speed"	"RIGHT"	"DOWN"	225.185500000009	533.3333344	""	n/a	n/a	n/a	n/a	n/a	n/a	"2020-01-16 12:30:54.520355"	"2020-01-16 12:30:54.954955"	8	1.6470304
"S200116"	"Processing_Speed"	"LEFT"	"DOWN"	206.756900000002	983.3333353	""	n/a	n/a	n/a	n/a	n/a	n/a	"2020-01-16 12:30:55.946611"	"2020-01-16 12:30:56.362168"	9	1.6470304
"S200116"	"Processing_Speed"	"LEFT"	"DOWN"	213.312900000005	1016.6666687	""	n/a	n/a	n/a	n/a	n/a	n/a	"2020-01-16 12:30:57.388267"	"2020-01-16 12:30:57.809735"	10	1.6470304
"S200116"	"Processing_Speed"	"LEFT"	"DOWN"	394.403100000005	1116.6666689	""	n/a	n/a	n/a	n/a	n/a	n/a	"2020-01-16 12:30:58.935203"	"2020-01-16 12:30:59.536669"	11	1.6470304
"S200116"	"Processing_Speed"	"LEFT"	"DOWN"	207.599400000007	1216.6666691	""	n/a	n/a	n/a	n/a	n/a	n/a	"2020-01-16 12:31:00.761757"	"2020-01-16 12:31:01.176671"	12	1.6470304
"S200116"	"Processing_Speed"	"LEFT"	"DOWN"	264.009899999991	600.0000012	""	n/a	n/a	n/a	n/a	n/a	n/a	"2020-01-16 12:31:01.785115"	"2020-01-16 12:31:02.258125"	13	1.6470304
"S200116"	"Processing_Speed"	"RIGHT"	"DOWN"	264.644700000005	1150.0000023	""	n/a	n/a	n/a	n/a	n/a	n/a	"2020-01-16 12:31:03.417289"	"2020-01-16 12:31:03.889546"	14	1.6470304
"S200116"	"Processing_Speed"	"LEFT"	"DOWN"	210.485800000001	1333.333336	""	n/a	n/a	n/a	n/a	n/a	n/a	"2020-01-16 12:31:05.231803"	"2020-01-16 12:31:05.650282"	15	1.6470304
"S200116"	"Processing_Speed"	"RIGHT"	"DOWN"	259.075999999993	666.666668	""	n/a	n/a	n/a	n/a	n/a	n/a	"2020-01-16 12:31:06.326264"	"2020-01-16 12:31:06.794044"	16	1.6470304
"S200116"	"Processing_Speed"	"LEFT"	"DOWN"	242.198400000007	916.6666685	""	n/a	n/a	n/a	n/a	n/a	n/a	"2020-01-16 12:31:07.719614"	"2020-01-16 12:31:08.170939"	17	1.6470304
"S200116"	"Processing_Speed"	"RIGHT"	"DOWN"	370.821599999999	700.0000014	""	n/a	n/a	n/a	n/a	n/a	n/a	"2020-01-16 12:31:08.879146"	"2020-01-16 12:31:09.457669"	18	1.6470304
"S200116"	"Processing_Speed"	"LEFT"	"DOWN"	235.012500000011	500.000001	""	n/a	n/a	n/a	n/a	n/a	n/a	"2020-01-16 12:31:09.966542"	"2020-01-16 12:31:10.410107"	19	1.6470304
"S200116"	"Processing_Speed"	"RIGHT"	"DOWN"	269.765599999999	1433.3333362	""	n/a	n/a	n/a	n/a	n/a	n/a	"2020-01-16 12:31:11.852554"	"2020-01-16 12:31:12.329582"	20	1.6470304
"S200116"	"Processing_Speed"	"RIGHT"	"DOWN"	225.216900000007	1366.6666694	""	n/a	n/a	n/a	n/a	n/a	n/a	"2020-01-16 12:31:13.704338"	"2020-01-16 12:31:14.138216"	21	1.6470304
"S200116"	"Processing_Speed"	"LEFT"	"DOWN"	222.5258	1183.3333357	""	n/a	n/a	n/a	n/a	n/a	n/a	"2020-01-16 12:31:15.331016"	"2020-01-16 12:31:15.761657"	22	1.6470304
"S200116"	"Processing_Speed"	"LEFT"	"DOWN"	229.381500000002	1050.0000021	""	n/a	n/a	n/a	n/a	n/a	n/a	"2020-01-16 12:31:16.820397"	"2020-01-16 12:31:17.257432"	23	1.6470304
"S200116"	"Processing_Speed"	"RIGHT"	"DOWN"	462.280399999997	1266.6666692	"DOWN"	-189.542	n/a	n/a	n/a	n/a	n/a	"2020-01-16 12:31:18.532156"	"2020-01-16 12:31:19.203272"	24	1.6470304
"S200116"	"Processing_Speed"	"LEFT"	"DOWN"	198.013400000008	1400.0000028	""	n/a	n/a	n/a	n/a	n/a	n/a	"2020-01-16 12:31:20.611702"	"2020-01-16 12:31:21.018886"	25	1.6470304
"S200116"	"Processing_Speed"	"LEFT"	"DOWN"	262.452100000004	783.3333349	""	n/a	n/a	n/a	n/a	n/a	n/a	"2020-01-16 12:31:21.811348"	"2020-01-16 12:31:22.281451"	26	1.6470304
"S200116"	"Processing_Speed"	"RIGHT"	"DOWN"	226.240700000005	916.6666685	""	n/a	n/a	n/a	n/a	n/a	n/a	"2020-01-16 12:31:23.207946"	"2020-01-16 12:31:23.642814"	27	1.6470304
"S200116"	"Processing_Speed"	"LEFT"	"DOWN"	128.526100000016	1150.0000023	""	n/a	n/a	n/a	n/a	n/a	n/a	"2020-01-16 12:31:24.800850"	"2020-01-16 12:31:25.138975"	28	1.6470304
"S200116"	"Processing_Speed"	"RIGHT"	"DOWN"	235.571000000022	1466.6666696	""	n/a	n/a	n/a	n/a	n/a	n/a	"2020-01-16 12:31:26.614210"	"2020-01-16 12:31:27.056949"	29	1.6470304
"S200116"	"Processing_Speed"	"LEFT"	"DOWN"	273.586299999977	1366.6666694	""	n/a	n/a	n/a	n/a	n/a	n/a	"2020-01-16 12:31:28.431802"	"2020-01-16 12:31:28.912549"	30	1.6470304
"S200116"	"Processing_Speed"	"RIGHT"	"DOWN"	355.283500000013	1333.333336	"DOWN"	-145.165	n/a	n/a	n/a	n/a	n/a	"2020-01-16 12:31:30.254788"	"2020-01-16 12:31:30.818231"	31	1.6470304
"S200116"	"Processing_Speed"	"LEFT"	"DOWN"	267.561199999989	883.3333351	""	n/a	n/a	n/a	n/a	n/a	n/a	"2020-01-16 12:31:31.710455"	"2020-01-16 12:31:32.185812"	32	1.6470304
"S200116"	"Processing_Speed"	"RIGHT"	"DOWN"	259.372999999982	1083.3333355	""	n/a	n/a	n/a	n/a	n/a	n/a	"2020-01-16 12:31:33.278768"	"2020-01-16 12:31:33.747006"	33	1.6470304
"S200116"	"Processing_Speed"	"RIGHT"	"DOWN"	260.330300000021	850.0000017	""	n/a	n/a	n/a	n/a	n/a	n/a	"2020-01-16 12:31:34.605826"	"2020-01-16 12:31:35.076195"	34	1.6470304
"S200116"	"Processing_Speed"	"RIGHT"	"DOWN"	217.463500000008	1300.0000026	""	n/a	n/a	n/a	n/a	n/a	n/a	"2020-01-16 12:31:36.384227"	"2020-01-16 12:31:36.811122"	35	1.6470304
"S200116"	"Processing_Speed"	"RIGHT"	"DOWN"	252.245099999982	633.3333346	""	n/a	n/a	n/a	n/a	n/a	n/a	"2020-01-16 12:31:37.453746"	"2020-01-16 12:31:37.914044"	36	1.6470304
"S200116"	"Processing_Speed"	"RIGHT"	"DOWN"	247.679500000004	950.0000019	""	n/a	n/a	n/a	n/a	n/a	n/a	"2020-01-16 12:31:38.873722"	"2020-01-16 12:31:39.330122"	37	1.6470304
"S200116"	"Processing_Speed"	"RIGHT"	"DOWN"	234.047099999998	1500.000003	""	n/a	n/a	n/a	n/a	n/a	n/a	"2020-01-16 12:31:40.839661"	"2020-01-16 12:31:41.283105"	38	1.6470304
"S200116"	"Processing_Speed"	"LEFT"	"DOWN"	204.992300000015	1433.3333362	""	n/a	n/a	n/a	n/a	n/a	n/a	"2020-01-16 12:31:42.724604"	"2020-01-16 12:31:43.137533"	39	1.6470304
"S200116"	"Processing_Speed"	"LEFT"	"DOWN"	290.258100000017	533.3333344	""	n/a	n/a	n/a	n/a	n/a	n/a	"2020-01-16 12:31:43.679654"	"2020-01-16 12:31:44.177372"	40	1.6470304
"S200116"	"Processing_Speed"	"LEFT"	"DOWN"	225.608700000009	733.3333348	""	n/a	n/a	n/a	n/a	n/a	n/a	"2020-01-16 12:31:44.920120"	"2020-01-16 12:31:45.353871"	41	1.6470304
"S200116"	"Processing_Speed"	"RIGHT"	"DOWN"	239.754699999992	783.3333349	""	n/a	n/a	n/a	n/a	n/a	n/a	"2020-01-16 12:31:46.145844"	"2020-01-16 12:31:46.593618"	42	1.6470304
"S200116"	"Processing_Speed"	"LEFT"	"DOWN"	227.042600000004	700.0000014	""	n/a	n/a	n/a	n/a	n/a	n/a	"2020-01-16 12:31:47.302934"	"2020-01-16 12:31:47.736774"	43	1.6470304
"S200116"	"Processing_Speed"	"RIGHT"	"DOWN"	280.999499999979	1183.3333357	"DOWN"	-275.279	n/a	n/a	n/a	n/a	n/a	"2020-01-16 12:31:48.928966"	"2020-01-16 12:31:49.418009"	44	1.6470304
"S200116"	"Processing_Speed"	"RIGHT"	"DOWN"	303.161900000021	600.0000012	""	n/a	n/a	n/a	n/a	n/a	n/a	"2020-01-16 12:31:50.026656"	"2020-01-16 12:31:50.537926"	45	1.6470304
"S200116"	"Processing_Speed"	"LEFT"	"DOWN"	227.694899999989	1083.3333355	""	n/a	n/a	n/a	n/a	n/a	n/a	"2020-01-16 12:31:51.629557"	"2020-01-16 12:31:52.064336"	46	1.6470304
"S200116"	"Processing_Speed"	"RIGHT"	"DOWN"	232.095300000026	1400.0000028	""	n/a	n/a	n/a	n/a	n/a	n/a	"2020-01-16 12:31:53.473561"	"2020-01-16 12:31:53.913738"	47	1.6470304
"S200116"	"Processing_Speed"	"RIGHT"	"DOWN"	338.050600000003	733.3333348	""	n/a	n/a	n/a	n/a	n/a	n/a	"2020-01-16 12:31:54.655331"	"2020-01-16 12:31:55.202801"	48	1.6470304
"S200116"	"Processing_Speed"	"RIGHT"	"DOWN"	274.820699999992	883.3333351	""	n/a	n/a	n/a	n/a	n/a	n/a	"2020-01-16 12:31:56.095027"	"2020-01-16 12:31:56.576744"	49	1.6470304
"S200116"	"Processing_Speed"	"LEFT"	"DOWN"	247.335399999997	816.6666683	""	n/a	n/a	n/a	n/a	n/a	n/a	"2020-01-16 12:31:57.402117"	"2020-01-16 12:31:57.857475"	50	1.6470304
"S200116"	"Processing_Speed"	"RIGHT"	"DOWN"	218.756600000006	1116.6666689	""	n/a	n/a	n/a	n/a	n/a	n/a	"2020-01-16 12:31:58.983103"	"2020-01-16 12:31:59.409313"	51	1.6470304
"S200116"	"Processing_Speed"	"RIGHT"	"DOWN"	118.619499999994	1216.6666691	""	n/a	n/a	n/a	n/a	n/a	n/a	"2020-01-16 12:32:00.634787"	"2020-01-16 12:32:00.961133"	52	1.6470304
"S200116"	"Processing_Speed"	"RIGHT"	"DOWN"	236.584900000025	1050.0000021	""	n/a	n/a	n/a	n/a	n/a	n/a	"2020-01-16 12:32:02.021064"	"2020-01-16 12:32:02.464295"	53	1.6470304
"S200116"	"Processing_Speed"	"LEFT"	"DOWN"	265.791299999989	566.6666678	""	n/a	n/a	n/a	n/a	n/a	n/a	"2020-01-16 12:32:03.040151"	"2020-01-16 12:32:03.513885"	54	1.6470304
"S200116"	"Processing_Speed"	"LEFT"	"DOWN"	196.624700000001	1266.6666692	""	n/a	n/a	n/a	n/a	n/a	n/a	"2020-01-16 12:32:04.788736"	"2020-01-16 12:32:05.194122"	55	1.6470304
"S200116"	"Processing_Speed"	"RIGHT"	"DOWN"	237.752599999993	1016.6666687	""	n/a	n/a	n/a	n/a	n/a	n/a	"2020-01-16 12:32:06.220026"	"2020-01-16 12:32:06.665368"	56	1.6470304
"S200116"	"Processing_Speed"	"LEFT"	"DOWN"	220.012300000008	1500.000003	""	n/a	n/a	n/a	n/a	n/a	n/a	"2020-01-16 12:32:08.173736"	"2020-01-16 12:32:08.601603"	57	1.6470304
"S200116"	"Processing_Speed"	"RIGHT"	"DOWN"	254.647000000006	816.6666683	""	n/a	n/a	n/a	n/a	n/a	n/a	"2020-01-16 12:32:09.426785"	"2020-01-16 12:32:09.888585"	58	1.6470304
"S200116"	"Processing_Speed"	"LEFT"	"DOWN"	252.516400000019	1300.0000026	"DOWN"	-158.883	n/a	n/a	n/a	n/a	n/a	"2020-01-16 12:32:11.196792"	"2020-01-16 12:32:11.657330"	59	1.6470304
"S200116"	"Processing_Speed"	"RIGHT"	"DOWN"	280.994800000002	566.6666678	""	n/a	n/a	n/a	n/a	n/a	n/a	"2020-01-16 12:32:12.232817"	"2020-01-16 12:32:12.722123"	60	1.6470304
"S200116"	"Response_Inhibition"	"RIGHT"	"RIGHT"	381.105399999967	1050.0000021	""	n/a	n/a	n/a	n/a	n/a	n/a	"2020-01-16 12:35:35.779682"	"2020-01-16 12:35:36.368414"	1	4.96278058333333
"S200116"	"Response_Inhibition"	"RIGHT"	"Time_Max_Exceeded"	1500.05276670002	1133.3333356	""	n/a	n/a	n/a	n/a	n/a	n/a	"2020-01-16 12:35:37.509904"	"2020-01-16 12:35:39.013243"	2	4.96278058333333
"S200116"	"Response_Inhibition"	"LEFT"	"LEFT"	384.927299999958	633.3333346	""	n/a	n/a	n/a	n/a	n/a	n/a	"2020-01-16 12:35:39.656658"	"2020-01-16 12:35:40.249138"	3	4.96278058333333
"S200116"	"Response_Inhibition"	"LEFT"	"LEFT"	407.174999999995	1016.6666687	""	n/a	n/a	n/a	n/a	n/a	n/a	"2020-01-16 12:35:41.274556"	"2020-01-16 12:35:41.888560"	4	4.96278058333333
"S200116"	"Response_Inhibition"	"RIGHT"	"RIGHT"	380.004699999972	500.000001	""	n/a	n/a	n/a	n/a	n/a	n/a	"2020-01-16 12:35:42.396905"	"2020-01-16 12:35:42.984349"	5	4.96278058333333
"S200116"	"Response_Inhibition"	"RIGHT"	"RIGHT"	388.347600000031	900.0000018	""	n/a	n/a	n/a	n/a	n/a	n/a	"2020-01-16 12:35:43.893205"	"2020-01-16 12:35:44.490080"	6	4.96278058333333
"S200116"	"Response_Inhibition"	"LEFT"	"LEFT"	330.674433499971	1000.000002	""	n/a	n/a	n/a	n/a	n/a	n/a	"2020-01-16 12:35:45.499177"	"2020-01-16 12:35:46.041537"	7	4.96278058333333
"S200116"	"Response_Inhibition"	"RIGHT"	"RIGHT"	332.525167299979	1383.3333361	""	n/a	n/a	n/a	n/a	n/a	n/a	"2020-01-16 12:35:47.432962"	"2020-01-16 12:35:47.978815"	8	4.96278058333333
"S200116"	"Response_Inhibition"	"RIGHT"	"RIGHT"	399.787500000002	1350.0000027	""	n/a	n/a	n/a	n/a	n/a	n/a	"2020-01-16 12:35:49.337773"	"2020-01-16 12:35:49.945591"	9	4.96278058333333
"S200116"	"Response_Inhibition"	"RIGHT"	"RIGHT"	401.432633800051	1083.3333355	""	n/a	n/a	n/a	n/a	n/a	n/a	"2020-01-16 12:35:51.037510"	"2020-01-16 12:35:51.649327"	10	4.96278058333333
"S200116"	"Response_Inhibition"	"LEFT"	"LEFT"	422.357900399963	533.3333344	""	n/a	n/a	n/a	n/a	n/a	n/a	"2020-01-16 12:35:52.191375"	"2020-01-16 12:35:52.825299"	11	4.96278058333333
"S200116"	"Response_Inhibition"	"RIGHT"	"RIGHT"	250.000733599983	633.3333346	""	n/a	n/a	n/a	n/a	n/a	n/a	"2020-01-16 12:35:53.467560"	"2020-01-16 12:35:53.930141"	12	4.96278058333333
"S200116"	"Response_Inhibition"	"RIGHT"	"RIGHT"	329.914200000019	700.0000014	""	n/a	n/a	n/a	n/a	n/a	n/a	"2020-01-16 12:35:54.639641"	"2020-01-16 12:35:55.176686"	13	4.96278058333333
"S200116"	"Response_Inhibition"	"LEFT"	"LEFT"	314.917733799997	866.6666684	""	n/a	n/a	n/a	n/a	n/a	n/a	"2020-01-16 12:35:56.051945"	"2020-01-16 12:35:56.577571"	14	4.96278058333333
"S200116"	"Response_Inhibition"	"RIGHT"	"RIGHT"	278.15370040003	516.6666677	""	n/a	n/a	n/a	n/a	n/a	n/a	"2020-01-16 12:35:57.103284"	"2020-01-16 12:35:57.593054"	15	4.96278058333333
"S200116"	"Response_Inhibition"	"LEFT"	"LEFT"	237.511100000006	633.3333346	""	n/a	n/a	n/a	n/a	n/a	n/a	"2020-01-16 12:35:58.235779"	"2020-01-16 12:35:58.680586"	16	4.96278058333333
"S200116"	"Response_Inhibition"	"LEFT"	"LEFT"	333.434199999999	1266.6666692	""	n/a	n/a	n/a	n/a	n/a	n/a	"2020-01-16 12:35:59.955681"	"2020-01-16 12:36:00.498188"	17	4.96278058333333
"S200116"	"Response_Inhibition"	"LEFT"	"LEFT"	343.363833600016	1083.3333355	""	n/a	n/a	n/a	n/a	n/a	n/a	"2020-01-16 12:36:01.590667"	"2020-01-16 12:36:02.144317"	18	4.96278058333333
"S200116"	"Response_Inhibition"	"RIGHT"	"RIGHT"	261.604800200021	600.0000012	""	n/a	n/a	n/a	n/a	n/a	n/a	"2020-01-16 12:36:02.752656"	"2020-01-16 12:36:03.225620"	19	4.96278058333333
"S200116"	"Response_Inhibition"	"RIGHT"	"RIGHT"	312.325900000019	566.6666678	""	n/a	n/a	n/a	n/a	n/a	n/a	"2020-01-16 12:36:03.800604"	"2020-01-16 12:36:04.321244"	20	4.96278058333333
"S200116"	"Response_Inhibition"	"LEFT"	"LEFT"	216.964899999994	883.3333351	""	n/a	n/a	n/a	n/a	n/a	n/a	"2020-01-16 12:36:05.216982"	"2020-01-16 12:36:05.642021"	21	4.96278058333333
"S200116"	"Response_Inhibition"	"RIGHT"	"RIGHT"	230.998066900026	1300.0000026	""	n/a	n/a	n/a	n/a	n/a	n/a	"2020-01-16 12:36:06.951146"	"2020-01-16 12:36:07.392591"	22	4.96278058333333
"S200116"	"Response_Inhibition"	"LEFT"	"LEFT"	256.931099999974	1400.0000028	""	n/a	n/a	n/a	n/a	n/a	n/a	"2020-01-16 12:36:08.800798"	"2020-01-16 12:36:09.265408"	23	4.96278058333333
"S200116"	"Response_Inhibition"	"LEFT"	"LEFT"	313.00770029998	1466.6666696	""	n/a	n/a	n/a	n/a	n/a	n/a	"2020-01-16 12:36:10.740296"	"2020-01-16 12:36:11.264942"	24	4.96278058333333
"S200116"	"Response_Inhibition"	"LEFT"	"LEFT"	347.356399999967	1100.0000022	""	n/a	n/a	n/a	n/a	n/a	n/a	"2020-01-16 12:36:12.373489"	"2020-01-16 12:36:12.929465"	25	4.96278058333333
"S200116"	"Response_Inhibition"	"LEFT"	"LEFT"	303.772999999978	1383.3333361	""	n/a	n/a	n/a	n/a	n/a	n/a	"2020-01-16 12:36:14.321060"	"2020-01-16 12:36:14.832724"	26	4.96278058333333
"S200116"	"Response_Inhibition"	"RIGHT"	"RIGHT"	253.979600000036	1200.0000024	""	n/a	n/a	n/a	n/a	n/a	n/a	"2020-01-16 12:36:16.043291"	"2020-01-16 12:36:16.504413"	27	4.96278058333333
"S200116"	"Response_Inhibition"	"LEFT"	"LEFT"	282.446233700023	666.666668	""	n/a	n/a	n/a	n/a	n/a	n/a	"2020-01-16 12:36:17.179250"	"2020-01-16 12:36:17.673454"	28	4.96278058333333
"S200116"	"Response_Inhibition"	"RIGHT"	"RIGHT"	233.76623340001	1033.3333354	""	n/a	n/a	n/a	n/a	n/a	n/a	"2020-01-16 12:36:18.716745"	"2020-01-16 12:36:19.160563"	29	4.96278058333333
"S200116"	"Response_Inhibition"	"LEFT"	"LEFT"	261.356633599995	1416.6666695	""	n/a	n/a	n/a	n/a	n/a	n/a	"2020-01-16 12:36:20.585250"	"2020-01-16 12:36:21.058984"	30	4.96278058333333
"S200116"	"Response_Inhibition"	"RIGHT"	"RIGHT"	251.062300000001	850.0000017	""	n/a	n/a	n/a	n/a	n/a	n/a	"2020-01-16 12:36:21.917346"	"2020-01-16 12:36:22.378073"	31	4.96278058333333
"S200116"	"Response_Inhibition"	"RIGHT"	"RIGHT"	328.882399999998	750.0000015	""	n/a	n/a	n/a	n/a	n/a	n/a	"2020-01-16 12:36:23.136627"	"2020-01-16 12:36:23.673233"	32	4.96278058333333
"S200116"	"Response_Inhibition"	"RIGHT"	"LEFT"	289.339266999987	1466.6666696	""	n/a	n/a	n/a	n/a	n/a	n/a	"2020-01-16 12:36:25.149034"	"2020-01-16 12:36:25.649861"	33	4.96278058333333
"S200116"	"Response_Inhibition"	"RIGHT"	"RIGHT"	368.578133900055	1266.6666692	""	n/a	n/a	n/a	n/a	n/a	n/a	"2020-01-16 12:36:26.924927"	"2020-01-16 12:36:27.504951"	34	4.96278058333333
"S200116"	"Response_Inhibition"	"LEFT"	"LEFT"	316.657100499986	783.3333349	""	n/a	n/a	n/a	n/a	n/a	n/a	"2020-01-16 12:36:28.297053"	"2020-01-16 12:36:28.824692"	35	4.96278058333333
"S200116"	"Response_Inhibition"	"LEFT"	"LEFT"	320.461399999999	966.6666686	""	n/a	n/a	n/a	n/a	n/a	n/a	"2020-01-16 12:36:29.800408"	"2020-01-16 12:36:30.329027"	36	4.96278058333333
"S200116"	"Response_Inhibition"	"LEFT"	"LEFT"	298.500199999978	1316.6666693	""	n/a	n/a	n/a	n/a	n/a	n/a	"2020-01-16 12:36:31.654782"	"2020-01-16 12:36:32.160432"	37	4.96278058333333
"S200116"	"Response_Inhibition"	"LEFT"	"LEFT"	268.30976699999	1216.6666691	""	n/a	n/a	n/a	n/a	n/a	n/a	"2020-01-16 12:36:33.385789"	"2020-01-16 12:36:33.864508"	38	4.96278058333333
"S200116"	"Response_Inhibition"	"LEFT"	"LEFT"	380.109699999991	500.000001	""	n/a	n/a	n/a	n/a	n/a	n/a	"2020-01-16 12:36:34.373142"	"2020-01-16 12:36:34.961330"	39	4.96278058333333
"S200116"	"Response_Inhibition"	"RIGHT"	"RIGHT"	322.523400000023	1100.0000022	""	n/a	n/a	n/a	n/a	n/a	n/a	"2020-01-16 12:36:36.070645"	"2020-01-16 12:36:36.600389"	40	4.96278058333333
"S200116"	"Response_Inhibition"	"RIGHT"	"RIGHT"	298.521999999991	733.3333348	""	n/a	n/a	n/a	n/a	n/a	n/a	"2020-01-16 12:36:37.342334"	"2020-01-16 12:36:37.848972"	41	4.96278058333333
"S200116"	"Response_Inhibition"	"LEFT"	"LEFT"	264.321499999994	983.3333353	""	n/a	n/a	n/a	n/a	n/a	n/a	"2020-01-16 12:36:38.840438"	"2020-01-16 12:36:39.314782"	42	4.96278058333333
"S200116"	"Response_Inhibition"	"RIGHT"	"RIGHT"	243.462899999997	1066.6666688	""	n/a	n/a	n/a	n/a	n/a	n/a	"2020-01-16 12:36:40.389539"	"2020-01-16 12:36:40.841453"	43	4.96278058333333
"S200116"	"Response_Inhibition"	"RIGHT"	"RIGHT"	341.90220000005	633.3333346	""	n/a	n/a	n/a	n/a	n/a	n/a	"2020-01-16 12:36:41.482806"	"2020-01-16 12:36:42.032731"	44	4.96278058333333
"S200116"	"Response_Inhibition"	"LEFT"	"LEFT"	218.021299999975	933.3333352	""	n/a	n/a	n/a	n/a	n/a	n/a	"2020-01-16 12:36:42.975158"	"2020-01-16 12:36:43.402016"	45	4.96278058333333
"S200116"	"Response_Inhibition"	"RIGHT"	"RIGHT"	246.816800000033	800.0000016	""	n/a	n/a	n/a	n/a	n/a	n/a	"2020-01-16 12:36:44.210625"	"2020-01-16 12:36:44.665644"	46	4.96278058333333
"S200116"	"Response_Inhibition"	"RIGHT"	"RIGHT"	462.359599999957	1016.6666687	"LEFT"	-53.859	n/a	n/a	n/a	n/a	n/a	"2020-01-16 12:36:45.690640"	"2020-01-16 12:36:46.360625"	47	4.96278058333333
"S200116"	"Response_Inhibition"	"LEFT"	"LEFT"	263.930399999992	1200.0000024	""	n/a	n/a	n/a	n/a	n/a	n/a	"2020-01-16 12:36:47.569063"	"2020-01-16 12:36:48.041804"	48	4.96278058333333
"S200116"	"Response_Inhibition"	"RIGHT"	"RIGHT"	298.050100000012	916.6666685	""	n/a	n/a	n/a	n/a	n/a	n/a	"2020-01-16 12:36:48.967005"	"2020-01-16 12:36:49.473524"	49	4.96278058333333
"S200116"	"Response_Inhibition"	"LEFT"	"LEFT"	288.968300000022	950.0000019	""	n/a	n/a	n/a	n/a	n/a	n/a	"2020-01-16 12:36:50.431973"	"2020-01-16 12:36:50.929022"	50	4.96278058333333
"S200116"	"Response_Inhibition"	"LEFT"	"LEFT"	311.176700000033	816.6666683	""	n/a	n/a	n/a	n/a	n/a	n/a	"2020-01-16 12:36:51.754559"	"2020-01-16 12:36:52.272649"	51	4.96278058333333
"S200116"	"Response_Inhibition"	"LEFT"	"LEFT"	291.210400000011	1500.000003	""	n/a	n/a	n/a	n/a	n/a	n/a	"2020-01-16 12:36:53.781735"	"2020-01-16 12:36:54.280415"	52	4.96278058333333
"S200116"	"Response_Inhibition"	"LEFT"	"LEFT"	332.930900000008	1283.3333359	""	n/a	n/a	n/a	n/a	n/a	n/a	"2020-01-16 12:36:55.572115"	"2020-01-16 12:36:56.113853"	53	4.96278058333333
"S200116"	"Response_Inhibition"	"RIGHT"	"RIGHT"	362.572300000011	1100.0000022	""	n/a	n/a	n/a	n/a	n/a	n/a	"2020-01-16 12:36:57.222440"	"2020-01-16 12:36:57.793910"	54	4.96278058333333
"S200116"	"Response_Inhibition"	"LEFT"	"LEFT"	289.401567000012	1050.0000021	""	n/a	n/a	n/a	n/a	n/a	n/a	"2020-01-16 12:36:58.852765"	"2020-01-16 12:36:59.354198"	55	4.96278058333333
"S200116"	"Response_Inhibition"	"RIGHT"	"RIGHT"	267.659400000014	866.6666684	""	n/a	n/a	n/a	n/a	n/a	n/a	"2020-01-16 12:37:00.230513"	"2020-01-16 12:37:00.706066"	56	4.96278058333333
"S200116"	"Response_Inhibition"	"LEFT"	"LEFT"	227.91239999998	1266.6666692	""	n/a	n/a	n/a	n/a	n/a	n/a	"2020-01-16 12:37:01.981811"	"2020-01-16 12:37:02.417646"	57	4.96278058333333
"S200116"	"Response_Inhibition"	"RIGHT"	"RIGHT"	235.546999999997	683.3333347	""	n/a	n/a	n/a	n/a	n/a	n/a	"2020-01-16 12:37:03.109804"	"2020-01-16 12:37:03.553479"	58	4.96278058333333
"S200116"	"Response_Inhibition"	"RIGHT"	"RIGHT"	309.364900000048	833.333335	""	n/a	n/a	n/a	n/a	n/a	n/a	"2020-01-16 12:37:04.395225"	"2020-01-16 12:37:04.912540"	59	4.96278058333333
"S200116"	"Response_Inhibition"	"LEFT"	"LEFT"	230.76930000002	1416.6666695	""	n/a	n/a	n/a	n/a	n/a	n/a	"2020-01-16 12:37:06.338408"	"2020-01-16 12:37:06.777431"	60	4.96278058333333
"S200116"	"Response_Inhibition"	"LEFT"	"LEFT"	338.849000000039	916.6666685	""	n/a	n/a	n/a	n/a	n/a	n/a	"2020-01-16 12:37:07.702398"	"2020-01-16 12:37:08.249965"	61	4.96278058333333
"S200116"	"Response_Inhibition"	"LEFT"	"RIGHT"	207.937200000003	1166.666669	""	n/a	n/a	n/a	n/a	n/a	n/a	"2020-01-16 12:37:09.425142"	"2020-01-16 12:37:09.841216"	62	4.96278058333333
"S200116"	"Response_Inhibition"	"RIGHT"	"RIGHT"	327.372200000013	1000.000002	""	n/a	n/a	n/a	n/a	n/a	n/a	"2020-01-16 12:37:10.849776"	"2020-01-16 12:37:11.386043"	63	4.96278058333333
"S200116"	"Response_Inhibition"	"RIGHT"	"RIGHT"	385.6328671	850.0000017	""	n/a	n/a	n/a	n/a	n/a	n/a	"2020-01-16 12:37:12.243738"	"2020-01-16 12:37:12.842126"	64	4.96278058333333
"S200116"	"Response_Inhibition"	"RIGHT"	"RIGHT"	315.234000000032	683.3333347	""	n/a	n/a	n/a	n/a	n/a	n/a	"2020-01-16 12:37:13.533885"	"2020-01-16 12:37:14.056346"	65	4.96278058333333
"S200116"	"Response_Inhibition"	"LEFT"	"LEFT"	247.822600000006	800.0000016	""	n/a	n/a	n/a	n/a	n/a	n/a	"2020-01-16 12:37:14.865148"	"2020-01-16 12:37:15.322232"	66	4.96278058333333
"S200116"	"Response_Inhibition"	"RIGHT"	"RIGHT"	310.600833800005	716.6666681	""	n/a	n/a	n/a	n/a	n/a	n/a	"2020-01-16 12:37:16.047571"	"2020-01-16 12:37:16.570014"	67	4.96278058333333
"S200116"	"Response_Inhibition"	"RIGHT"	"RIGHT"	392.313300000012	950.0000019	""	n/a	n/a	n/a	n/a	n/a	n/a	"2020-01-16 12:37:17.528893"	"2020-01-16 12:37:18.128296"	68	4.96278058333333
"S200116"	"Response_Inhibition"	"RIGHT"	"LEFT"	278.193233700017	733.3333348	""	n/a	n/a	n/a	n/a	n/a	n/a	"2020-01-16 12:37:18.871462"	"2020-01-16 12:37:19.361877"	69	4.96278058333333
"S200116"	"Response_Inhibition"	"LEFT"	"LEFT"	237.228800000025	1216.6666691	""	n/a	n/a	n/a	n/a	n/a	n/a	"2020-01-16 12:37:20.587462"	"2020-01-16 12:37:21.032333"	70	4.96278058333333
"S200116"	"Response_Inhibition"	"LEFT"	"LEFT"	250.475600100004	650.0000013	""	n/a	n/a	n/a	n/a	n/a	n/a	"2020-01-16 12:37:21.691180"	"2020-01-16 12:37:22.152571"	71	4.96278058333333
"S200116"	"Response_Inhibition"	"LEFT"	"LEFT"	418.234400000017	516.6666677	""	n/a	n/a	n/a	n/a	n/a	n/a	"2020-01-16 12:37:22.678859"	"2020-01-16 12:37:23.304377"	72	4.96278058333333
"S200116"	"Response_Inhibition"	"RIGHT"	"RIGHT"	245.666999999969	1050.0000021	""	n/a	n/a	n/a	n/a	n/a	n/a	"2020-01-16 12:37:24.363637"	"2020-01-16 12:37:24.816715"	73	4.96278058333333
"S200116"	"Response_Inhibition"	"LEFT"	"LEFT"	236.66860000003	850.0000017	""	n/a	n/a	n/a	n/a	n/a	n/a	"2020-01-16 12:37:25.676065"	"2020-01-16 12:37:26.120537"	74	4.96278058333333
"S200116"	"Response_Inhibition"	"RIGHT"	"RIGHT"	343.544967200033	533.3333344	""	n/a	n/a	n/a	n/a	n/a	n/a	"2020-01-16 12:37:26.662384"	"2020-01-16 12:37:27.218031"	75	4.96278058333333
"S200116"	"Response_Inhibition"	"RIGHT"	"RIGHT"	338.593866799993	1416.6666695	"LEFT"	-413.937	n/a	n/a	n/a	n/a	n/a	"2020-01-16 12:37:28.643258"	"2020-01-16 12:37:29.193817"	76	4.96278058333333
"S200116"	"Response_Inhibition"	"LEFT"	"LEFT"	355.469400000004	683.3333347	""	n/a	n/a	n/a	n/a	n/a	n/a	"2020-01-16 12:37:29.885784"	"2020-01-16 12:37:30.449298"	77	4.96278058333333
"S200116"	"Response_Inhibition"	"RIGHT"	"RIGHT"	244.334999999978	1266.6666692	""	n/a	n/a	n/a	n/a	n/a	n/a	"2020-01-16 12:37:31.724709"	"2020-01-16 12:37:32.177348"	78	4.96278058333333
"S200116"	"Response_Inhibition"	"LEFT"	"LEFT"	253.961800000013	600.0000012	""	n/a	n/a	n/a	n/a	n/a	n/a	"2020-01-16 12:37:32.786754"	"2020-01-16 12:37:33.248557"	79	4.96278058333333
"S200116"	"Response_Inhibition"	"LEFT"	"LEFT"	299.07570019998	1433.3333362	""	n/a	n/a	n/a	n/a	n/a	n/a	"2020-01-16 12:37:34.691540"	"2020-01-16 12:37:35.201808"	80	4.96278058333333
"S200116"	"Response_Inhibition"	"LEFT"	"Time_Max_Exceeded"	1500.07246670001	900.0000018	""	n/a	n/a	n/a	n/a	n/a	n/a	"2020-01-16 12:37:36.109772"	"2020-01-16 12:37:37.613314"	81	4.96278058333333
"S200116"	"Response_Inhibition"	"LEFT"	"LEFT"	374.452599999984	1066.6666688	""	n/a	n/a	n/a	n/a	n/a	n/a	"2020-01-16 12:37:38.690646"	"2020-01-16 12:37:39.273218"	82	4.96278058333333
"S200116"	"Response_Inhibition"	"LEFT"	"LEFT"	391.212500599983	1316.6666693	""	n/a	n/a	n/a	n/a	n/a	n/a	"2020-01-16 12:37:40.599003"	"2020-01-16 12:37:41.201389"	83	4.96278058333333
"S200116"	"Response_Inhibition"	"RIGHT"	"RIGHT"	325.943867199997	1150.0000023	""	n/a	n/a	n/a	n/a	n/a	n/a	"2020-01-16 12:37:42.359967"	"2020-01-16 12:37:42.897068"	84	4.96278058333333
"S200116"	"Response_Inhibition"	"RIGHT"	"RIGHT"	363.789366899977	766.6666682	""	n/a	n/a	n/a	n/a	n/a	n/a	"2020-01-16 12:37:43.674067"	"2020-01-16 12:37:44.250223"	85	4.96278058333333
"S200116"	"Response_Inhibition"	"LEFT"	"LEFT"	237.513100000001	783.3333349	""	n/a	n/a	n/a	n/a	n/a	n/a	"2020-01-16 12:37:45.043671"	"2020-01-16 12:37:45.488678"	86	4.96278058333333
"S200116"	"Response_Inhibition"	"LEFT"	"LEFT"	398.194999999987	1450.0000029	""	n/a	n/a	n/a	n/a	n/a	n/a	"2020-01-16 12:37:46.947247"	"2020-01-16 12:37:47.552706"	87	4.96278058333333
"S200116"	"Response_Inhibition"	"RIGHT"	"RIGHT"	311.079599999971	983.3333353	""	n/a	n/a	n/a	n/a	n/a	n/a	"2020-01-16 12:37:48.546110"	"2020-01-16 12:37:49.064725"	88	4.96278058333333
"S200116"	"Response_Inhibition"	"RIGHT"	"RIGHT"	304.637733500008	900.0000018	""	n/a	n/a	n/a	n/a	n/a	n/a	"2020-01-16 12:37:49.973316"	"2020-01-16 12:37:50.489600"	89	4.96278058333333
"S200116"	"Response_Inhibition"	"LEFT"	"LEFT"	391.414399999917	583.3333345	""	n/a	n/a	n/a	n/a	n/a	n/a	"2020-01-16 12:37:51.081259"	"2020-01-16 12:37:51.680722"	90	4.96278058333333
"S200116"	"Response_Inhibition"	"RIGHT"	"RIGHT"	439.819900000089	1166.666669	""	n/a	n/a	n/a	n/a	n/a	n/a	"2020-01-16 12:37:52.857517"	"2020-01-16 12:37:53.504968"	91	4.96278058333333
"S200116"	"Response_Inhibition"	"RIGHT"	"RIGHT"	348.372099999892	666.666668	""	n/a	n/a	n/a	n/a	n/a	n/a	"2020-01-16 12:37:54.180735"	"2020-01-16 12:37:54.736559"	92	4.96278058333333
"S200116"	"Response_Inhibition"	"LEFT"	"LEFT"	229.911466900075	1366.6666694	""	n/a	n/a	n/a	n/a	n/a	n/a	"2020-01-16 12:37:56.111765"	"2020-01-16 12:37:56.552326"	93	4.96278058333333
"S200116"	"Response_Inhibition"	"RIGHT"	"RIGHT"	190.148199999953	1233.3333358	""	n/a	n/a	n/a	n/a	n/a	n/a	"2020-01-16 12:37:57.795269"	"2020-01-16 12:37:58.192355"	94	4.96278058333333
"S200116"	"Response_Inhibition"	"RIGHT"	"LEFT"	287.457500000073	1416.6666695	""	n/a	n/a	n/a	n/a	n/a	n/a	"2020-01-16 12:37:59.617335"	"2020-01-16 12:38:00.112731"	95	4.96278058333333
"S200116"	"Response_Inhibition"	"LEFT"	"LEFT"	416.3949	766.6666682	""	n/a	n/a	n/a	n/a	n/a	n/a	"2020-01-16 12:38:00.888240"	"2020-01-16 12:38:01.512669"	96	4.96278058333333
"S200116"	"Response_Inhibition"	"LEFT"	"LEFT"	233.938999999964	1150.0000023	""	n/a	n/a	n/a	n/a	n/a	n/a	"2020-01-16 12:38:02.670936"	"2020-01-16 12:38:03.113809"	97	4.96278058333333
"S200116"	"Response_Inhibition"	"RIGHT"	"RIGHT"	367.782099999999	533.3333344	""	n/a	n/a	n/a	n/a	n/a	n/a	"2020-01-16 12:38:03.656471"	"2020-01-16 12:38:04.233523"	98	4.96278058333333
"S200116"	"Response_Inhibition"	"LEFT"	"LEFT"	249.359200000072	1133.3333356	""	n/a	n/a	n/a	n/a	n/a	n/a	"2020-01-16 12:38:05.375842"	"2020-01-16 12:38:05.832619"	99	4.96278058333333
"S200116"	"Response_Inhibition"	"RIGHT"	"RIGHT"	260.763600000018	1483.3333363	""	n/a	n/a	n/a	n/a	n/a	n/a	"2020-01-16 12:38:07.324546"	"2020-01-16 12:38:07.792326"	100	4.96278058333333
"S200116"	"Response_Inhibition"	"LEFT"	"LEFT"	242.985799999929	1333.333336	""	n/a	n/a	n/a	n/a	n/a	n/a	"2020-01-16 12:38:09.133768"	"2020-01-16 12:38:09.584562"	101	4.96278058333333
"S200116"	"Response_Inhibition"	"LEFT"	"LEFT"	464.367300000049	566.6666678	""	n/a	n/a	n/a	n/a	n/a	n/a	"2020-01-16 12:38:10.160776"	"2020-01-16 12:38:10.832763"	102	4.96278058333333
"S200116"	"Response_Inhibition"	"LEFT"	"LEFT"	321.210900499983	616.6666679	""	n/a	n/a	n/a	n/a	n/a	n/a	"2020-01-16 12:38:11.460262"	"2020-01-16 12:38:11.992666"	103	4.96278058333333
"S200116"	"Response_Inhibition"	"RIGHT"	"RIGHT"	238.444800099957	933.3333352	""	n/a	n/a	n/a	n/a	n/a	n/a	"2020-01-16 12:38:12.935613"	"2020-01-16 12:38:13.384412"	104	4.96278058333333
"S200116"	"Response_Inhibition"	"LEFT"	"LEFT"	293.459166799988	583.3333345	""	n/a	n/a	n/a	n/a	n/a	n/a	"2020-01-16 12:38:13.975954"	"2020-01-16 12:38:14.481091"	105	4.96278058333333
"S200116"	"Response_Inhibition"	"RIGHT"	"RIGHT"	257.330700000011	1150.0000023	""	n/a	n/a	n/a	n/a	n/a	n/a	"2020-01-16 12:38:15.639657"	"2020-01-16 12:38:16.104525"	106	4.96278058333333
"S200116"	"Response_Inhibition"	"LEFT"	"LEFT"	248.976199999902	1366.6666694	""	n/a	n/a	n/a	n/a	n/a	n/a	"2020-01-16 12:38:17.480013"	"2020-01-16 12:38:17.936467"	107	4.96278058333333
"S200116"	"Response_Inhibition"	"LEFT"	"LEFT"	252.891000000091	1483.3333363	""	n/a	n/a	n/a	n/a	n/a	n/a	"2020-01-16 12:38:19.428740"	"2020-01-16 12:38:19.890189"	108	4.96278058333333
"S200116"	"Response_Inhibition"	"LEFT"	"LEFT"	347.104200000103	550.0000011	""	n/a	n/a	n/a	n/a	n/a	n/a	"2020-01-16 12:38:20.453682"	"2020-01-16 12:38:21.008887"	109	4.96278058333333
"S200116"	"Response_Inhibition"	"RIGHT"	"RIGHT"	252.411999999936	1283.3333359	""	n/a	n/a	n/a	n/a	n/a	n/a	"2020-01-16 12:38:22.300064"	"2020-01-16 12:38:22.760378"	110	4.96278058333333
"S200116"	"Response_Inhibition"	"LEFT"	"LEFT"	311.865100100023	1116.6666689	""	n/a	n/a	n/a	n/a	n/a	n/a	"2020-01-16 12:38:23.886099"	"2020-01-16 12:38:24.408700"	111	4.96278058333333
"S200116"	"Response_Inhibition"	"LEFT"	"LEFT"	650.562899999954	950.0000019	""	n/a	n/a	n/a	n/a	n/a	n/a	"2020-01-16 12:38:25.367102"	"2020-01-16 12:38:26.226834"	112	4.96278058333333
"S200116"	"Response_Inhibition"	"RIGHT"	"RIGHT"	272.892600000091	1116.6666689	""	n/a	n/a	n/a	n/a	n/a	n/a	"2020-01-16 12:38:27.351923"	"2020-01-16 12:38:27.833213"	113	4.96278058333333
"S200116"	"Response_Inhibition"	"RIGHT"	"RIGHT"	317.005699999982	1433.3333362	""	n/a	n/a	n/a	n/a	n/a	n/a	"2020-01-16 12:38:29.276046"	"2020-01-16 12:38:29.800646"	114	4.96278058333333
"S200116"	"Response_Inhibition"	"LEFT"	"Time_Max_Exceeded"	1500.07770049991	1183.3333357	""	n/a	n/a	n/a	n/a	n/a	n/a	"2020-01-16 12:38:30.992510"	"2020-01-16 12:38:32.496407"	115	4.96278058333333
"S200116"	"Response_Inhibition"	"RIGHT"	"RIGHT"	312.78169999996	783.3333349	""	n/a	n/a	n/a	n/a	n/a	n/a	"2020-01-16 12:38:33.287927"	"2020-01-16 12:38:33.808579"	116	4.96278058333333
"S200116"	"Response_Inhibition"	"RIGHT"	"RIGHT"	394.947999999999	1316.6666693	""	n/a	n/a	n/a	n/a	n/a	n/a	"2020-01-16 12:38:35.133638"	"2020-01-16 12:38:35.737044"	117	4.96278058333333
"S200116"	"Response_Inhibition"	"RIGHT"	"RIGHT"	391.518000000019	583.3333345	""	n/a	n/a	n/a	n/a	n/a	n/a	"2020-01-16 12:38:36.329609"	"2020-01-16 12:38:36.929215"	118	4.96278058333333
"S200116"	"Response_Inhibition"	"RIGHT"	"RIGHT"	326.902899999936	1216.6666691	""	n/a	n/a	n/a	n/a	n/a	n/a	"2020-01-16 12:38:38.154689"	"2020-01-16 12:38:38.689447"	119	4.96278058333333
"S200116"	"Response_Inhibition"	"RIGHT"	"RIGHT"	386.985200000026	1500.000003	""	n/a	n/a	n/a	n/a	n/a	n/a	"2020-01-16 12:38:40.197990"	"2020-01-16 12:38:40.794009"	120	4.96278058333333
"S200116"	"Response_Inhibition"	"RIGHT"	"Time_Max_Exceeded"	1500.0546333999	1183.3333357	""	n/a	n/a	n/a	n/a	n/a	n/a	"2020-01-16 12:38:41.985842"	"2020-01-16 12:38:43.490554"	121	4.96278058333333
"S200116"	"Response_Inhibition"	"RIGHT"	"RIGHT"	443.369699999948	1450.0000029	""	n/a	n/a	n/a	n/a	n/a	n/a	"2020-01-16 12:38:44.949663"	"2020-01-16 12:38:45.602131"	122	4.96278058333333
"S200116"	"Response_Inhibition"	"RIGHT"	"RIGHT"	422.219599999949	1000.000002	""	n/a	n/a	n/a	n/a	n/a	n/a	"2020-01-16 12:38:46.611003"	"2020-01-16 12:38:47.241112"	123	4.96278058333333
"S200116"	"Response_Inhibition"	"RIGHT"	"RIGHT"	415.232600000081	783.3333349	""	n/a	n/a	n/a	n/a	n/a	n/a	"2020-01-16 12:38:48.033986"	"2020-01-16 12:38:48.656971"	124	4.96278058333333
"S200116"	"Response_Inhibition"	"RIGHT"	"RIGHT"	303.846600000043	583.3333345	""	n/a	n/a	n/a	n/a	n/a	n/a	"2020-01-16 12:38:49.248892"	"2020-01-16 12:38:49.761226"	125	4.96278058333333
"S200116"	"Response_Inhibition"	"RIGHT"	"RIGHT"	236.339233500039	816.6666683	""	n/a	n/a	n/a	n/a	n/a	n/a	"2020-01-16 12:38:50.586257"	"2020-01-16 12:38:51.033820"	126	4.96278058333333
"S200116"	"Response_Inhibition"	"RIGHT"	"RIGHT"	388.991499999975	616.6666679	""	n/a	n/a	n/a	n/a	n/a	n/a	"2020-01-16 12:38:51.659740"	"2020-01-16 12:38:52.256867"	127	4.96278058333333
"S200116"	"Response_Inhibition"	"LEFT"	"LEFT"	407.208400000059	1000.000002	""	n/a	n/a	n/a	n/a	n/a	n/a	"2020-01-16 12:38:53.265776"	"2020-01-16 12:38:53.880752"	128	4.96278058333333
"S200116"	"Response_Inhibition"	"LEFT"	"LEFT"	370.547800000054	533.3333344	""	n/a	n/a	n/a	n/a	n/a	n/a	"2020-01-16 12:38:54.422878"	"2020-01-16 12:38:55.001261"	129	4.96278058333333
"S200116"	"Response_Inhibition"	"LEFT"	"LEFT"	333.247000000028	1250.0000025	""	n/a	n/a	n/a	n/a	n/a	n/a	"2020-01-16 12:38:56.259500"	"2020-01-16 12:38:56.800815"	130	4.96278058333333
"S200116"	"Response_Inhibition"	"LEFT"	"LEFT"	348.599600000057	1050.0000021	""	n/a	n/a	n/a	n/a	n/a	n/a	"2020-01-16 12:38:57.860554"	"2020-01-16 12:38:58.418058"	131	4.96278058333333
"S200116"	"Response_Inhibition"	"LEFT"	"LEFT"	484.771200000068	850.0000017	""	n/a	n/a	n/a	n/a	n/a	n/a	"2020-01-16 12:38:59.276777"	"2020-01-16 12:38:59.969997"	132	4.96278058333333
"S200116"	"Response_Inhibition"	"RIGHT"	"RIGHT"	288.838199999987	1333.333336	""	n/a	n/a	n/a	n/a	n/a	n/a	"2020-01-16 12:39:01.311950"	"2020-01-16 12:39:01.810194"	133	4.96278058333333
"S200116"	"Response_Inhibition"	"RIGHT"	"RIGHT"	336.568433699961	650.0000013	""	n/a	n/a	n/a	n/a	n/a	n/a	"2020-01-16 12:39:02.468904"	"2020-01-16 12:39:03.017774"	134	4.96278058333333
"S200116"	"Response_Inhibition"	"RIGHT"	"RIGHT"	334.443599999986	1400.0000028	""	n/a	n/a	n/a	n/a	n/a	n/a	"2020-01-16 12:39:04.426411"	"2020-01-16 12:39:04.969037"	135	4.96278058333333
"S200116"	"Response_Inhibition"	"RIGHT"	"RIGHT"	346.930400000019	1316.6666693	""	n/a	n/a	n/a	n/a	n/a	n/a	"2020-01-16 12:39:06.294697"	"2020-01-16 12:39:06.849347"	136	4.96278058333333
"S200116"	"Response_Inhibition"	"LEFT"	"LEFT"	240.929400000027	1150.0000023	""	n/a	n/a	n/a	n/a	n/a	n/a	"2020-01-16 12:39:08.008213"	"2020-01-16 12:39:08.457155"	137	4.96278058333333
"S200116"	"Response_Inhibition"	"RIGHT"	"RIGHT"	244.533899999965	1466.6666696	""	n/a	n/a	n/a	n/a	n/a	n/a	"2020-01-16 12:39:09.932557"	"2020-01-16 12:39:10.384889"	138	4.96278058333333
"S200116"	"Response_Inhibition"	"LEFT"	"LEFT"	241.96639999991	1350.0000027	""	n/a	n/a	n/a	n/a	n/a	n/a	"2020-01-16 12:39:11.743702"	"2020-01-16 12:39:12.192640"	139	4.96278058333333
"S200116"	"Response_Inhibition"	"LEFT"	"LEFT"	302.088000000026	1033.3333354	""	n/a	n/a	n/a	n/a	n/a	n/a	"2020-01-16 12:39:13.234409"	"2020-01-16 12:39:13.745194"	140	4.96278058333333
"S200116"	"Response_Inhibition"	"RIGHT"	"RIGHT"	416.823399999998	550.0000011	""	n/a	n/a	n/a	n/a	n/a	n/a	"2020-01-16 12:39:14.303967"	"2020-01-16 12:39:14.929279"	141	4.96278058333333
"S200116"	"Response_Inhibition"	"LEFT"	"LEFT"	242.581800000039	716.6666681	""	n/a	n/a	n/a	n/a	n/a	n/a	"2020-01-16 12:39:15.654410"	"2020-01-16 12:39:16.105248"	142	4.96278058333333
"S200116"	"Response_Inhibition"	"LEFT"	"LEFT"	294.275833900056	733.3333348	""	n/a	n/a	n/a	n/a	n/a	n/a	"2020-01-16 12:39:16.846814"	"2020-01-16 12:39:17.356049"	143	4.96278058333333
"S200116"	"Response_Inhibition"	"LEFT"	"RIGHT"	253.723900000068	750.0000015	""	n/a	n/a	n/a	n/a	n/a	n/a	"2020-01-16 12:39:18.115364"	"2020-01-16 12:39:18.576683"	144	4.96278058333333
"S200116"	"Response_Inhibition"	"RIGHT"	"Time_Max_Exceeded"	1500.07176670003	966.6666686	""	n/a	n/a	n/a	n/a	n/a	n/a	"2020-01-16 12:39:19.551597"	"2020-01-16 12:39:21.056254"	145	4.96278058333333
"S200116"	"Response_Inhibition"	"LEFT"	"LEFT"	355.694299999982	900.0000018	""	n/a	n/a	n/a	n/a	n/a	n/a	"2020-01-16 12:39:21.965576"	"2020-01-16 12:39:22.529058"	146	4.96278058333333
"S200116"	"Response_Inhibition"	"LEFT"	"LEFT"	629.29680000002	833.333335	""	n/a	n/a	n/a	n/a	n/a	n/a	"2020-01-16 12:39:23.371310"	"2020-01-16 12:39:24.208378"	147	4.96278058333333
"S200116"	"Response_Inhibition"	"RIGHT"	"RIGHT"	369.263400000023	1366.6666694	""	n/a	n/a	n/a	n/a	n/a	n/a	"2020-01-16 12:39:25.583069"	"2020-01-16 12:39:26.161185"	148	4.96278058333333
"S200116"	"Response_Inhibition"	"RIGHT"	"RIGHT"	394.983999999909	883.3333351	""	n/a	n/a	n/a	n/a	n/a	n/a	"2020-01-16 12:39:27.054242"	"2020-01-16 12:39:27.655335"	149	4.96278058333333
"S200116"	"Response_Inhibition"	"RIGHT"	"Time_Max_Exceeded"	1500.07846679993	1216.6666691	""	n/a	n/a	n/a	n/a	n/a	n/a	"2020-01-16 12:39:28.880453"	"2020-01-16 12:39:30.384540"	150	4.96278058333333
"S200116"	"Response_Inhibition"	"LEFT"	"Time_Max_Exceeded"	1500.28026729994	1233.3333358	""	n/a	n/a	n/a	n/a	n/a	n/a	"2020-01-16 12:39:31.627755"	"2020-01-16 12:39:33.131060"	151	4.96278058333333
"S200116"	"Response_Inhibition"	"LEFT"	"LEFT"	345.723700000008	1466.6666696	""	n/a	n/a	n/a	n/a	n/a	n/a	"2020-01-16 12:39:34.607790"	"2020-01-16 12:39:35.160494"	152	4.96278058333333
"S200116"	"Response_Inhibition"	"LEFT"	"LEFT"	332.7855	683.3333347	""	n/a	n/a	n/a	n/a	n/a	n/a	"2020-01-16 12:39:35.852497"	"2020-01-16 12:39:36.392407"	153	4.96278058333333
"S200116"	"Response_Inhibition"	"LEFT"	"LEFT"	291.829400000097	1100.0000022	""	n/a	n/a	n/a	n/a	n/a	n/a	"2020-01-16 12:39:37.501023"	"2020-01-16 12:39:38.000689"	154	4.96278058333333
"S200116"	"Response_Inhibition"	"LEFT"	"LEFT"	328.459200400066	1300.0000026	""	n/a	n/a	n/a	n/a	n/a	n/a	"2020-01-16 12:39:39.309545"	"2020-01-16 12:39:39.849110"	155	4.96278058333333
"S200116"	"Response_Inhibition"	"RIGHT"	"RIGHT"	393.135299999926	950.0000019	""	n/a	n/a	n/a	n/a	n/a	n/a	"2020-01-16 12:39:40.808124"	"2020-01-16 12:39:41.408532"	156	4.96278058333333
"S200116"	"Response_Inhibition"	"RIGHT"	"RIGHT"	390.164800300002	1366.6666694	""	n/a	n/a	n/a	n/a	n/a	n/a	"2020-01-16 12:39:42.783641"	"2020-01-16 12:39:43.384622"	157	4.96278058333333
"S200116"	"Response_Inhibition"	"LEFT"	"LEFT"	434.468100000004	700.0000014	""	n/a	n/a	n/a	n/a	n/a	n/a	"2020-01-16 12:39:44.094123"	"2020-01-16 12:39:44.737045"	158	4.96278058333333
"S200116"	"Response_Inhibition"	"RIGHT"	"RIGHT"	300.08440000006	1250.0000025	""	n/a	n/a	n/a	n/a	n/a	n/a	"2020-01-16 12:39:45.996752"	"2020-01-16 12:39:46.504570"	159	4.96278058333333
"S200116"	"Response_Inhibition"	"LEFT"	"Time_Max_Exceeded"	1500.05226709997	733.3333348	""	n/a	n/a	n/a	n/a	n/a	n/a	"2020-01-16 12:39:47.246666"	"2020-01-16 12:39:48.749812"	160	4.96278058333333
"S200116"	"Response_Selection"	"RIGHT"	"RIGHT"	348.486699999995	1450.0000029	""	n/a	n/a	n/a	n/a	n/a	n/a	"2020-01-16 12:32:48.573388"	"2020-01-16 12:32:49.130117"	1	2.60529928333333
"S200116"	"Response_Selection"	"RIGHT"	"RIGHT"	342.779100000001	1400.0000028	""	n/a	n/a	n/a	n/a	n/a	n/a	"2020-01-16 12:32:50.538889"	"2020-01-16 12:32:51.089670"	2	2.60529928333333
"S200116"	"Response_Selection"	"RIGHT"	"RIGHT"	352.398100000016	550.0000011	""	n/a	n/a	n/a	n/a	n/a	n/a	"2020-01-16 12:32:51.649332"	"2020-01-16 12:32:52.209442"	3	2.60529928333333
"S200116"	"Response_Selection"	"LEFT"	"LEFT"	268.393299999985	1250.0000025	""	n/a	n/a	n/a	n/a	n/a	n/a	"2020-01-16 12:32:53.469033"	"2020-01-16 12:32:53.945474"	4	2.60529928333333
"S200116"	"Response_Selection"	"LEFT"	"LEFT"	319.491299999981	583.3333345	""	n/a	n/a	n/a	n/a	n/a	n/a	"2020-01-16 12:32:54.537858"	"2020-01-16 12:32:55.064911"	5	2.60529928333333
"S200116"	"Response_Selection"	"LEFT"	"LEFT"	321.463099999988	966.6666686	""	n/a	n/a	n/a	n/a	n/a	n/a	"2020-01-16 12:32:56.040399"	"2020-01-16 12:32:56.570091"	6	2.60529928333333
"S200116"	"Response_Selection"	"LEFT"	"LEFT"	256.068499999998	750.0000015	""	n/a	n/a	n/a	n/a	n/a	n/a	"2020-01-16 12:32:57.329524"	"2020-01-16 12:32:57.794887"	7	2.60529928333333
"S200116"	"Response_Selection"	"LEFT"	"LEFT"	219.535499999978	650.0000013	""	n/a	n/a	n/a	n/a	n/a	n/a	"2020-01-16 12:32:58.453689"	"2020-01-16 12:32:58.880293"	8	2.60529928333333
"S200116"	"Response_Selection"	"LEFT"	"LEFT"	317.380100000008	1083.3333355	""	n/a	n/a	n/a	n/a	n/a	n/a	"2020-01-16 12:32:59.972513"	"2020-01-16 12:33:00.498567"	9	2.60529928333333
"S200116"	"Response_Selection"	"RIGHT"	"RIGHT"	265.286400000008	700.0000014	""	n/a	n/a	n/a	n/a	n/a	n/a	"2020-01-16 12:33:01.208271"	"2020-01-16 12:33:01.680733"	10	2.60529928333333
"S200116"	"Response_Selection"	"LEFT"	"LEFT"	271.942700000011	1416.6666695	""	n/a	n/a	n/a	n/a	n/a	n/a	"2020-01-16 12:33:03.105455"	"2020-01-16 12:33:03.586169"	11	2.60529928333333
"S200116"	"Response_Selection"	"LEFT"	"LEFT"	355.170799999996	1300.0000026	""	n/a	n/a	n/a	n/a	n/a	n/a	"2020-01-16 12:33:04.894591"	"2020-01-16 12:33:05.458098"	12	2.60529928333333
"S200116"	"Response_Selection"	"RIGHT"	"RIGHT"	248.163099999999	1166.666669	""	n/a	n/a	n/a	n/a	n/a	n/a	"2020-01-16 12:33:06.633605"	"2020-01-16 12:33:07.090243"	13	2.60529928333333
"S200116"	"Response_Selection"	"LEFT"	"LEFT"	253.182099999975	1033.3333354	""	n/a	n/a	n/a	n/a	n/a	n/a	"2020-01-16 12:33:08.132021"	"2020-01-16 12:33:08.593713"	14	2.60529928333333
"S200116"	"Response_Selection"	"LEFT"	"RIGHT"	286.490200000003	1216.6666691	"RIGHT"	-149.646	n/a	n/a	n/a	n/a	n/a	"2020-01-16 12:33:09.818698"	"2020-01-16 12:33:10.314908"	15	2.60529928333333
"S200116"	"Response_Selection"	"RIGHT"	"RIGHT"	449.878399999989	500.000001	""	n/a	n/a	n/a	n/a	n/a	n/a	"2020-01-16 12:33:10.823517"	"2020-01-16 12:33:11.482471"	16	2.60529928333333
"S200116"	"Response_Selection"	"LEFT"	"LEFT"	285.00870000002	833.333335	""	n/a	n/a	n/a	n/a	n/a	n/a	"2020-01-16 12:33:12.323951"	"2020-01-16 12:33:12.816640"	17	2.60529928333333
"S200116"	"Response_Selection"	"LEFT"	"LEFT"	330.3631	533.3333344	""	n/a	n/a	n/a	n/a	n/a	n/a	"2020-01-16 12:33:13.358987"	"2020-01-16 12:33:13.896626"	18	2.60529928333333
"S200116"	"Response_Selection"	"LEFT"	"LEFT"	240.156600000006	600.0000012	""	n/a	n/a	n/a	n/a	n/a	n/a	"2020-01-16 12:33:14.505276"	"2020-01-16 12:33:14.954081"	19	2.60529928333333
"S200116"	"Response_Selection"	"LEFT"	"LEFT"	353.787100000005	1316.6666693	""	n/a	n/a	n/a	n/a	n/a	n/a	"2020-01-16 12:33:16.280018"	"2020-01-16 12:33:16.842167"	20	2.60529928333333
"S200116"	"Response_Selection"	"LEFT"	"LEFT"	294.673699999976	633.3333346	""	n/a	n/a	n/a	n/a	n/a	n/a	"2020-01-16 12:33:17.483538"	"2020-01-16 12:33:17.987222"	21	2.60529928333333
"S200116"	"Response_Selection"	"RIGHT"	"RIGHT"	280.018799999993	733.3333348	""	n/a	n/a	n/a	n/a	n/a	n/a	"2020-01-16 12:33:18.729876"	"2020-01-16 12:33:19.217764"	22	2.60529928333333
"S200116"	"Response_Selection"	"LEFT"	"LEFT"	259.957599999979	866.6666684	""	n/a	n/a	n/a	n/a	n/a	n/a	"2020-01-16 12:33:20.093680"	"2020-01-16 12:33:20.561910"	23	2.60529928333333
"S200116"	"Response_Selection"	"RIGHT"	"RIGHT"	273.581699999994	933.3333352	""	n/a	n/a	n/a	n/a	n/a	n/a	"2020-01-16 12:33:21.503772"	"2020-01-16 12:33:21.985859"	24	2.60529928333333
"S200116"	"Response_Selection"	"RIGHT"	"LEFT"	308.751300000011	1466.6666696	""	n/a	n/a	n/a	n/a	n/a	n/a	"2020-01-16 12:33:23.460774"	"2020-01-16 12:33:23.978342"	25	2.60529928333333
"S200116"	"Response_Selection"	"RIGHT"	"RIGHT"	333.049000000017	1250.0000025	"RIGHT"	-1015.088	n/a	n/a	n/a	n/a	n/a	"2020-01-16 12:33:25.236321"	"2020-01-16 12:33:25.778006"	26	2.60529928333333
"S200116"	"Response_Selection"	"LEFT"	"LEFT"	424.847999999997	550.0000011	""	n/a	n/a	n/a	n/a	n/a	n/a	"2020-01-16 12:33:26.336138"	"2020-01-16 12:33:26.969913"	27	2.60529928333333
"S200116"	"Response_Selection"	"LEFT"	"LEFT"	408.770299999986	1350.0000027	""	n/a	n/a	n/a	n/a	n/a	n/a	"2020-01-16 12:33:28.328262"	"2020-01-16 12:33:28.944932"	28	2.60529928333333
"S200116"	"Response_Selection"	"LEFT"	"LEFT"	320.257200000015	783.3333349	""	n/a	n/a	n/a	n/a	n/a	n/a	"2020-01-16 12:33:29.737498"	"2020-01-16 12:33:30.266094"	29	2.60529928333333
"S200116"	"Response_Selection"	"RIGHT"	"LEFT"	339.055400000007	683.3333347	""	n/a	n/a	n/a	n/a	n/a	n/a	"2020-01-16 12:33:30.958597"	"2020-01-16 12:33:31.504494"	30	2.60529928333333
"S200116"	"Response_Selection"	"LEFT"	"LEFT"	348.312200000009	883.3333351	""	n/a	n/a	n/a	n/a	n/a	n/a	"2020-01-16 12:33:32.396719"	"2020-01-16 12:33:32.954183"	31	2.60529928333333
"S200116"	"Response_Selection"	"LEFT"	"LEFT"	319.110599999988	800.0000016	""	n/a	n/a	n/a	n/a	n/a	n/a	"2020-01-16 12:33:33.762685"	"2020-01-16 12:33:34.289808"	32	2.60529928333333
"S200116"	"Response_Selection"	"RIGHT"	"RIGHT"	280.172500000049	1366.6666694	""	n/a	n/a	n/a	n/a	n/a	n/a	"2020-01-16 12:33:35.665595"	"2020-01-16 12:33:36.153914"	33	2.60529928333333
"S200116"	"Response_Selection"	"LEFT"	"LEFT"	384.314000000018	1166.666669	""	n/a	n/a	n/a	n/a	n/a	n/a	"2020-01-16 12:33:37.329323"	"2020-01-16 12:33:37.920740"	34	2.60529928333333
"S200116"	"Response_Selection"	"LEFT"	"LEFT"	368.090199999983	1016.6666687	""	n/a	n/a	n/a	n/a	n/a	n/a	"2020-01-16 12:33:38.945488"	"2020-01-16 12:33:39.522009"	35	2.60529928333333
"S200116"	"Response_Selection"	"LEFT"	"LEFT"	393.423200000029	733.3333348	""	n/a	n/a	n/a	n/a	n/a	n/a	"2020-01-16 12:33:40.263577"	"2020-01-16 12:33:40.864478"	36	2.60529928333333
"S200116"	"Response_Selection"	"RIGHT"	"RIGHT"	318.422300000009	650.0000013	""	n/a	n/a	n/a	n/a	n/a	n/a	"2020-01-16 12:33:41.522936"	"2020-01-16 12:33:42.050136"	37	2.60529928333333
"S200116"	"Response_Selection"	"LEFT"	"LEFT"	297.530399999971	1133.3333356	""	n/a	n/a	n/a	n/a	n/a	n/a	"2020-01-16 12:33:43.192305"	"2020-01-16 12:33:43.698259"	38	2.60529928333333
"S200116"	"Response_Selection"	"LEFT"	"LEFT"	353.637800000001	916.6666685	""	n/a	n/a	n/a	n/a	n/a	n/a	"2020-01-16 12:33:44.623159"	"2020-01-16 12:33:45.184627"	39	2.60529928333333
"S200116"	"Response_Selection"	"RIGHT"	"RIGHT"	315.671699999996	1083.3333355	""	n/a	n/a	n/a	n/a	n/a	n/a	"2020-01-16 12:33:46.277355"	"2020-01-16 12:33:46.801767"	40	2.60529928333333
"S200116"	"Response_Selection"	"RIGHT"	"RIGHT"	399.159999999995	600.0000012	""	n/a	n/a	n/a	n/a	n/a	n/a	"2020-01-16 12:33:47.410686"	"2020-01-16 12:33:48.016340"	41	2.60529928333333
"S200116"	"Response_Selection"	"RIGHT"	"RIGHT"	391.888900000026	1016.6666687	""	n/a	n/a	n/a	n/a	n/a	n/a	"2020-01-16 12:33:49.041095"	"2020-01-16 12:33:49.641520"	42	2.60529928333333
"S200116"	"Response_Selection"	"RIGHT"	"RIGHT"	321.879500000023	1116.6666689	""	n/a	n/a	n/a	n/a	n/a	n/a	"2020-01-16 12:33:50.767567"	"2020-01-16 12:33:51.298155"	43	2.60529928333333
"S200116"	"Response_Selection"	"LEFT"	"LEFT"	394.73670000001	1500.000003	""	n/a	n/a	n/a	n/a	n/a	n/a	"2020-01-16 12:33:52.806663"	"2020-01-16 12:33:53.408557"	44	2.60529928333333
"S200116"	"Response_Selection"	"LEFT"	"LEFT"	428.826200000003	683.3333347	""	n/a	n/a	n/a	n/a	n/a	n/a	"2020-01-16 12:33:54.099965"	"2020-01-16 12:33:54.737877"	45	2.60529928333333
"S200116"	"Response_Selection"	"RIGHT"	"RIGHT"	327.046000000053	800.0000016	""	n/a	n/a	n/a	n/a	n/a	n/a	"2020-01-16 12:33:55.545949"	"2020-01-16 12:33:56.080299"	46	2.60529928333333
"S200116"	"Response_Selection"	"RIGHT"	"RIGHT"	385.221700000045	583.3333345	""	n/a	n/a	n/a	n/a	n/a	n/a	"2020-01-16 12:33:56.672460"	"2020-01-16 12:33:57.265362"	47	2.60529928333333
"S200116"	"Response_Selection"	"RIGHT"	"RIGHT"	357.675899999947	833.333335	""	n/a	n/a	n/a	n/a	n/a	n/a	"2020-01-16 12:33:58.107841"	"2020-01-16 12:33:58.672381"	48	2.60529928333333
"S200116"	"Response_Selection"	"RIGHT"	"RIGHT"	359.817699999951	1216.6666691	""	n/a	n/a	n/a	n/a	n/a	n/a	"2020-01-16 12:33:59.897921"	"2020-01-16 12:34:00.465505"	49	2.60529928333333
"S200116"	"Response_Selection"	"LEFT"	"LEFT"	314.232300000015	933.3333352	""	n/a	n/a	n/a	n/a	n/a	n/a	"2020-01-16 12:34:01.407809"	"2020-01-16 12:34:01.929637"	50	2.60529928333333
"S200116"	"Response_Selection"	"RIGHT"	"RIGHT"	308.469700000046	883.3333351	""	n/a	n/a	n/a	n/a	n/a	n/a	"2020-01-16 12:34:02.820923"	"2020-01-16 12:34:03.337572"	51	2.60529928333333
"S200116"	"Response_Selection"	"LEFT"	"LEFT"	285.757099999955	1200.0000024	""	n/a	n/a	n/a	n/a	n/a	n/a	"2020-01-16 12:34:04.547633"	"2020-01-16 12:34:05.041579"	52	2.60529928333333
"S200116"	"Response_Selection"	"RIGHT"	"RIGHT"	305.248899999981	1350.0000027	""	n/a	n/a	n/a	n/a	n/a	n/a	"2020-01-16 12:34:06.400089"	"2020-01-16 12:34:06.913292"	53	2.60529928333333
"S200116"	"Response_Selection"	"LEFT"	"LEFT"	347.284599999966	500.000001	""	n/a	n/a	n/a	n/a	n/a	n/a	"2020-01-16 12:34:07.422497"	"2020-01-16 12:34:07.977957"	54	2.60529928333333
"S200116"	"Response_Selection"	"RIGHT"	"RIGHT"	305.680199999983	916.6666685	""	n/a	n/a	n/a	n/a	n/a	n/a	"2020-01-16 12:34:08.904162"	"2020-01-16 12:34:09.419262"	55	2.60529928333333
"S200116"	"Response_Selection"	"RIGHT"	"RIGHT"	369.453299999975	1500.000003	"LEFT"	-418.526	n/a	n/a	n/a	n/a	n/a	"2020-01-16 12:34:10.928138"	"2020-01-16 12:34:11.505317"	56	2.60529928333333
"S200116"	"Response_Selection"	"RIGHT"	"RIGHT"	356.583699999987	1266.6666692	""	n/a	n/a	n/a	n/a	n/a	n/a	"2020-01-16 12:34:12.780222"	"2020-01-16 12:34:13.345833"	57	2.60529928333333
"S200116"	"Response_Selection"	"RIGHT"	"RIGHT"	392.143200000021	966.6666686	""	n/a	n/a	n/a	n/a	n/a	n/a	"2020-01-16 12:34:14.321599"	"2020-01-16 12:34:14.922052"	58	2.60529928333333
"S200116"	"Response_Selection"	"LEFT"	"LEFT"	359.109700000033	983.3333353	""	n/a	n/a	n/a	n/a	n/a	n/a	"2020-01-16 12:34:15.913697"	"2020-01-16 12:34:16.480678"	59	2.60529928333333
"S200116"	"Response_Selection"	"RIGHT"	"RIGHT"	321.157200000016	983.3333353	""	n/a	n/a	n/a	n/a	n/a	n/a	"2020-01-16 12:34:17.472209"	"2020-01-16 12:34:18.001443"	60	2.60529928333333
"S200116"	"Response_Selection"	"LEFT"	"LEFT"	292.455399999994	1466.6666696	""	n/a	n/a	n/a	n/a	n/a	n/a	"2020-01-16 12:34:19.476692"	"2020-01-16 12:34:19.979096"	61	2.60529928333333
"S200116"	"Response_Selection"	"LEFT"	"LEFT"	381.610299999977	1400.0000028	""	n/a	n/a	n/a	n/a	n/a	n/a	"2020-01-16 12:34:21.388201"	"2020-01-16 12:34:21.977464"	62	2.60529928333333
"S200116"	"Response_Selection"	"RIGHT"	"RIGHT"	316.226000000029	1066.6666688	""	n/a	n/a	n/a	n/a	n/a	n/a	"2020-01-16 12:34:23.053171"	"2020-01-16 12:34:23.577969"	63	2.60529928333333
"S200116"	"Response_Selection"	"LEFT"	"LEFT"	308.406900000023	1066.6666688	""	n/a	n/a	n/a	n/a	n/a	n/a	"2020-01-16 12:34:24.653393"	"2020-01-16 12:34:25.170234"	64	2.60529928333333
"S200116"	"Response_Selection"	"RIGHT"	"RIGHT"	296.395500000017	1133.3333356	""	n/a	n/a	n/a	n/a	n/a	n/a	"2020-01-16 12:34:26.313206"	"2020-01-16 12:34:26.816295"	65	2.60529928333333
"S200116"	"Response_Selection"	"LEFT"	"LEFT"	324.845600000003	1450.0000029	""	n/a	n/a	n/a	n/a	n/a	n/a	"2020-01-16 12:34:28.276014"	"2020-01-16 12:34:28.809773"	66	2.60529928333333
"S200116"	"Response_Selection"	"RIGHT"	"RIGHT"	329.059900000004	1300.0000026	""	n/a	n/a	n/a	n/a	n/a	n/a	"2020-01-16 12:34:30.120000"	"2020-01-16 12:34:30.656760"	67	2.60529928333333
"S200116"	"Response_Selection"	"RIGHT"	"RIGHT"	407.005000000026	633.3333346	""	n/a	n/a	n/a	n/a	n/a	n/a	"2020-01-16 12:34:31.298669"	"2020-01-16 12:34:31.914935"	68	2.60529928333333
"S200116"	"Response_Selection"	"RIGHT"	"RIGHT"	347.213899999986	866.6666684	""	n/a	n/a	n/a	n/a	n/a	n/a	"2020-01-16 12:34:32.790128"	"2020-01-16 12:34:33.345607"	69	2.60529928333333
"S200116"	"Response_Selection"	"LEFT"	"LEFT"	308.241199999998	1266.6666692	""	n/a	n/a	n/a	n/a	n/a	n/a	"2020-01-16 12:34:34.620516"	"2020-01-16 12:34:35.137294"	70	2.60529928333333
"S200116"	"Response_Selection"	"RIGHT"	"RIGHT"	359.977700000002	1200.0000024	""	n/a	n/a	n/a	n/a	n/a	n/a	"2020-01-16 12:34:36.345435"	"2020-01-16 12:34:36.912809"	71	2.60529928333333
"S200116"	"Response_Selection"	"RIGHT"	"RIGHT"	306.412000000023	1316.6666693	""	n/a	n/a	n/a	n/a	n/a	n/a	"2020-01-16 12:34:38.238851"	"2020-01-16 12:34:38.753333"	72	2.60529928333333
"S200116"	"Response_Selection"	"LEFT"	"LEFT"	307.036600000004	1116.6666689	""	n/a	n/a	n/a	n/a	n/a	n/a	"2020-01-16 12:34:39.878701"	"2020-01-16 12:34:40.394992"	73	2.60529928333333
"S200116"	"Response_Selection"	"RIGHT"	"RIGHT"	408.642500000042	533.3333344	""	n/a	n/a	n/a	n/a	n/a	n/a	"2020-01-16 12:34:40.936687"	"2020-01-16 12:34:41.554073"	74	2.60529928333333
"S200116"	"Response_Selection"	"RIGHT"	"RIGHT"	367.603999999972	750.0000015	""	n/a	n/a	n/a	n/a	n/a	n/a	"2020-01-16 12:34:42.314145"	"2020-01-16 12:34:42.890007"	75	2.60529928333333
"S200116"	"Response_Selection"	"LEFT"	"LEFT"	320.153199999993	1366.6666694	""	n/a	n/a	n/a	n/a	n/a	n/a	"2020-01-16 12:34:44.265439"	"2020-01-16 12:34:44.793173"	76	2.60529928333333
"S200116"	"Response_Selection"	"RIGHT"	"RIGHT"	366.346600000043	1416.6666695	""	n/a	n/a	n/a	n/a	n/a	n/a	"2020-01-16 12:34:46.218833"	"2020-01-16 12:34:46.793353"	77	2.60529928333333
"S200116"	"Response_Selection"	"RIGHT"	"RIGHT"	376.353699999981	783.3333349	""	n/a	n/a	n/a	n/a	n/a	n/a	"2020-01-16 12:34:47.585264"	"2020-01-16 12:34:48.169347"	78	2.60529928333333
"S200116"	"Response_Selection"	"LEFT"	"LEFT"	323.549000000014	700.0000014	""	n/a	n/a	n/a	n/a	n/a	n/a	"2020-01-16 12:34:48.877418"	"2020-01-16 12:34:49.409128"	79	2.60529928333333
"S200116"	"Response_Selection"	"RIGHT"	"RIGHT"	270.19770000004	1033.3333354	""	n/a	n/a	n/a	n/a	n/a	n/a	"2020-01-16 12:34:50.451452"	"2020-01-16 12:34:50.930153"	80	2.60529928333333
