index	Trial_Type	Participant_ID	Trial_Probability	Question_Position_Prediction_Correct	Question_Position_Prediction_Agent	Question_Position_Comparison_Self	Question_Position_Comparison_Irrelevant	Trial_Stake	Trial_Stake_Jitter	Trial_Type_Jitter	Trial_Result_Jitter	Balance_Update_Jitter	Question_Comparison_Condition	Question_Comparison_Type	Question_Comparison_Question	Question_Comparison_Label	Question_Comparison_Item	Question_Comparison_Proportion_Yes	Question_Factual_Condition	Question_Factual_Item	Question_Factual_Question	Question_Factual_Label	Question_Factual_Proportion_DontKnow	Question_Factual_Type	Answer_Prediction_Correct	Answer_Prediction_Correct_RT	Answer_Prediction_Agent	Answer_Prediction_Agent_RT	Answer_Self	Answer_Self_RT	Answer_Irrelevant	Answer_Irrelevant_RT	Trial_Balance	Trial_Balance_Effect	Trial_Condition	Trial_ProbableSide	Prediction_Choice	Prediction_Result	Prediction_RT	Trial_Order	Trial_Datetime
66	Self	S200131	0.6666666666666666	1	2	1	2	0.2	1216.6666691	1433.3333362	1783.3333369	1500.000003	Minor	Good_deeds	19	You have taken months off to volunteer	C2_33	0.55	Easy	I1_33	33	Some owl species hunt fish	0.0555555555555556	Yes	RIGHT	1561.7001000000528	RIGHT	831.0679999999593	RIGHT	2920.287900000062	RIGHT	2615.6544000000395	10.2	0.2	Probable_Truth	RIGHT	LEFT	2	1133.529199999998	0	2020-01-31 11:26:20.128092
116	Computer	S200131	0.6666666666666666	1	2	2	1	0.2	1216.6666691	1000.000002	1933.3333372	1783.3333369	Major	Good_deeds	14	You have been donating all your excess food to a food bank	C2_36	0.95	Easy	I1_47	31	There are 7 days in a week	0.888888888888889	No	LEFT	2403.8848000000144	LEFT	1264.5043999999643	LEFT	2766.9740999999703	RIGHT	2186.1251000000266	10.2	0.2	Probable_Lie	LEFT	RIGHT	2	622.1515227057527	1	2020-01-31 11:26:47.872745
35	Self	S200131	0.8333333333333334	1	2	1	2	0.1	1216.6666691	1216.6666691	2216.6666711000003	2350.0000047	Minor	Good_deeds	59	You have been physically hurt to protect others	C1_30	0.45	Easy	I1_19	58	Statute of Liberty is in New York	0.0	Yes	RIGHT	1030.8641999999963	RIGHT	768.0460999999923	RIGHT	3122.856699999943	RIGHT	3023.5786999999164	10.3	0.1	Probable_Truth	LEFT	LEFT	1	1409.0941999999131	2	2020-01-31 11:27:16.798805
60	Self	S200131	0.5	2	1	2	1	0.4	1433.3333362	1000.000002	2500.000005	2500.000005	Major	Wrong_doings	23	You have taken part in violent demonstration	C1_43	1.0	Easy	I1_42	16	Airbags in cars are filled with sodium azide	0.666666666666667	Yes	LEFT	1552.835499999901	LEFT	2738.888299999985	LEFT	2576.7468000000235	LEFT	4166.022400000088	10.3	0.4	Probable_Lie	LEFT	LEFT	6	1647.4898000000169	3	2020-01-31 11:27:49.487965
98	Computer	S200131	0.5	1	2	1	2	0.4	1350.0000027	1433.3333362	2066.6666708	1783.3333369	Major	Wrong_doings	11	You have bribed someone to improve a grade	C2_13	0.95	Hard	I1_3	25	It is snowing outside now	0.666666666666667	Yes	RIGHT	1819.202399999995	LEFT	759.7697999999582	LEFT	3537.0811999999887	RIGHT	3575.676999999928	10.3	0.4	Probable_Truth	RIGHT	LEFT	2	820.2707494197609	4	2020-01-31 11:28:19.200574
41	Self	S200131	0.8333333333333334	2	1	1	2	0.5	1150.0000023	1350.0000027	1650.0000033	1500.000003	Major	Good_deeds	46	You have told someone's secret to others	C2_53	1.0	Easy	I1_9	26	There are 10 continents in the World	0.611111111111111	No	RIGHT	890.2143000000251	RIGHT	1120.6033000000843	RIGHT	3095.05989999991	LEFT	3752.188799999999	10.8	0.5	Probable_Truth	LEFT	LEFT	1	990.8056000000444	5	2020-01-31 11:28:47.264015
20	Self	S200131	0.6666666666666666	1	2	2	1	0.7	1150.0000023	1500.000003	1500.000003	2350.0000047	Major	Good_deeds	14	You have been donating all your excess food to a food bank	C2_36	0.95	Easy	I1_47	31	There are 7 days in a week	0.888888888888889	No	RIGHT	1061.1785000000964	RIGHT	632.4903000000859	LEFT	3399.052100000062	RIGHT	1698.4014000000798	11.499999999999998	0.7	Probable_Truth	RIGHT	RIGHT	6	1206.8259000000126	6	2020-01-31 11:29:14.335842
6	Self	S200131	0.5	1	2	2	1	0.7	1216.6666691	1066.6666688	1650.0000033	1933.3333372	Minor	Wrong_doings	7	You have complimented others for good work	C2_48	0.0	Hard	I1_50	59	The current century is 21st	0.0555555555555556	Yes	LEFT	1648.95869999998	RIGHT	2720.121999999946	RIGHT	2159.368200000017	RIGHT	2734.218300000066	10.8	0.7	Probable_Lie	LEFT	LEFT	6	1402.801400000044	7	2020-01-31 11:29:43.441058
34	Self	S200131	0.8333333333333334	1	2	1	2	0.2	1350.0000027	1066.6666688	2350.0000047	1783.3333369	Minor	Good_deeds	35	You have gossiped about your best friend	C1_59	1.0	Easy	I1_13	19	February has 30 days	0.944444444444444	No	LEFT	3042.807300000049	RIGHT	2120.4347000000325	LEFT	4298.97660000006	RIGHT	2567.4533999999767	10.6	0.2	Probable_Lie	RIGHT	LEFT	4	54.6666999999843	8	2020-01-31 11:30:14.647861
119	Computer	S200131	0.6666666666666666	1	2	2	1	0.1	1350.0000027	1216.6666691	2500.000005	1500.000003	Minor	Wrong_doings	36	You have switched off appliances when not in use	C2_56	0.9	Hard	I2_60	47	Marijuana is legal in Singapore	1.0	Yes	LEFT	1716.9453000000203	LEFT	2664.913899999988	RIGHT	1903.4914999999728	LEFT	2222.5947000000588	10.6	0.1	Probable_Lie	LEFT	RIGHT	1	967.9500518851144	9	2020-01-31 11:30:43.255808
65	Self	S200131	0.6666666666666666	1	2	1	2	0.4	1066.6666688	1283.3333359	2500.000005	2350.0000047	Minor	Good_deeds	16	You have engaged in money laundering	C2_17	0.0	Hard	I2_40	5	Singapore is a poor country	0.833333333333333	No	RIGHT	898.9881999999625	RIGHT	600.6368999999268	LEFT	3003.548799999976	LEFT	2223.918099999992	11.0	0.4	Probable_Truth	RIGHT	RIGHT	6	1667.0215999999982	10	2020-01-31 11:31:11.424583
56	Self	S200131	0.5	2	1	1	2	0.7	1283.3333359	1216.6666691	2066.6666708	1650.0000033	Major	Wrong_doings	40	You have watched an M18 movie when you were underage	C2_40	0.7	Easy	I1_41	41	Today is Sunday	0.0	No	RIGHT	792.7346999999827	RIGHT	590.0879999999233	RIGHT	2599.1622000000234	LEFT	2039.6806999999624	11.7	0.7	Probable_Truth	RIGHT	RIGHT	6	2155.385200000069	11	2020-01-31 11:31:38.391774
48	Self	S200131	0.5	1	2	1	2	0.6	1066.6666688	1433.3333362	2350.0000047	1500.000003	Minor	Wrong_doings	20	You have donated blood every 6 months for many years	C2_45	1.0	Easy	I2_8	8	The first Olympic Games was held in the 5th century B.C	0.777777777777778	No	RIGHT	721.5506000000005	RIGHT	1232.938200000035	LEFT	2342.091199999913	RIGHT	2952.2485999999617	12.3	0.6	Probable_Truth	RIGHT	LEFT	2	1319.1683999999668	12	2020-01-31 11:32:05.880233
28	Self	S200131	0.6666666666666666	2	1	2	1	0.6	1283.3333359	1150.0000023	1650.0000033	2216.6666711000003	Minor	Wrong_doings	52	You have sorted your trash into recycling bin	C2_28	0.85	Easy	I2_45	45	Nomophobia is the fear of being without a phone or computer	0.0	No	LEFT	784.8542000000407	RIGHT	2126.302199999941	RIGHT	2486.2795000000237	Time_Max_Exceeded	5000.2214000001	11.7	0.6	Probable_Lie	LEFT	LEFT	5	1750.8659999999736	13	2020-01-31 11:32:36.905000
87	Self	S200131	0.8333333333333334	1	2	2	1	0.1	1433.3333362	1500.000003	1933.3333372	2066.6666708	Minor	Good_deeds	47	You have bought cigarettes for a minor	C2_3	0.05	Hard	I1_14	11	Summer is hotter than winter	0.833333333333333	No	RIGHT	546.9372999999678	RIGHT	487.0597000000316	RIGHT	2551.871300000016	RIGHT	3445.4911000000266	11.8	0.1	Probable_Truth	RIGHT	RIGHT	4	2426.2719000000743	14	2020-01-31 11:33:05.872850
50	Self	S200131	0.5	1	2	1	2	0.4	1000.000002	1066.6666688	2500.000005	2350.0000047	Minor	Wrong_doings	28	You have taken part in burglary	C2_60	0.7	Hard	I2_6	50	Singapore is a country	0.0	No	LEFT	1382.351500000027	RIGHT	1455.8251999999356	LEFT	1979.440899999986	RIGHT	1416.1704000000557	11.4	0.4	Probable_Lie	LEFT	LEFT	5	1444.8151999999936	15	2020-01-31 11:33:33.040618
26	Self	S200131	0.6666666666666666	2	1	1	2	0.8	1150.0000023	1500.000003	1783.3333369	1500.000003	Minor	Wrong_doings	28	You have stopped using plastics completely	C2_59	0.85	Hard	I2_43	31	Feijoa is a type of grape	0.833333333333333	Yes	LEFT	761.0457999999198	RIGHT	2417.6989999999705	LEFT	2494.7030000000723	RIGHT	2808.250000000044	10.599999999999998	0.8	Probable_Truth	LEFT	LEFT	1	1392.4756999999772	16	2020-01-31 11:34:01.416704
99	Computer	S200131	0.5	1	2	1	2	0.5	1283.3333359	1000.000002	2500.000005	2216.6666711000003	Major	Wrong_doings	17	You have sold illegal drugs	C1_44	0.05	Easy	I1_54	18	It sometimes snows in Singapore	0.0	Yes	RIGHT	842.414799999915	LEFT	824.2713000001913	LEFT	1985.4858000001057	LEFT	2600.415099999964	10.599999999999998	0.5	Probable_Truth	RIGHT	LEFT	1	569.7613182701899	17	2020-01-31 11:34:27.801503
71	Self	S200131	0.6666666666666666	1	2	2	1	0.6	1150.0000023	1350.0000027	2350.0000047	2500.000005	Major	Wrong_doings	39	You have adopted a zero-waste lifestyle	C1_16	0.05	Easy	I1_17	34	The first Grammy awards was held in 1959	0.0555555555555556	No	LEFT	1972.402799999827	RIGHT	1655.2068000000872	LEFT	1854.774200000065	RIGHT	3476.048499999933	9.999999999999998	0.6	Probable_Lie	RIGHT	LEFT	5	1685.6178000000457	18	2020-01-31 11:34:58.368365
15	Self	S200131	0.5	2	1	2	1	0.4	1216.6666691	1150.0000023	1933.3333372	2350.0000047	Minor	Wrong_doings	46	You have used heroin	C1_29	0.1	Easy	I1_8	23	Africa is the continent with the least rainfall	0.611111111111111	Yes	RIGHT	1360.8346999999412	LEFT	755.4589999999735	LEFT	1705.0976000000446	RIGHT	4180.504000000155	9.999999999999998	0.4	Probable_Truth	RIGHT	LEFT	2	2169.078099999979	19	2020-01-31 11:35:27.759857
18	Self	S200131	0.6666666666666666	1	2	1	2	0.1	1433.3333362	1350.0000027	1933.3333372	1783.3333369	Minor	Wrong_doings	14	You have let a homeless man into your house	C1_14	0.0	Easy	I1_31	60	Astatine is the rarest element in the Earth's crust	0.722222222222222	Yes	RIGHT	924.783400000024	RIGHT	687.6124000000345	LEFT	2746.0201999999754	RIGHT	3014.449300000024	10.099999999999998	0.1	Probable_Truth	RIGHT	RIGHT	6	2307.1692000000894	20	2020-01-31 11:35:56.513193
23	Self	S200131	0.6666666666666666	1	2	2	1	0.4	1000.000002	1150.0000023	2350.0000047	2066.6666708	Minor	Wrong_doings	36	You have switched off appliances when not in use	C2_56	0.9	Hard	I2_60	47	Marijuana is legal in Singapore	1.0	Yes	RIGHT	532.3644000000058	RIGHT	528.4647000000859	RIGHT	1592.4783999998908	LEFT	2709.971400000086	10.499999999999998	0.4	Probable_Truth	RIGHT	RIGHT	4	1739.8634999999558	21	2020-01-31 11:36:22.752201
30	Self	S200131	0.6666666666666666	2	1	2	1	0.5	1350.0000027	1350.0000027	2350.0000047	1933.3333372	Major	Good_deeds	8	You have started a hotline for victims of bully	C2_6	0.0	Easy	I1_11	38	Chickens lay eggs	0.0	Yes	LEFT	935.3694999999788	RIGHT	2090.558200000032	LEFT	2567.073100000016	RIGHT	1942.1573999998143	9.999999999999998	0.5	Probable_Lie	RIGHT	RIGHT	2	2692.166399999905	22	2020-01-31 11:36:52.536229
101	Computer	S200131	0.5	1	2	2	1	0.1	1500.000003	1350.0000027	2350.0000047	1933.3333372	Minor	Wrong_doings	13	You have risked your life to save another person's life	C1_11	0.0	Easy	I2_12	54	Malay is one of the races in Singapore	0.888888888888889	No	LEFT	1775.8370999999895	LEFT	1737.3608000000331	RIGHT	2999.0254999997887	RIGHT	1555.700399999978	9.999999999999998	0.1	Probable_Truth	LEFT	RIGHT	6	763.7781810593133	23	2020-01-31 11:37:21.072921
111	Computer	S200131	0.5	2	1	2	1	0.1	1500.000003	1500.000003	2216.6666711000003	1933.3333372	Minor	Wrong_doings	46	You have used heroin	C1_29	0.1	Easy	I1_8	23	Africa is the continent with the least rainfall	0.611111111111111	Yes	RIGHT	2393.060399999968	LEFT	1952.0012000000409	LEFT	1327.297999999928	RIGHT	1957.9736000000596	9.999999999999998	0.1	Probable_Lie	LEFT	LEFT	6	791.2551181045196	24	2020-01-31 11:37:49.200786
63	Self	S200131	0.5	2	1	2	1	0.6	1000.000002	1283.3333359	1500.000003	2350.0000047	Minor	Good_deeds	60	You have rescued others from a catastrophe	C2_42	1.0	Hard	I2_16	42	The Seine river is 50 feet above sea level	0.0	No	LEFT	1320.2318999999534	RIGHT	2629.780100000062	LEFT	4200.115699999969	LEFT	4820.393199999899	9.4	0.6	Probable_Lie	RIGHT	RIGHT	2	2013.4663000001185	25	2020-01-31 11:38:22.888262
142	Computer	S200131	0.8333333333333334	2	1	2	1	0.7	1150.0000023	1150.0000023	2066.6666708	2216.6666711000003	Minor	Wrong_doings	10	You have provided shelter for stray animals	C1_46	0.0	Hard	I1_46	46	Milwaukee Art Museum is located in California	0.0555555555555556	No	LEFT	880.5359000000408	LEFT	1426.912899999934	RIGHT	1727.8567000000749	RIGHT	4399.558200000001	9.4	0.7	Probable_Lie	LEFT	RIGHT	1	888.0345599934401	26	2020-01-31 11:38:51.362421
58	Self	S200131	0.5	2	1	1	2	0.5	1350.0000027	1066.6666688	1650.0000033	1500.000003	Major	Good_deeds	7	You have given way to the handicapped	C2_23	0.0	Hard	I2_30	24	There is typically 0.6 grams of mercury in glass thermometer	0.0	Yes	LEFT	1064.128700000083	RIGHT	1960.090899999841	RIGHT	3215.80559999984	RIGHT	2960.358499999984	8.899999999999999	0.5	Probable_Lie	LEFT	LEFT	4	744.6771999998418	27	2020-01-31 11:39:19.441732
107	Computer	S200131	0.5	2	1	1	2	0.7	1433.3333362	1350.0000027	2500.000005	1650.0000033	Major	Good_deeds	29	You have signed up as a bone marrow donor	C1_34	0.0	Hard	I2_55	32	Cernan was the second last man to walk on the Moon	1.0	Yes	LEFT	1776.9830000002005	LEFT	1377.200700000003	RIGHT	1984.1412999999195	LEFT	3639.138200000161	8.899999999999999	0.7	Probable_Lie	RIGHT	RIGHT	1	780.7924589303639	28	2020-01-31 11:39:48.504878
67	Self	S200131	0.6666666666666666	1	2	1	2	0.7	1283.3333359	1216.6666691	2216.6666711000003	1783.3333369	Minor	Good_deeds	33	You have drunk alcohol when you were underage	C1_45	0.55	Easy	I2_54	60	The hyoid bone is the only jointless bone	0.0	No	RIGHT	871.1292000000412	RIGHT	415.75859999989007	LEFT	2522.316499999988	RIGHT	3199.484499999926	9.599999999999998	0.7	Probable_Truth	RIGHT	RIGHT	5	1852.75270000011	29	2020-01-31 11:40:16.440406
69	Self	S200131	0.6666666666666666	1	2	2	1	0.3	1500.000003	1000.000002	2066.6666708	1650.0000033	Major	Good_deeds	45	You have been arrested	C2_19	1.0	Easy	I2_34	40	Last day of the year is 30th December	0.0	Yes	LEFT	1430.658499999936	RIGHT	688.1742999999005	LEFT	1365.0532999999996	LEFT	4295.675500000016	9.299999999999995	0.3	Probable_Lie	RIGHT	LEFT	4	2108.1080999999813	30	2020-01-31 11:40:45.121040
131	Computer	S200131	0.8333333333333334	1	2	1	2	0.6	1000.000002	1000.000002	2066.6666708	2500.000005	Minor	Good_deeds	59	You have been physically hurt to protect others	C1_30	0.45	Easy	I1_19	58	Statute of Liberty is in New York	0.0	Yes	LEFT	1554.260099999965	LEFT	736.0355000000709	RIGHT	4637.888799999928	RIGHT	1448.095100000046	9.299999999999995	0.6	Probable_Lie	LEFT	RIGHT	1	989.609438276088	31	2020-01-31 11:41:13.617524
94	Self	S200131	0.8333333333333334	2	1	2	1	0.4	1433.3333362	1066.6666688	1500.000003	2066.6666708	Major	Wrong_doings	58	You have held the elevator doors for others	C2_35	1.0	Hard	I2_48	56	Christmas Day is in March	0.0	Yes	RIGHT	1231.809999999996	LEFT	669.3415999998251	RIGHT	3670.5319000000154	LEFT	2736.424199999874	9.299999999999995	0.4	Probable_Truth	LEFT	LEFT	1	1267.9694000000836	32	2020-01-31 11:41:41.832951
61	Self	S200131	0.5	2	1	2	1	0.3	1150.0000023	1433.3333362	2350.0000047	1933.3333372	Minor	Good_deeds	15	You have offered a listening ear to a friend	C1_7	0.05	Easy	I2_42	30	There are 9 rings in the Olympic flag	0.944444444444444	Yes	LEFT	681.0622000000421	RIGHT	1689.4245999999384	RIGHT	2772.702299999992	LEFT	3044.211000000132	8.999999999999996	0.3	Probable_Lie	RIGHT	RIGHT	2	1276.3182999999572	33	2020-01-31 11:42:10.738354
91	Self	S200131	0.8333333333333334	2	1	1	2	0.3	1283.3333359	1350.0000027	1783.3333369	1783.3333369	Minor	Good_deeds	35	You have made counterfeit money	C2_8	0.85	Hard	I2_35	45	Lehman Brothers went bankrupt on 20th September	0.777777777777778	No	RIGHT	568.5229999999137	RIGHT	754.2269000000488	LEFT	1970.0663000000984	RIGHT	4103.5042000000885	9.299999999999995	0.3	Probable_Truth	RIGHT	RIGHT	6	1399.7588000001997	34	2020-01-31 11:42:38.303939
53	Self	S200131	0.5	1	2	2	1	0.2	1500.000003	1000.000002	1650.0000033	2066.6666708	Major	Good_deeds	60	You have lost everything just to help others	C2_26	0.0	Easy	I1_15	35	Nanyang Technological University is in Australia	0.0	Yes	RIGHT	894.3793999999343	RIGHT	600.5411999999524	LEFT	3071.573800000124	LEFT	1725.4997000000003	9.499999999999996	0.2	Probable_Truth	LEFT	LEFT	1	1197.749200000089	35	2020-01-31 11:43:04.585432
133	Computer	S200131	0.8333333333333334	1	2	2	1	0.5	1433.3333362	1350.0000027	1500.000003	2350.0000047	Major	Wrong_doings	25	You have helped your parents when asked to	C1_4	0.55	Easy	I1_58	1	Mageirocophobia is a fear of deathly disease	0.888888888888889	Yes	RIGHT	967.355199999929	LEFT	703.8079999999809	RIGHT	2416.229600000179	RIGHT	3187.658600000077	9.499999999999996	0.5	Probable_Lie	LEFT	LEFT	3	720.6295813173564	36	2020-01-31 11:43:31.777559
17	Self	S200131	0.6666666666666666	1	2	1	2	0.3	1350.0000027	1283.3333359	2066.6666708	1650.0000033	Major	Good_deeds	33	You have assisted in a crime	C1_33	0.9	Hard	I1_28	28	Most plants emit oxygen in the day	0.888888888888889	Yes	LEFT	1262.7679999998236	RIGHT	1248.6836000000494	LEFT	2839.111699999876	RIGHT	1944.0254999999524	9.199999999999996	0.3	Probable_Lie	LEFT	LEFT	6	1501.2596999999914	37	2020-01-31 11:43:59.497713
106	Computer	S200131	0.5	2	1	1	2	0.3	1216.6666691	1433.3333362	2350.0000047	1783.3333369	Major	Wrong_doings	50	You have done something against your values	C2_9	1.0	Easy	I1_32	36	There are 30 hours in a day	0.0	No	LEFT	1407.90149999998	LEFT	1639.172900000176	RIGHT	4072.112099999913	LEFT	2464.311100000032	9.199999999999996	0.3	Probable_Lie	RIGHT	RIGHT	2	518.8614340242495	38	2020-01-31 11:44:28.953473
14	Self	S200131	0.5	2	1	2	1	0.5	1000.000002	1283.3333359	2350.0000047	2216.6666711000003	Minor	Wrong_doings	11	You have cheated on a test	C2_11	0.85	Hard	I1_40	8	Animals are living things	1.0	Yes	LEFT	839.4800000000942	RIGHT	1787.1864999999616	RIGHT	2919.520200000079	RIGHT	1201.180999999906	8.699999999999996	0.5	Probable_Lie	RIGHT	RIGHT	3	1887.342799999942	39	2020-01-31 11:44:57.010709
108	Computer	S200131	0.5	2	1	2	1	0.5	1000.000002	1150.0000023	2066.6666708	2500.000005	Major	Good_deeds	1	You have organized a violent protest	C2_46	0.0	Hard	I1_23	38	Kangaroos live in Africa	0.166666666666667	No	LEFT	1280.37049999989	LEFT	1373.3161999998629	LEFT	1704.5735000001514	LEFT	2221.216499999855	8.699999999999996	0.5	Probable_Lie	RIGHT	LEFT	6	746.1738260446697	40	2020-01-31 11:45:23.625283
123	Computer	S200131	0.6666666666666666	2	1	1	2	0.7	1350.0000027	1350.0000027	2216.6666711000003	2500.000005	Minor	Wrong_doings	13	You have cursed at others	C1_8	0.05	Hard	I1_57	57	R. Amundsen discovered the South Pole	0.777777777777778	Yes	LEFT	1401.227199999994	LEFT	1996.6832000000068	LEFT	1365.450600000031	LEFT	2535.2514000001065	8.699999999999996	0.7	Probable_Truth	LEFT	RIGHT	4	713.5172643635503	41	2020-01-31 11:45:51.625506
40	Self	S200131	0.8333333333333334	2	1	1	2	0.4	1216.6666691	1216.6666691	1500.000003	1783.3333369	Minor	Wrong_doings	3	You have bribed a police officer	C2_27	0.0	Hard	I1_27	9	There are 20 bones in the human skull	0.0	No	RIGHT	390.30909999996766	RIGHT	878.6491999999271	LEFT	2451.4510999999857	LEFT	3006.822800000009	9.099999999999996	0.4	Probable_Truth	RIGHT	RIGHT	6	1253.1036999998832	42	2020-01-31 11:46:17.897267
130	Computer	S200131	0.8333333333333334	1	2	1	2	0.4	1500.000003	1500.000003	2350.0000047	1500.000003	Minor	Good_deeds	35	You have gossiped about your best friend	C1_59	1.0	Easy	I1_13	19	February has 30 days	0.944444444444444	No	LEFT	1625.78550000012	LEFT	800.4994999998871	LEFT	1782.283300000017	RIGHT	2599.8522999998386	9.099999999999996	0.4	Probable_Lie	LEFT	RIGHT	1	789.1732061216705	43	2020-01-31 11:46:44.905633
83	Self	S200131	0.8333333333333334	1	2	1	2	0.3	1066.6666688	1000.000002	2216.6666711000003	1650.0000033	Major	Good_deeds	47	You have deceived a loved one	C2_37	0.95	Easy	I2_11	44	The Amazon forest covers an area of 1 billion acres	0.0	Yes	LEFT	1376.9056000001	RIGHT	784.8566999998638	LEFT	2352.227100000164	RIGHT	3150.209800000084	8.799999999999995	0.3	Probable_Lie	LEFT	LEFT	6	990.2094999999916	44	2020-01-31 11:47:12.065606
126	Computer	S200131	0.6666666666666666	2	1	2	1	0.8	1000.000002	1216.6666691	1500.000003	2350.0000047	Major	Good_deeds	8	You have started a hotline for victims of bully	C2_6	0.0	Easy	I1_11	38	Chickens lay eggs	0.0	Yes	RIGHT	951.7894000000524	LEFT	1511.370199999874	LEFT	1423.0473000000077	RIGHT	1452.519200000097	8.799999999999995	0.8	Probable_Truth	RIGHT	LEFT	2	798.3074326702615	45	2020-01-31 11:47:36.842496
112	Computer	S200131	0.6666666666666666	1	2	1	2	0.5	1500.000003	1433.3333362	2350.0000047	2066.6666708	Major	Wrong_doings	56	You have given up your seat in the MRT	C1_19	0.0	Easy	I2_39	26	It takes 112 years to build the Pisa Tower	0.0	No	LEFT	812.4642000000222	LEFT	704.1410000001633	RIGHT	2220.4827999999	LEFT	2910.9768999999237	8.799999999999995	0.5	Probable_Lie	RIGHT	RIGHT	1	549.8599844449117	46	2020-01-31 11:48:03.961881
62	Self	S200131	0.5	2	1	2	1	0.2	1216.6666691	1150.0000023	2216.6666711000003	2216.6666711000003	Major	Good_deeds	43	You have cheated on a national exam	C1_60	0.05	Hard	I1_5	5	Earth's atmosphere extends up to 10,000km into space	0.833333333333333	No	RIGHT	536.5560000000187	RIGHT	568.5319000001527	LEFT	2239.435500000127	Time_Max_Exceeded	5000.134900000148	8.999999999999995	0.2	Probable_Truth	RIGHT	RIGHT	5	1631.8277000000307	47	2020-01-31 11:48:33.314222
43	Self	S200131	0.8333333333333334	2	1	1	2	0.1	1283.3333359	1150.0000023	2500.000005	1933.3333372	Minor	Wrong_doings	53	You have started an NGO using your savings	C1_42	0.8	Hard	I2_58	27	The sun rises at night	0.0	No	LEFT	776.4584999999897	RIGHT	1533.622400000013	LEFT	2598.790000000008	LEFT	2383.8241999999354	8.899999999999995	0.1	Probable_Lie	RIGHT	RIGHT	1	815.2317999999923	48	2020-01-31 11:50:13.915571
31	Self	S200131	0.6666666666666666	2	1	2	1	0.4	1500.000003	1066.6666688	2216.6666711000003	1783.3333369	Major	Good_deeds	51	You have failed to keep promises	C1_49	0.85	Hard	I1_38	43	Vegetarians can eat vegetable products	0.944444444444444	No	LEFT	840.7023999998273	RIGHT	1792.9675000000316	RIGHT	1655.590100000154	RIGHT	4098.330400000123	8.499999999999995	0.4	Probable_Lie	RIGHT	RIGHT	2	1138.0337000000509	49	2020-01-31 11:50:42.577842
141	Computer	S200131	0.8333333333333334	2	1	2	1	0.6	1283.3333359	1066.6666688	1500.000003	1933.3333372	Major	Good_deeds	42	You have engaged in arson	C1_12	0.95	Easy	I1_52	22	The Moon orbits around the Earth	0.764705882352941	Yes	LEFT	1768.1195000000116	LEFT	2909.8745999999664	LEFT	1624.6224000001348	RIGHT	3139.1759000000548	8.499999999999995	0.6	Probable_Truth	LEFT	LEFT	1	969.1875101841636	50	2020-01-31 11:51:11.346358
104	Computer	S200131	0.5	2	1	1	2	0.2	1283.3333359	1216.6666691	1500.000003	1500.000003	Minor	Good_deeds	9	You have kept your promises	C1_50	0.9	Hard	I2_25	40	Slavery was abolished in Cuba in 1886	0.0	No	RIGHT	695.5912000003082	LEFT	1952.1724999999608	LEFT	3198.3620000000883	RIGHT	2911.3240000001497	8.499999999999995	0.2	Probable_Truth	LEFT	LEFT	3	679.1669348280234	51	2020-01-31 11:51:38.857497
132	Computer	S200131	0.8333333333333334	1	2	2	1	0.7	1216.6666691	1433.3333362	1933.3333372	2216.6666711000003	Minor	Good_deeds	2	You have blackmailed others for money	C2_43	0.0	Hard	I2_28	21	"Statue of Liberty is 151 feet tall"	0.0	No	RIGHT	2503.559000000223	LEFT	696.9864999996389	LEFT	2232.429299999694	LEFT	4311.210800000026	8.499999999999995	0.7	Probable_Truth	RIGHT	LEFT	1	980.8290884763765	52	2020-01-31 11:52:08.954025
38	Self	S200131	0.8333333333333334	1	2	2	1	0.5	1283.3333359	1500.000003	1783.3333369	2216.6666711000003	Major	Wrong_doings	34	You have given directions to a lost tourist	C2_25	0.0	Hard	I2_46	13	Cheese is an Asian staple	0.944444444444444	Yes	RIGHT	856.8916999997782	RIGHT	399.4077000002108	RIGHT	2584.793200000149	LEFT	3259.091500000068	8.999999999999995	0.5	Probable_Truth	LEFT	LEFT	1	1386.1612999999124	53	2020-01-31 11:52:36.793620
137	Computer	S200131	0.8333333333333334	2	1	1	2	0.3	1066.6666688	1000.000002	1933.3333372	2066.6666708	Major	Good_deeds	46	You have told someone's secret to others	C2_53	1.0	Easy	I1_9	26	There are 10 continents in the World	0.611111111111111	No	LEFT	1577.7461000002404	LEFT	1513.2908999999015	RIGHT	3381.6173000000163	LEFT	1470.5607000000782	8.999999999999995	0.3	Probable_Lie	RIGHT	LEFT	4	526.2951369826234	54	2020-01-31 11:53:03.906382
93	Self	S200131	0.8333333333333334	2	1	2	1	0.5	1350.0000027	1500.000003	2500.000005	2216.6666711000003	Minor	Good_deeds	54	You have volunteered for a disaster-related humanitarian mission	C1_58	0.2	Hard	I2_51	35	The Earth turns the closest to the sun in May	0.0555555555555556	No	RIGHT	375.77029999965816	RIGHT	691.1998000000494	LEFT	2392.257599999993	LEFT	4584.828600000037	9.499999999999996	0.5	Probable_Lie	LEFT	LEFT	5	1212.6915999997436	55	2020-01-31 11:53:33.306260
117	Computer	S200131	0.6666666666666666	1	2	2	1	0.4	1433.3333362	1500.000003	2066.6666708	2216.6666711000003	Minor	Wrong_doings	1	You have faked an illness	C1_53	1.0	Hard	I2_23	41	North Korea is more developed than South Korea	0.0	Yes	LEFT	934.811399999944	LEFT	759.9448999999368	RIGHT	2303.6221000002115	LEFT	2416.206900000361	9.499999999999996	0.4	Probable_Lie	LEFT	LEFT	5	724.9292532386805	56	2020-01-31 11:54:00.226651
80	Self	S200131	0.8333333333333334	1	2	1	2	0.2	1350.0000027	1150.0000023	2500.000005	2500.000005	Minor	Good_deeds	57	You have held the door open for a stranger	C2_47	0.5	Hard	I1_10	2	Mexico's National Day is September 16	0.0	Yes	RIGHT	1013.3987999997772	RIGHT	399.7881000000234	RIGHT	2197.4578999997902	LEFT	3087.304799999856	9.699999999999994	0.2	Probable_Truth	LEFT	LEFT	1	1315.8472999998594	57	2020-01-31 11:54:28.314512
22	Self	S200131	0.6666666666666666	1	2	2	1	0.2	1283.3333359	1000.000002	1783.3333369	1500.000003	Minor	Good_deeds	53	You have kidnapped someone	C2_1	0.0	Easy	I2_41	23	Arabi is the oldest surviving breed of horse	0.0555555555555556	No	LEFT	980.25860000007	RIGHT	1168.4379000002991	LEFT	1191.9201000000612	RIGHT	4142.639199999849	9.499999999999996	0.2	Probable_Truth	LEFT	LEFT	1	1333.134299999983	58	2020-01-31 11:54:55.266626
77	Self	S200131	0.6666666666666666	2	1	2	1	0.1	1500.000003	1350.0000027	2216.6666711000003	2216.6666711000003	Major	Wrong_doings	39	You have pretended to be busy to avoid a social situation	C1_5	0.95	Easy	I2_4	43	Red is a color	0.0	Yes	RIGHT	640.8089999999902	RIGHT	1016.1948999998458	RIGHT	3679.5007000000624	RIGHT	1473.6699999998564	9.599999999999994	0.1	Probable_Truth	RIGHT	RIGHT	3	837.738299999728	59	2020-01-31 11:55:22.770132
47	Self	S200131	0.8333333333333334	2	1	2	1	0.8	1433.3333362	1500.000003	2066.6666708	2350.0000047	Minor	Good_deeds	27	You have helped others to pick up their belongings	C1_3	1.0	Easy	I2_26	52	The hardest bone in human body is the jawbone	0.666666666666667	Yes	RIGHT	679.7553000001244	RIGHT	950.7144999997764	RIGHT	1510.434400000122	RIGHT	4793.638399999963	10.399999999999997	0.8	Probable_Truth	RIGHT	RIGHT	5	722.718900000018	60	2020-01-31 11:55:51.354289
72	Self	S200131	0.6666666666666666	2	1	1	2	0.8	1216.6666691	1433.3333362	1783.3333369	2066.6666708	Minor	Good_deeds	58	You have taken responsibility for your actions	C1_27	0.95	Hard	I2_13	4	Mozambique is the world's poorest country	0.833333333333333	No	RIGHT	479.8114000000169	RIGHT	473.7696000001961	RIGHT	1624.0179999999782	RIGHT	2503.577700000278	11.199999999999996	0.8	Probable_Truth	LEFT	LEFT	2	654.9118000002636	61	2020-01-31 11:56:16.162751
36	Self	S200131	0.8333333333333334	1	2	2	1	0.7	1066.6666688	1000.000002	2500.000005	2500.000005	Minor	Good_deeds	2	You have blackmailed others for money	C2_43	0.0	Hard	I2_28	21	"Statue of Liberty is 151 feet tall"	0.0	No	LEFT	1372.6918000002115	RIGHT	1432.1893000001182	LEFT	1135.30209999999	LEFT	2494.829699999628	10.499999999999996	0.7	Probable_Lie	RIGHT	RIGHT	1	1002.7280999997856	62	2020-01-31 11:56:43.242517
64	Self	S200131	0.6666666666666666	1	2	1	2	0.5	1000.000002	1066.6666688	1933.3333372	2066.6666708	Major	Wrong_doings	40	You have claimed doing things that you never did	C2_39	0.05	Hard	I2_5	17	The Eiffel Tower is in Paris	0.944444444444444	Yes	RIGHT	589.1433000001598	RIGHT	777.9171000001952	RIGHT	3575.4111999999623	RIGHT	1592.19690000009	10.999999999999996	0.5	Probable_Truth	LEFT	LEFT	2	964.6363000001656	63	2020-01-31 11:57:09.378294
49	Self	S200131	0.5	1	2	1	2	0.5	1433.3333362	1500.000003	1933.3333372	2500.000005	Minor	Good_deeds	29	You have confessed to your mistake	C2_29	0.0	Easy	I1_53	15	South East Asia is currently free from polio	0.777777777777778	No	LEFT	988.1686999997328	RIGHT	968.5097999999924	RIGHT	4477.674500000376	LEFT	2681.066600000122	10.499999999999996	0.5	Probable_Lie	LEFT	RIGHT	1	1316.1629999999604	64	2020-01-31 11:57:39.747209
114	Computer	S200131	0.6666666666666666	1	2	1	2	0.7	1150.0000023	1350.0000027	1500.000003	2500.000005	Minor	Wrong_doings	14	You have let a homeless man into your house	C1_14	0.0	Easy	I1_31	60	Astatine is the rarest element in the Earth's crust	0.722222222222222	Yes	RIGHT	633.8608999999451	LEFT	672.6001000001816	LEFT	3009.883300000183	RIGHT	1879.5704999997724	10.499999999999996	0.7	Probable_Truth	LEFT	LEFT	1	536.0053264238414	65	2020-01-31 11:58:05.546230
135	Computer	S200131	0.8333333333333334	1	2	2	1	0.3	1283.3333359	1150.0000023	2216.6666711000003	1933.3333372	Major	Wrong_doings	30	You have been convicted in court	C2_2	0.2	Hard	I2_1	46	Algeria is Africa's second largest country	0.0	No	LEFT	998.192200000176	LEFT	664.16049999998	LEFT	1880.140799999936	RIGHT	3332.351100000324	10.499999999999996	0.3	Probable_Lie	RIGHT	LEFT	5	511.692709882296	66	2020-01-31 11:58:32.090601
24	Self	S200131	0.6666666666666666	2	1	1	2	0.1	1216.6666691	1283.3333359	2066.6666708	2066.6666708	Minor	Good_deeds	59	You have extorted money from anyone	C1_13	1.0	Hard	I2_17	11	Singapore is in Africa	0.0	No	RIGHT	312.73769999961587	RIGHT	1414.2714999998134	LEFT	1557.406499999615	LEFT	1423.3217999999397	10.599999999999996	0.1	Probable_Truth	LEFT	LEFT	2	1190.0886000003084	67	2020-01-31 11:58:57.194347
33	Self	S200131	0.8333333333333334	1	2	1	2	0.4	1433.3333362	1150.0000023	2066.6666708	1650.0000033	Major	Wrong_doings	4	You have eaten something in the MRT train	C2_34	1.0	Easy	I1_37	37	Singapore ranked 8th in World's smallest countries	0.833333333333333	Yes	RIGHT	542.645999999877	RIGHT	337.30869999999413	LEFT	2052.992500000073	RIGHT	3823.9509	10.999999999999996	0.4	Probable_Truth	LEFT	LEFT	1	1085.9639999998765	68	2020-01-31 11:59:23.914698
37	Self	S200131	0.8333333333333334	1	2	2	1	0.6	1500.000003	1350.0000027	1650.0000033	2066.6666708	Major	Wrong_doings	25	You have helped your parents when asked to	C1_4	0.55	Easy	I1_58	1	Mageirocophobia is a fear of deathly disease	0.888888888888889	Yes	RIGHT	605.822999999873	RIGHT	328.2070999998723	RIGHT	1407.913600000029	RIGHT	2309.927499999958	11.599999999999996	0.6	Probable_Truth	LEFT	LEFT	1	699.8229999999239	69	2020-01-31 11:59:48.410475
129	Computer	S200131	0.8333333333333334	1	2	1	2	0.1	1066.6666688	1283.3333359	1650.0000033	2066.6666708	Major	Wrong_doings	4	You have eaten something in the MRT train	C2_34	1.0	Easy	I1_37	37	Singapore ranked 8th in World's smallest countries	0.833333333333333	Yes	LEFT	807.1439000000282	LEFT	776.4448000002631	LEFT	1311.438299999736	RIGHT	1311.6784999997435	11.599999999999996	0.1	Probable_Lie	LEFT	RIGHT	1	730.0633110613012	70	2020-01-31 12:00:11.986637
81	Self	S200131	0.8333333333333334	1	2	1	2	0.8	1500.000003	1350.0000027	2066.6666708	2216.6666711000003	Major	Good_deeds	3	You have engaged in drink-driving	C1_47	0.05	Easy	I2_52	14	A dog has four legs	0.777777777777778	No	RIGHT	638.5886000002756	RIGHT	400.1518000000033	LEFT	1602.5355000001582	RIGHT	1496.2595999995756	12.399999999999997	0.8	Probable_Lie	LEFT	LEFT	5	763.1287999997767	71	2020-01-31 12:00:36.594686
54	Self	S200131	0.5	1	2	2	1	0.3	1150.0000023	1216.6666691	2066.6666708	1933.3333372	Major	Wrong_doings	37	You have illegally stayed in a country	C1_37	0.8	Easy	I1_35	24	Penguin can fly with their wings	0.944444444444444	Yes	LEFT	1326.5063999997435	RIGHT	1526.5246999997544	LEFT	1591.4189999998598	LEFT	1637.1871999999712	12.099999999999996	0.3	Probable_Lie	LEFT	LEFT	4	1849.0194000000884	72	2020-01-31 12:01:03.466627
1	Self	S200131	0.5	1	2	1	2	0.5	1350.0000027	1433.3333362	1783.3333369	2066.6666708	Minor	Good_deeds	44	You have said sorry when you were rude	C2_38	0.95	Hard	I2_18	12	Septicemia is a lung infection condition	0.944444444444444	Yes	LEFT	920.2273999999306	RIGHT	967.7165000002788	RIGHT	2150.328199999876	RIGHT	1752.1915000002082	11.599999999999996	0.5	Probable_Lie	LEFT	LEFT	5	1472.7929000000586	73	2020-01-31 12:01:29.939341
57	Self	S200131	0.5	2	1	1	2	0.1	1066.6666688	1500.000003	1933.3333372	1783.3333369	Minor	Wrong_doings	42	You have downloaded pirated movies	C2_18	0.45	Hard	I1_1	42	A triangle has three sides	0.0555555555555556	No	LEFT	599.4253999997454	RIGHT	1859.7526999997167	RIGHT	1385.716799999955	RIGHT	1080.4097000000183	11.499999999999996	0.1	Probable_Lie	LEFT	LEFT	6	1455.8110999996643	74	2020-01-31 12:01:55.178583
12	Self	S200131	0.5	2	1	2	1	0.7	1150.0000023	1216.6666691	1500.000003	1650.0000033	Major	Good_deeds	1	You have organized a violent protest	C2_46	0.0	Hard	I1_23	38	Kangaroos live in Africa	0.166666666666667	No	LEFT	552.9149000003599	RIGHT	2269.6610000002693	LEFT	1382.842100000289	LEFT	1868.6609000001224	10.799999999999995	0.7	Probable_Lie	LEFT	RIGHT	1	1433.9641000001393	75	2020-01-31 12:02:20.778740
52	Self	S200131	0.5	1	2	2	1	0.1	1216.6666691	1350.0000027	2216.6666711000003	1650.0000033	Minor	Wrong_doings	48	You have borrowed things and never returned	C1_28	0.0	Hard	I1_24	53	Beer is an alcoholic drink	0.0	No	RIGHT	864.3013000000792	RIGHT	336.3706000000093	RIGHT	2334.9213999999847	RIGHT	2376.252099999874	10.899999999999997	0.1	Probable_Truth	LEFT	LEFT	1	2568.098900000223	76	2020-01-31 12:02:48.267364
42	Self	S200131	0.8333333333333334	2	1	1	2	0.7	1066.6666688	1433.3333362	2216.6666711000003	2500.000005	Major	Wrong_doings	50	You have helped a friend in need	C2_50	0.0	Hard	I2_22	58	Cleopatra was born in Greece	0.722222222222222	Yes	RIGHT	328.4515000000283	RIGHT	584.6580000002177	RIGHT	1166.240499999731	LEFT	2383.111000000099	11.599999999999996	0.7	Probable_Truth	LEFT	LEFT	1	1103.5397999999077	77	2020-01-31 12:03:13.626953
128	Computer	S200131	0.8333333333333334	1	2	1	2	0.8	1150.0000023	1216.6666691	1783.3333369	1650.0000033	Minor	Good_deeds	43	You have attended all lectures as a student	C1_35	0.85	Hard	I2_21	28	Fishes can swim in water	0.111111111111111	No	LEFT	1841.8814999999995	LEFT	551.7918000000464	LEFT	3100.9444999999687	RIGHT	1615.8784999997806	11.599999999999996	0.8	Probable_Lie	RIGHT	LEFT	6	516.6456457272363	78	2020-01-31 12:03:39.627483
115	Computer	S200131	0.6666666666666666	1	2	1	2	0.8	1066.6666688	1283.3333359	1650.0000033	2350.0000047	Major	Good_deeds	19	You have lied to your parents	C2_14	0.0	Hard	I1_26	39	It takes 500 days to travel from Earth to Mars	0.0555555555555556	No	RIGHT	594.2288000001099	LEFT	665.4474000001755	RIGHT	1516.0949000000985	RIGHT	2446.8252000001485	11.599999999999996	0.8	Probable_Truth	RIGHT	RIGHT	5	661.5334302076469	79	2020-01-31 12:04:04.434015
124	Computer	S200131	0.6666666666666666	2	1	2	1	0.5	1283.3333359	1433.3333362	1650.0000033	1650.0000033	Minor	Wrong_doings	52	You have sorted your trash into recycling bin	C2_28	0.85	Easy	I2_45	45	Nomophobia is the fear of being without a phone or computer	0.0	No	LEFT	719.6739000000889	LEFT	1046.6215999999804	RIGHT	2056.2795999999253	LEFT	2863.6822999997094	11.599999999999996	0.5	Probable_Truth	LEFT	RIGHT	4	876.3954676854642	80	2020-01-31 12:04:30.587366
78	Self	S200131	0.6666666666666666	2	1	2	1	0.4	1283.3333359	1150.0000023	2350.0000047	2500.000005	Major	Wrong_doings	16	You have cursed at your loved ones	C2_31	0.0	Hard	I1_48	6	Singapore has four seasons	0.722222222222222	Yes	RIGHT	361.24789999985296	RIGHT	626.2767000002896	LEFT	1823.853099999724	LEFT	1343.4267999996337	11.999999999999996	0.4	Probable_Truth	LEFT	LEFT	2	982.3559000001296	81	2020-01-31 12:04:55.579465
76	Self	S200131	0.6666666666666666	2	1	2	1	0.3	1066.6666688	1066.6666688	2066.6666708	1500.000003	Minor	Wrong_doings	31	You have participated in a scamming business	C1_38	0.15	Easy	I2_3	13	A caterpillar has more muscle than a human	0.888888888888889	Yes	LEFT	601.5331999997215	RIGHT	1607.4831999999333	LEFT	3359.423300000344	LEFT	3014.513099999931	11.699999999999996	0.3	Probable_Lie	RIGHT	RIGHT	1	903.947899999821	82	2020-01-31 12:05:23.338554
45	Self	S200131	0.8333333333333334	2	1	2	1	0.6	1350.0000027	1066.6666688	1783.3333369	1650.0000033	Major	Good_deeds	42	You have engaged in arson	C1_12	0.95	Easy	I1_52	22	The Moon orbits around the Earth	0.764705882352941	Yes	LEFT	577.2460999996838	RIGHT	1851.535199999944	LEFT	1096.8548000000735	RIGHT	1472.6574999999684	11.099999999999996	0.6	Probable_Lie	LEFT	LEFT	6	688.1734999997207	83	2020-01-31 12:05:47.443517
110	Computer	S200131	0.5	2	1	2	1	0.6	1350.0000027	1066.6666688	1933.3333372	2216.6666711000003	Minor	Wrong_doings	11	You have cheated on a test	C2_11	0.85	Hard	I1_40	8	Animals are living things	1.0	Yes	LEFT	760.8749999999418	LEFT	730.4761000000326	RIGHT	1143.0786000000808	RIGHT	1998.742199999924	11.099999999999996	0.6	Probable_Lie	LEFT	LEFT	6	681.8511278153551	84	2020-01-31 12:06:11.898936
10	Self	S200131	0.5	2	1	1	2	0.3	1283.3333359	1500.000003	2500.000005	1933.3333372	Major	Wrong_doings	50	You have done something against your values	C2_9	1.0	Easy	I1_32	36	There are 30 hours in a day	0.0	No	RIGHT	288.8169000002563	RIGHT	437.2935999999754	RIGHT	3130.9213999998065	LEFT	2206.532800000332	11.399999999999997	0.3	Probable_Truth	LEFT	RIGHT	5	960.0196000001232	85	2020-01-31 12:06:38.714630
138	Computer	S200131	0.8333333333333334	2	1	1	2	0.5	1433.3333362	1216.6666691	1783.3333369	1500.000003	Major	Wrong_doings	50	You have helped a friend in need	C2_50	0.0	Hard	I2_22	58	Cleopatra was born in Greece	0.722222222222222	Yes	LEFT	1232.10969999991	LEFT	1877.552999999807	RIGHT	1173.005699999976	LEFT	1343.4685000001991	11.399999999999997	0.5	Probable_Lie	RIGHT	LEFT	2	595.004181579705	86	2020-01-31 12:07:03.443386
9	Self	S200131	0.5	2	1	1	2	0.8	1500.000003	1433.3333362	2216.6666711000003	1500.000003	Minor	Good_deeds	34	You have stopped using products tested on animals	C1_1	0.65	Easy	I2_38	55	The human's inner ear is larger than a pencil eraser	0.0	No	LEFT	424.737499999992	RIGHT	1831.6705000002005	RIGHT	2894.884699999693	RIGHT	2639.6115000002283	10.599999999999996	0.8	Probable_Lie	RIGHT	RIGHT	3	1468.8481000002866	87	2020-01-31 12:07:31.923553
51	Self	S200131	0.5	1	2	1	2	0.8	1283.3333359	1150.0000023	1500.000003	1783.3333369	Major	Good_deeds	26	You have queued to enter the MRT train	C1_48	1.0	Hard	I2_53	53	Saturn's rings are between 30 and 300 feet thick	0.0555555555555556	Yes	RIGHT	365.75170000014623	RIGHT	287.3370999996041	LEFT	3314.766800000143	LEFT	2615.4223000003185	11.399999999999997	0.8	Probable_Truth	RIGHT	LEFT	3	971.6990000001716	88	2020-01-31 12:07:57.770214
96	Computer	S200131	0.5	1	2	1	2	0.8	1216.6666691	1066.6666688	1650.0000033	1650.0000033	Major	Good_deeds	36	You have violated a traffic law	C2_7	0.75	Easy	I2_49	3	The Franco-Prussian War occurred in the 19th century	0.0	No	LEFT	1578.2500999998774	LEFT	528.1383999999889	LEFT	2064.379700000245	LEFT	2976.0213999998086	11.399999999999997	0.8	Probable_Lie	RIGHT	LEFT	4	942.3133678940904	89	2020-01-31 12:08:24.019540
27	Self	S200131	0.6666666666666666	2	1	1	2	0.7	1000.000002	1433.3333362	1933.3333372	2500.000005	Minor	Wrong_doings	13	You have cursed at others	C1_8	0.05	Hard	I1_57	57	R. Amundsen discovered the South Pole	0.777777777777778	Yes	RIGHT	336.91300000009505	RIGHT	428.4272999998393	LEFT	925.0700000002324	LEFT	2150.968699999794	12.099999999999996	0.7	Probable_Lie	LEFT	LEFT	3	972.578599999906	90	2020-01-31 12:08:48.275211
105	Computer	S200131	0.5	2	1	1	2	0.4	1066.6666688	1283.3333359	1783.3333369	2350.0000047	Minor	Good_deeds	34	You have stopped using products tested on animals	C1_1	0.65	Easy	I2_38	55	The human's inner ear is larger than a pencil eraser	0.0	No	LEFT	568.2478000003357	LEFT	787.4585999998089	RIGHT	2291.4464999998927	RIGHT	2127.3317000000134	12.099999999999996	0.4	Probable_Lie	LEFT	RIGHT	2	991.6499450099312	91	2020-01-31 12:09:14.083755
19	Self	S200131	0.6666666666666666	1	2	1	2	0.5	1066.6666688	1066.6666688	2216.6666711000003	1933.3333372	Major	Good_deeds	19	You have lied to your parents	C2_14	0.0	Hard	I1_26	39	It takes 500 days to travel from Earth to Mars	0.0555555555555556	No	RIGHT	335.3486000000885	RIGHT	352.40750000002663	RIGHT	1571.1891999999352	RIGHT	1559.5965000002252	12.599999999999996	0.5	Probable_Truth	LEFT	LEFT	2	643.7852000003659	92	2020-01-31 12:09:37.403550
89	Self	S200131	0.8333333333333334	2	1	1	2	0.8	1000.000002	1000.000002	2066.6666708	1500.000003	Major	Good_deeds	31	You have intentionally let others cut in line	C1_31	0.95	Easy	I1_45	48	Acoustic Kitty refers to cat with implants	0.888888888888889	No	RIGHT	719.9178000000757	RIGHT	1982.663499999944	LEFT	2893.890100000135	LEFT	2391.864799999894	13.399999999999997	0.8	Probable_Truth	LEFT	LEFT	1	686.5944000001036	93	2020-01-31 12:10:04.218928
118	Computer	S200131	0.6666666666666666	1	2	2	1	0.3	1283.3333359	1150.0000023	2216.6666711000003	1933.3333372	Minor	Good_deeds	53	You have kidnapped someone	C2_1	0.0	Easy	I2_41	23	Arabi is the oldest surviving breed of horse	0.0555555555555556	No	LEFT	1567.9756999998062	LEFT	1072.5663000002896	LEFT	1304.287899999963	RIGHT	2029.165799999646	13.399999999999997	0.3	Probable_Lie	LEFT	RIGHT	2	727.413143063166	94	2020-01-31 12:10:30.075162
140	Computer	S200131	0.8333333333333334	2	1	2	1	0.8	1350.0000027	1350.0000027	2216.6666711000003	2350.0000047	Major	Good_deeds	12	You have made someone cry	C2_10	0.2	Easy	I2_44	44	December is the last month of the year	0.111111111111111	Yes	LEFT	720.176199999969	LEFT	1290.1334999996834	LEFT	1638.3506000001944	RIGHT	1817.8197999995973	13.399999999999997	0.8	Probable_Lie	RIGHT	RIGHT	1	578.516853611058	95	2020-01-31 12:10:55.962904
73	Self	S200131	0.6666666666666666	2	1	1	2	0.7	1150.0000023	1500.000003	1500.000003	2350.0000047	Minor	Wrong_doings	27	You have volunteered every week for many years	C1_39	1.0	Easy	I2_27	27	There are 6000 spoken languages in the World	0.0	No	RIGHT	335.16980000013064	RIGHT	461.7964999997639	LEFT	2273.7387000001945	LEFT	2782.980199999656	14.099999999999996	0.7	Probable_Truth	LEFT	LEFT	2	949.6695999996518	96	2020-01-31 12:13:06.507680
3	Self	S200131	0.5	1	2	1	2	0.2	1500.000003	1216.6666691	2350.0000047	1500.000003	Major	Wrong_doings	17	You have sold illegal drugs	C1_44	0.05	Easy	I1_54	18	It sometimes snows in Singapore	0.0	Yes	RIGHT	482.3798000002171	RIGHT	327.52579999987574	LEFT	1342.6757000002	LEFT	1928.3237000004192	14.299999999999995	0.2	Probable_Truth	RIGHT	LEFT	2	1544.8598999996648	97	2020-01-31 12:13:31.276058
100	Computer	S200131	0.5	1	2	2	1	0.7	1000.000002	1283.3333359	1933.3333372	2500.000005	Minor	Good_deeds	38	You have stolen something	C1_17	0.65	Hard	I2_59	49	Hot chocolate was created by the Mayan culture	0.0	No	RIGHT	924.3659999997362	LEFT	569.7990999997273	LEFT	1839.4481999998789	RIGHT	2982.1594000000005	14.299999999999995	0.7	Probable_Truth	LEFT	LEFT	3	583.9780366660804	98	2020-01-31 12:13:57.459483
121	Computer	S200131	0.6666666666666666	2	1	1	2	0.1	1433.3333362	1066.6666688	2500.000005	2066.6666708	Major	Wrong_doings	49	You have returned your trays in food courts	C2_52	0.0	Easy	I1_4	17	A square has 3 corners	1.0	Yes	RIGHT	760.0540999997065	LEFT	871.1332999996557	RIGHT	3046.041999999943	LEFT	1735.2043000000776	14.299999999999995	0.1	Probable_Truth	RIGHT	RIGHT	4	550.5741336724359	99	2020-01-31 12:14:24.059469
32	Self	S200131	0.8333333333333334	1	2	1	2	0.3	1000.000002	1283.3333359	1933.3333372	1500.000003	Minor	Good_deeds	43	You have attended all lectures as a student	C1_35	0.85	Hard	I2_21	28	Fishes can swim in water	0.111111111111111	No	RIGHT	546.7615000002297	RIGHT	303.2828000000336	LEFT	2062.6085999997485	RIGHT	1967.5428999998985	14.599999999999996	0.3	Probable_Truth	RIGHT	RIGHT	2	886.7340000001604	100	2020-01-31 12:14:48.114794
92	Self	S200131	0.8333333333333334	2	1	2	1	0.7	1066.6666688	1150.0000023	2350.0000047	1933.3333372	Major	Wrong_doings	9	You have engaged in underage smoking	C2_20	0.7	Hard	I2_56	36	China is a part of Asia	0.0	Yes	RIGHT	328.7327000002733	RIGHT	346.5396999999939	LEFT	1415.9939999999551	RIGHT	1725.1879000000372	15.299999999999995	0.7	Probable_Truth	RIGHT	RIGHT	6	656.002400000034	101	2020-01-31 12:15:11.659328
29	Self	S200131	0.6666666666666666	2	1	2	1	0.2	1066.6666688	1216.6666691	1500.000003	1650.0000033	Major	Good_deeds	6	You have bought cocaine	C1_51	0.0	Easy	I2_31	4	Teddy Roosevelt was the youngest US President	0.0	No	LEFT	456.1263000000508	RIGHT	1237.3318999998446	LEFT	1559.258900000259	LEFT	2559.652699999788	15.099999999999996	0.2	Probable_Lie	RIGHT	RIGHT	1	699.8394000002008	102	2020-01-31 12:15:36.179738
0	Self	S200131	0.5	1	2	1	2	0.3	1150.0000023	1283.3333359	2216.6666711000003	1783.3333369	Major	Good_deeds	36	You have violated a traffic law	C2_7	0.75	Easy	I2_49	3	The Franco-Prussian War occurred in the 19th century	0.0	No	LEFT	1288.206100000025	RIGHT	1369.4711999996798	LEFT	1602.1688000000722	LEFT	2190.621100000044	14.799999999999995	0.3	Probable_Lie	RIGHT	RIGHT	2	1431.3944000000447	103	2020-01-31 12:16:03.069487
82	Self	S200131	0.8333333333333334	1	2	1	2	0.7	1150.0000023	1433.3333362	2350.0000047	1783.3333369	Minor	Wrong_doings	30	You have a non-judgmental attitude towards everyone	C1_24	0.65	Hard	I1_44	10	French is Singapore's official language	0.0	Yes	RIGHT	874.576100000013	RIGHT	279.7335000000203	RIGHT	3305.3549000001112	LEFT	2207.945700000437	15.499999999999996	0.7	Probable_Lie	LEFT	LEFT	2	636.9007000002966	104	2020-01-31 12:16:29.668518
109	Computer	S200131	0.5	2	1	2	1	0.8	1150.0000023	1000.000002	1650.0000033	2066.6666708	Major	Wrong_doings	57	You have helped with household chores	C2_57	0.1	Easy	I2_36	25	Today is a weekday	0.666666666666667	Yes	RIGHT	689.5534999998745	LEFT	1118.077600000106	RIGHT	1592.083999999886	RIGHT	1437.9579999999803	15.499999999999996	0.8	Probable_Truth	LEFT	LEFT	1	773.5722925865438	105	2020-01-31 12:16:53.708747
4	Self	S200131	0.5	1	2	2	1	0.6	1283.3333359	1000.000002	1933.3333372	2350.0000047	Minor	Good_deeds	38	You have stolen something	C1_17	0.65	Hard	I2_59	49	Hot chocolate was created by the Mayan culture	0.0	No	RIGHT	707.9570999999305	RIGHT	544.614399999773	RIGHT	2415.3228000000126	RIGHT	3667.065099999945	16.099999999999994	0.6	Probable_Truth	LEFT	RIGHT	6	689.3840000002456	106	2020-01-31 12:17:20.875853
86	Self	S200131	0.8333333333333334	1	2	2	1	0.5	1283.3333359	1283.3333359	1650.0000033	2350.0000047	Major	Wrong_doings	23	You have sign up to sponsor a needy child	C1_57	0.95	Easy	I2_2	33	There are 6 million animal species on Earth	1.0	No	RIGHT	534.8796000002949	RIGHT	351.1536999999407	RIGHT	2936.018699999749	LEFT	3605.361299999913	16.599999999999994	0.5	Probable_Truth	RIGHT	RIGHT	5	824.6318999999858	107	2020-01-31 12:17:48.268511
84	Self	S200131	0.8333333333333334	1	2	2	1	0.4	1216.6666691	1066.6666688	1783.3333369	1500.000003	Minor	Wrong_doings	37	You have fabricated facts about yourself	C2_30	0.25	Hard	I2_33	52	Obama is the USA president now	0.0	Yes	RIGHT	354.36070000014297	RIGHT	311.3797999999406	LEFT	1976.3985999998115	LEFT	2542.077900000095	16.999999999999993	0.4	Probable_Truth	LEFT	LEFT	1	770.0202999999419	108	2020-01-31 12:18:12.364608
8	Self	S200131	0.5	2	1	1	2	0.2	1433.3333362	1350.0000027	2066.6666708	2066.6666708	Minor	Good_deeds	9	You have kept your promises	C1_50	0.9	Hard	I2_25	40	Slavery was abolished in Cuba in 1886	0.0	No	LEFT	665.5594999997447	RIGHT	1637.673100000029	RIGHT	2104.951600000277	LEFT	2952.487800000199	16.799999999999994	0.2	Probable_Lie	RIGHT	RIGHT	3	1190.7077000000754	109	2020-01-31 12:18:40.404158
44	Self	S200131	0.8333333333333334	2	1	2	1	0.2	1500.000003	1283.3333359	2350.0000047	2216.6666711000003	Major	Good_deeds	12	You have made someone cry	C2_10	0.2	Easy	I2_44	44	December is the last month of the year	0.111111111111111	Yes	RIGHT	648.9458999999442	RIGHT	291.1685000003672	LEFT	1280.1964000000223	RIGHT	1401.0613999998895	16.999999999999993	0.2	Probable_Truth	LEFT	LEFT	1	1119.3449000002147	110	2020-01-31 12:19:05.067677
79	Self	S200131	0.6666666666666666	2	1	2	1	0.2	1433.3333362	1283.3333359	1650.0000033	1933.3333372	Major	Good_deeds	5	You have been sued	C2_16	0.15	Hard	I1_12	12	Polish is 20th most spoken language in the World	0.888888888888889	No	RIGHT	286.8562999997266	RIGHT	1134.4138999997997	LEFT	1497.079499999927	LEFT	3123.823099999754	17.199999999999992	0.2	Probable_Truth	LEFT	LEFT	1	931.3952000002246	111	2020-01-31 12:19:30.917548
127	Computer	S200131	0.6666666666666666	2	1	2	1	0.3	1066.6666688	1500.000003	1783.3333369	1500.000003	Major	Good_deeds	51	You have failed to keep promises	C1_49	0.85	Hard	I1_38	43	Vegetarians can eat vegetable products	0.944444444444444	No	LEFT	688.9089999999669	LEFT	839.8121000000174	LEFT	2239.084599999842	RIGHT	2110.4223000002094	17.199999999999992	0.3	Probable_Lie	RIGHT	LEFT	6	674.0316695083177	112	2020-01-31 12:19:55.884400
139	Computer	S200131	0.8333333333333334	2	1	1	2	0.4	1000.000002	1500.000003	2500.000005	2500.000005	Minor	Wrong_doings	53	You have started an NGO using your savings	C1_42	0.8	Hard	I2_58	27	The sun rises at night	0.0	No	RIGHT	672.1775000000889	LEFT	766.5108000001055	LEFT	3156.255699999747	LEFT	1433.0589000001055	17.199999999999992	0.4	Probable_Lie	LEFT	RIGHT	1	549.5073099780254	113	2020-01-31 12:20:22.532349
102	Computer	S200131	0.5	1	2	2	1	0.6	1433.3333362	1150.0000023	2216.6666711000003	2066.6666708	Minor	Wrong_doings	7	You have complimented others for good work	C2_48	0.0	Hard	I1_50	59	The current century is 21st	0.0555555555555556	Yes	RIGHT	1112.9676000000472	LEFT	727.7662000001328	RIGHT	3670.9999999998217	RIGHT	1536.080800000036	17.199999999999992	0.6	Probable_Truth	RIGHT	LEFT	2	946.6889261972456	114	2020-01-31 12:20:49.971982
16	Self	S200131	0.6666666666666666	1	2	1	2	0.8	1216.6666691	1216.6666691	1650.0000033	2216.6666711000003	Major	Wrong_doings	56	You have given up your seat in the MRT	C1_19	0.0	Easy	I2_39	26	It takes 112 years to build the Pisa Tower	0.0	No	LEFT	1167.28379999995	RIGHT	689.2213000000993	RIGHT	1239.5237999999154	LEFT	2015.898600000128	16.39999999999999	0.8	Probable_Lie	RIGHT	RIGHT	2	771.3696999999229	115	2020-01-31 12:21:14.731832
39	Self	S200131	0.8333333333333334	1	2	2	1	0.8	1150.0000023	1433.3333362	1500.000003	1933.3333372	Major	Wrong_doings	30	You have been convicted in court	C2_2	0.2	Hard	I2_1	46	Algeria is Africa's second largest country	0.0	No	RIGHT	494.1895999995722	RIGHT	312.9791000001205	LEFT	1047.2415999997793	RIGHT	1973.8020999998296	17.199999999999992	0.8	Probable_Lie	LEFT	LEFT	4	519.9416999998903	116	2020-01-31 12:21:37.668262
113	Computer	S200131	0.6666666666666666	1	2	1	2	0.6	1000.000002	1066.6666688	1783.3333369	1650.0000033	Major	Good_deeds	33	You have assisted in a crime	C1_33	0.9	Hard	I1_28	28	Most plants emit oxygen in the day	0.888888888888889	Yes	LEFT	1134.3254000003071	LEFT	679.0464000000611	LEFT	1191.4099000000533	RIGHT	2192.1876999999768	17.199999999999992	0.6	Probable_Lie	LEFT	RIGHT	2	834.9930583680714	117	2020-01-31 12:22:01.771224
46	Self	S200131	0.8333333333333334	2	1	2	1	0.3	1000.000002	1000.000002	1933.3333372	2066.6666708	Minor	Wrong_doings	10	You have provided shelter for stray animals	C1_46	0.0	Hard	I1_46	46	Milwaukee Art Museum is located in California	0.0555555555555556	No	RIGHT	312.1621999998752	RIGHT	308.7102000004052	RIGHT	1151.2299999999414	RIGHT	3302.4274999997942	17.499999999999993	0.3	Probable_Truth	LEFT	LEFT	1	919.3018000000848	118	2020-01-31 12:22:26.340605
85	Self	S200131	0.8333333333333334	1	2	2	1	0.6	1000.000002	1216.6666691	1500.000003	1933.3333372	Major	Wrong_doings	24	You have followed instructions	C1_23	0.05	Easy	I1_39	39	Afghan Hound is the first cloned cat	0.888888888888889	No	RIGHT	613.2388000000901	RIGHT	456.1158999999861	RIGHT	3960.827299999892	LEFT	2620.9913000002416	18.099999999999994	0.6	Probable_Truth	LEFT	LEFT	1	791.174399999818	119	2020-01-31 12:22:53.004513
2	Self	S200131	0.5	1	2	1	2	0.1	1433.3333362	1350.0000027	2500.000005	2500.000005	Major	Wrong_doings	11	You have bribed someone to improve a grade	C2_13	0.95	Hard	I1_3	25	It is snowing outside now	0.666666666666667	Yes	LEFT	1084.3443999997362	RIGHT	2192.2153000000435	LEFT	2334.7805000003063	LEFT	1566.8117999998683	17.999999999999993	0.1	Probable_Lie	LEFT	LEFT	4	1037.849599999845	120	2020-01-31 12:23:21.580296
88	Self	S200131	0.8333333333333334	2	1	1	2	0.2	1500.000003	1216.6666691	2216.6666711000003	2350.0000047	Minor	Wrong_doings	8	You have watched a pirated movie	C1_22	0.0	Easy	I1_36	51	Fibers in oranges can be used to make fabric	0.0	Yes	RIGHT	520.2195000001666	RIGHT	504.0281000001414	RIGHT	2435.986899999989	LEFT	2919.5287999996253	18.199999999999992	0.2	Probable_Truth	LEFT	LEFT	1	689.8538000000372	121	2020-01-31 12:23:48.508482
5	Self	S200131	0.5	1	2	2	1	0.8	1066.6666688	1500.000003	2066.6666708	1650.0000033	Minor	Wrong_doings	13	You have risked your life to save another person's life	C1_11	0.0	Easy	I2_12	54	Malay is one of the races in Singapore	0.888888888888889	No	LEFT	1078.189299999849	RIGHT	585.5246999999508	RIGHT	1806.4008000001195	RIGHT	1409.081300000253	17.39999999999999	0.8	Probable_Lie	RIGHT	RIGHT	2	1238.5647999999492	122	2020-01-31 12:24:13.484345
97	Computer	S200131	0.5	1	2	1	2	0.2	1066.6666688	1216.6666691	1500.000003	1500.000003	Minor	Good_deeds	44	You have said sorry when you were rude	C2_38	0.95	Hard	I2_18	12	Septicemia is a lung infection condition	0.944444444444444	Yes	LEFT	1262.4800999997206	LEFT	719.9744999998074	RIGHT	1566.0014999998566	RIGHT	1623.5421999999744	17.39999999999999	0.2	Probable_Lie	LEFT	RIGHT	2	972.920913042088	123	2020-01-31 12:24:37.476720
25	Self	S200131	0.6666666666666666	2	1	1	2	0.3	1433.3333362	1000.000002	2500.000005	2350.0000047	Major	Wrong_doings	49	You have returned your trays in food courts	C2_52	0.0	Easy	I1_4	17	A square has 3 corners	1.0	Yes	RIGHT	368.8131999997495	RIGHT	325.3431999996792	RIGHT	2291.286300000138	LEFT	983.230299999832	17.699999999999992	0.3	Probable_Truth	RIGHT	RIGHT	4	833.036600000014	124	2020-01-31 12:25:02.132108
13	Self	S200131	0.5	2	1	2	1	0.1	1066.6666688	1066.6666688	1650.0000033	1783.3333369	Major	Wrong_doings	57	You have helped with household chores	C2_57	0.1	Easy	I2_36	25	Today is a weekday	0.666666666666667	Yes	LEFT	486.14480000014737	RIGHT	1789.438699999664	RIGHT	1136.355699999967	RIGHT	1232.812400000057	17.59999999999999	0.1	Probable_Lie	LEFT	LEFT	5	927.9937000001156	125	2020-01-31 12:25:25.851994
134	Computer	S200131	0.8333333333333334	1	2	2	1	0.2	1350.0000027	1066.6666688	2500.000005	1783.3333369	Major	Wrong_doings	34	You have given directions to a lost tourist	C2_25	0.0	Hard	I2_46	13	Cheese is an Asian staple	0.944444444444444	Yes	LEFT	1700.9114999991652	LEFT	1264.3527999998696	RIGHT	1319.6907999999894	LEFT	1297.8311000006215	17.59999999999999	0.2	Probable_Lie	RIGHT	RIGHT	1	707.4831964135337	126	2020-01-31 12:25:51.406667
143	Computer	S200131	0.8333333333333334	2	1	2	1	0.1	1500.000003	1283.3333359	2350.0000047	1650.0000033	Minor	Good_deeds	27	You have helped others to pick up their belongings	C1_3	1.0	Easy	I2_26	52	The hardest bone in human body is the jawbone	0.666666666666667	Yes	LEFT	1016.4875000000392	LEFT	1284.7490000003745	RIGHT	2743.8264000002164	RIGHT	2400.477499999397	17.59999999999999	0.1	Probable_Lie	LEFT	RIGHT	1	840.1797860824679	127	2020-01-31 12:26:19.036141
59	Self	S200131	0.5	2	1	1	2	0.8	1500.000003	1350.0000027	1783.3333369	2066.6666708	Minor	Wrong_doings	18	You have been restricting your electricity consumption	C1_15	0.65	Easy	I2_24	1	Beef comes from cows	0.833333333333333	Yes	RIGHT	424.30400000012014	RIGHT	403.1314000003477	RIGHT	3063.8163999992685	RIGHT	1303.5230000004958	18.39999999999999	0.8	Probable_Truth	LEFT	LEFT	1	1453.3824000000095	128	2020-01-31 12:26:44.956507
120	Computer	S200131	0.6666666666666666	2	1	1	2	0.4	1500.000003	1150.0000023	2350.0000047	1783.3333369	Minor	Good_deeds	59	You have extorted money from anyone	C1_13	1.0	Hard	I2_17	11	Singapore is in Africa	0.0	No	RIGHT	664.9196999997002	LEFT	831.3677000005555	LEFT	1425.845499999923	LEFT	2104.526299999634	18.39999999999999	0.4	Probable_Truth	LEFT	LEFT	1	572.7975052939798	129	2020-01-31 12:27:09.901203
90	Self	S200131	0.8333333333333334	2	1	1	2	0.6	1216.6666691	1433.3333362	1650.0000033	2500.000005	Major	Wrong_doings	20	You have donated a pay cheque to charity	C1_9	0.05	Easy	I1_29	29	Brazil is in South America	0.611111111111111	Yes	LEFT	456.4334999995481	RIGHT	1185.6348999999682	LEFT	2461.1002000001463	RIGHT	2560.011399999894	17.79999999999999	0.6	Probable_Lie	RIGHT	RIGHT	1	998.694500000056	130	2020-01-31 12:27:36.933213
103	Computer	S200131	0.5	1	2	2	1	0.3	1150.0000023	1500.000003	1783.3333369	2350.0000047	Major	Good_deeds	48	You have started a movement to support a cause	C1_36	0.0	Easy	I1_25	50	Dutch is the 6th Europe's most widely spoken language	0.888888888888889	No	RIGHT	618.8430000001972	LEFT	1528.7941000005958	LEFT	2239.853299999595	LEFT	4353.250600000138	17.79999999999999	0.3	Probable_Truth	RIGHT	LEFT	1	634.5794507744125	131	2020-01-31 12:28:05.660132
70	Self	S200131	0.6666666666666666	1	2	2	1	0.8	1350.0000027	1150.0000023	1500.000003	1933.3333372	Minor	Wrong_doings	6	You have said thank you when you have received help	C1_6	1.0	Hard	I1_60	54	The Earth is round	0.666666666666667	No	LEFT	2277.2782000001826	RIGHT	1399.8007000000143	RIGHT	3384.2242999999144	RIGHT	884.9587000004249	16.99999999999999	0.8	Probable_Lie	RIGHT	RIGHT	1	1292.2949000003427	132	2020-01-31 12:28:33.405648
74	Self	S200131	0.6666666666666666	2	1	1	2	0.6	1350.0000027	1000.000002	2500.000005	1650.0000033	Minor	Good_deeds	24	You have sheltered others from disasters	C2_24	0.0	Hard	I1_6	3	Carnivore refers to meat-eater	0.0	No	LEFT	616.2085000005391	RIGHT	2324.5265999994444	LEFT	2736.172300000362	RIGHT	1984.3801000006351	16.399999999999988	0.6	Probable_Lie	LEFT	LEFT	6	943.4169000005568	133	2020-01-31 12:29:01.085389
125	Computer	S200131	0.6666666666666666	2	1	2	1	0.2	1150.0000023	1283.3333359	1933.3333372	1933.3333372	Major	Good_deeds	6	You have bought cocaine	C1_51	0.0	Easy	I2_31	4	Teddy Roosevelt was the youngest US President	0.0	No	LEFT	1391.3458999995785	LEFT	2912.253200000123	LEFT	1615.5731999997442	LEFT	1604.1341000000102	16.399999999999988	0.2	Probable_Lie	RIGHT	LEFT	4	518.472387712885	134	2020-01-31 12:29:27.997583
95	Self	S200131	0.8333333333333334	2	1	2	1	0.1	1150.0000023	1283.3333359	1933.3333372	1650.0000033	Minor	Good_deeds	22	You have coveted things that belong to others	C2_54	0.05	Easy	I1_2	2	It is night time now	0.722222222222222	No	LEFT	424.6481000000131	RIGHT	1292.664400000831	LEFT	1888.3080000005064	LEFT	1744.5215999996435	16.299999999999986	0.1	Probable_Lie	RIGHT	RIGHT	1	983.4194000004572	135	2020-01-31 12:29:52.917246
75	Self	S200131	0.6666666666666666	2	1	1	2	0.5	1000.000002	1216.6666691	1933.3333372	1783.3333369	Major	Good_deeds	38	You have thrown your trash into the bin	C2_58	0.7	Easy	I1_43	48	It is 20th Century now	0.0	Yes	LEFT	647.9205000005095	RIGHT	1235.779200000252	RIGHT	2379.1215000001102	LEFT	1471.9263999995746	15.799999999999986	0.5	Probable_Lie	RIGHT	RIGHT	1	2247.2617000003083	136	2020-01-31 12:30:19.403925
11	Self	S200131	0.5	2	1	1	2	0.6	1350.0000027	1000.000002	1783.3333369	2500.000005	Major	Good_deeds	29	You have signed up as a bone marrow donor	C1_34	0.0	Hard	I2_55	32	Cernan was the second last man to walk on the Moon	1.0	Yes	LEFT	359.51509999995324	RIGHT	1290.7827999997608	RIGHT	1845.014999999876	LEFT	2487.0515000002342	15.199999999999989	0.6	Probable_Lie	RIGHT	RIGHT	1	1112.7308999994057	137	2020-01-31 12:30:45.708400
7	Self	S200131	0.5	1	2	2	1	0.4	1000.000002	1150.0000023	1500.000003	2216.6666711000003	Major	Good_deeds	48	You have started a movement to support a cause	C1_36	0.0	Easy	I1_25	50	Dutch is the 6th Europe's most widely spoken language	0.888888888888889	No	LEFT	1293.4064000000944	LEFT	2031.7088000001604	LEFT	1991.6948000000048	LEFT	3295.4908000001524	15.199999999999989	0.4	Probable_Lie	LEFT	LEFT	4	874.8273000001063	138	2020-01-31 12:31:13.637244
68	Self	S200131	0.6666666666666666	1	2	2	1	0.1	1433.3333362	1500.000003	1650.0000033	2216.6666711000003	Major	Wrong_doings	17	You have shown your appreciation to your teachers	C1_40	0.0	Hard	I1_21	21	Bears have the biggest eyes among mammals	0.944444444444444	Yes	RIGHT	432.2717000004559	RIGHT	241.54939999971248	LEFT	1764.7731999995813	Time_Max_Exceeded	5000.357099999746	15.299999999999986	0.1	Probable_Truth	RIGHT	RIGHT	5	1106.2279999996465	139	2020-01-31 12:31:41.556032
122	Computer	S200131	0.6666666666666666	2	1	1	2	0.6	1216.6666691	1000.000002	2066.6666708	2216.6666711000003	Minor	Wrong_doings	28	You have stopped using plastics completely	C2_59	0.85	Hard	I2_43	31	Feijoa is a type of grape	0.833333333333333	Yes	LEFT	710.6962000007115	LEFT	1672.0462000002954	LEFT	2033.3227000000988	RIGHT	1727.9269000000568	15.299999999999986	0.6	Probable_Lie	LEFT	RIGHT	2	984.416029196999	140	2020-01-31 12:32:07.757291
55	Self	S200131	0.5	1	2	2	1	0.7	1350.0000027	1283.3333359	1783.3333369	2216.6666711000003	Major	Good_deeds	45	You have used a fake name online	C1_20	0.1	Hard	I2_50	6	Pyramid of Giza is 468 feet tall	0.888888888888889	Yes	LEFT	842.5217000003613	RIGHT	879.6652000000904	RIGHT	2072.4592999995366	LEFT	2769.4400999998834	14.599999999999987	0.7	Probable_Truth	RIGHT	LEFT	2	1711.673800000426	141	2020-01-31 12:32:35.237464
21	Self	S200131	0.6666666666666666	1	2	2	1	0.6	1500.000003	1433.3333362	2500.000005	2500.000005	Minor	Wrong_doings	1	You have faked an illness	C1_53	1.0	Hard	I2_23	41	North Korea is more developed than South Korea	0.0	Yes	RIGHT	533.4756000002017	RIGHT	463.9481000003798	RIGHT	1416.2857000001168	LEFT	2132.5592999992296	15.199999999999989	0.6	Probable_Truth	RIGHT	RIGHT	5	921.117900000354	142	2020-01-31 12:33:01.212840
136	Computer	S200131	0.8333333333333334	2	1	1	2	0.2	1216.6666691	1433.3333362	1650.0000033	1783.3333369	Minor	Wrong_doings	3	You have bribed a police officer	C2_27	0.0	Hard	I1_27	9	There are 20 bones in the human skull	0.0	No	LEFT	799.9730000001364	LEFT	939.9630999996588	LEFT	1123.298800000157	LEFT	1902.9439000005368	15.199999999999989	0.2	Probable_Truth	LEFT	RIGHT	2	861.791654067612	143	2020-01-31 12:33:25.501211
