index	Trial_Type	Participant_ID	Trial_Probability	Question_Position_Prediction_Correct	Question_Position_Prediction_Agent	Question_Position_Comparison_Self	Question_Position_Comparison_Irrelevant	Trial_Stake	Trial_Stake_Jitter	Trial_Type_Jitter	Trial_Result_Jitter	Balance_Update_Jitter	Question_Comparison_Condition	Question_Comparison_Type	Question_Comparison_Question	Question_Comparison_Label	Question_Comparison_Item	Question_Comparison_Proportion_Yes	Question_Factual_Condition	Question_Factual_Item	Question_Factual_Question	Question_Factual_Label	Question_Factual_Proportion_DontKnow	Question_Factual_Type	Answer_Prediction_Correct	Answer_Prediction_Correct_RT	Answer_Prediction_Agent	Answer_Prediction_Agent_RT	Answer_Self	Answer_Self_RT	Answer_Irrelevant	Answer_Irrelevant_RT	Trial_Balance	Trial_Balance_Effect	Trial_Condition	Trial_ProbableSide	Prediction_Choice	Prediction_Result	Prediction_RT	Trial_Order	Trial_Datetime
83	Self	S210217	0.8333333333333334	1	2	1	2	0.2	1066.6666688	1433.3333362	1933.3333372	2066.6666708	Major	Good_deeds	12	You have assisted in a crime	C1_34	0.95	Easy	I1_42	42	Septicemia is a lung infection condition	0.666666666666667	No	RIGHT	757.6113000000078	RIGHT	543.655900000033	LEFT	1604.497800000047	RIGHT	2287.387599999988	10.2	0.2	Probable_Truth	RIGHT	RIGHT	2	1011.0493000000248	0	2021-02-17 14:36:02.038610
54	Self	S210217	0.5	1	2	2	1	0.5	1500.000003	1500.000003	2350.0000047	1933.3333372	Minor	Wrong_doings	43	You have been convicted in court	C1_58	1.0	Hard	I2_35	35	There are 9 rings in the Olympic flag	0.0	No	LEFT	1107.3628999999985	RIGHT	648.3412000000044	LEFT	1320.1873000000433	LEFT	2053.060600000037	9.7	0.5	Probable_Lie	LEFT	LEFT	4	1376.3978000000066	1	2021-02-17 14:36:28.398012
91	Self	S210217	0.8333333333333334	2	1	1	2	0.5	1433.3333362	1350.0000027	2066.6666708	2500.000005	Major	Good_deeds	17	You have watched a pirated movie	C2_50	0.45	Hard	I2_11	43	Feijoa is a type of grape	0.0	No	RIGHT	544.5548000000144	RIGHT	693.561700000032	LEFT	1861.1852999999885	LEFT	3983.7450999999646	10.2	0.5	Probable_Truth	RIGHT	RIGHT	4	834.6817000000328	2	2021-02-17 14:36:56.238970
25	Self	S210217	0.6666666666666666	2	1	1	2	0.7	1433.3333362	1433.3333362	2216.6666711000003	2500.000005	Minor	Good_deeds	53	You have helped a friend in need	C2_34	1.0	Hard	I2_52	52	South East Asia is currently free from polio	0.777777777777778	No	LEFT	616.6688000000136	RIGHT	689.8798000000284	RIGHT	1613.5565999999812	RIGHT	3985.208199999988	9.5	0.7	Probable_Lie	LEFT	LEFT	6	783.5676999999919	3	2021-02-17 14:37:24.080319
23	Self	S210217	0.6666666666666666	1	2	2	1	0.5	1433.3333362	1000.000002	2500.000005	1933.3333372	Major	Wrong_doings	16	You have risked your life to save another person's life	C2_54	0.95	Hard	I1_37	6	Fishes can swim in water	0.666666666666667	No	RIGHT	667.5731000000269	RIGHT	432.8397999999538	RIGHT	2072.158800000011	RIGHT	1941.276500000015	10.0	0.5	Probable_Truth	LEFT	LEFT	2	1053.050799999994	4	2021-02-17 14:37:49.686396
90	Self	S210217	0.8333333333333334	2	1	1	2	0.1	1500.000003	1283.3333359	2216.6666711000003	1933.3333372	Minor	Good_deeds	42	You have engaged in arson	C1_17	0.0	Hard	I1_52	45	It sometimes snows in Singapore	0.666666666666667	Yes	RIGHT	439.9713000000247	RIGHT	542.6578999999947	LEFT	1756.1527999999953	LEFT	1383.3821000000055	10.1	0.1	Probable_Truth	LEFT	LEFT	1	809.761299999991	5	2021-02-17 14:38:14.126684
40	Self	S210217	0.8333333333333334	2	1	1	2	0.3	1283.3333359	1283.3333359	1783.3333369	2216.6666711000003	Minor	Wrong_doings	16	You have started an NGO using your savings	C2_14	0.85	Easy	I1_38	58	A square has 3 corners	0.833333333333333	Yes	LEFT	558.0350999999837	RIGHT	830.5483000000322	RIGHT	3524.431400000026	LEFT	1398.8718000000515	9.8	0.3	Probable_Lie	RIGHT	RIGHT	1	946.3951999999836	6	2021-02-17 14:38:40.534988
26	Self	S210217	0.6666666666666666	2	1	1	2	0.4	1066.6666688	1216.6666691	2350.0000047	2350.0000047	Minor	Wrong_doings	34	You have donated a pay cheque to charity	C2_3	0.0	Easy	I1_28	28	Algeria is Africa's second largest country	0.666666666666667	Yes	LEFT	631.7968999999266	RIGHT	811.6314999999759	RIGHT	2083.0982999999605	RIGHT	4109.132100000011	9.4	0.4	Probable_Lie	RIGHT	RIGHT	1	896.9183999998904	7	2021-02-17 14:39:08.629263
133	Computer	S210217	0.8333333333333334	1	2	2	1	0.2	1150.0000023	1216.6666691	2500.000005	2350.0000047	Minor	Good_deeds	38	You have sold illegal drugs	C1_39	0.0	Hard	I1_26	26	Teddy Roosevelt was the youngest US President	0.944444444444444	No	RIGHT	927.1540000000869	LEFT	568.3665000000246	LEFT	2097.395399999982	RIGHT	2395.637999999962	9.4	0.2	Probable_Truth	LEFT	LEFT	1	528.1252129581104	8	2021-02-17 14:39:34.934940
11	Self	S210217	0.5	2	1	1	2	0.4	1150.0000023	1433.3333362	1650.0000033	1650.0000033	Major	Good_deeds	17	You have claimed doing things that you never did	C2_48	0.05	Hard	I1_31	2	A caterpillar has more muscle than a human	0.944444444444444	No	RIGHT	439.0920000000733	RIGHT	905.4253000000472	Time_Max_Exceeded	5000.217500000076	RIGHT	2556.15899999998	9.8	0.4	Probable_Truth	LEFT	RIGHT	5	1983.3405999999056	9	2021-02-17 14:40:04.287131
0	Self	S210217	0.5	1	2	1	2	0.1	1283.3333359	1150.0000023	1933.3333372	2500.000005	Major	Wrong_doings	38	You have extorted money from anyone	C2_6	0.5	Hard	I2_24	12	Cheese is an Asian staple	0.0555555555555556	Yes	RIGHT	566.0811999999851	RIGHT	542.3829999999725	LEFT	1105.3426000000854	LEFT	2149.856600000021	9.9	0.1	Probable_Truth	LEFT	LEFT	1	1337.9806000000372	10	2021-02-17 14:40:29.454006
117	Computer	S210217	0.6666666666666666	1	2	2	1	0.7	1500.000003	1150.0000023	1650.0000033	2500.000005	Minor	Wrong_doings	7	You have started a movement to support a cause	C1_36	0.0	Easy	I1_23	37	Earth's atmosphere extends up to 10,000km into space	0.0	Yes	LEFT	787.4296999999615	LEFT	617.4306999999999	RIGHT	2568.2358999999906	LEFT	2853.923200000054	9.9	0.7	Probable_Lie	RIGHT	LEFT	6	512.9899289532754	11	2021-02-17 14:40:56.166112
107	Computer	S210217	0.5	2	1	1	2	0.4	1066.6666688	1000.000002	2350.0000047	2216.6666711000003	Major	Good_deeds	17	You have claimed doing things that you never did	C2_48	0.05	Hard	I1_31	2	A caterpillar has more muscle than a human	0.944444444444444	No	RIGHT	439.5458999999846	LEFT	776.600300000041	LEFT	3751.1049999999386	RIGHT	1432.080400000018	9.9	0.4	Probable_Truth	RIGHT	LEFT	3	697.0204263601042	12	2021-02-17 14:41:22.470928
16	Self	S210217	0.6666666666666666	1	2	1	2	0.8	1066.6666688	1066.6666688	1650.0000033	2350.0000047	Minor	Wrong_doings	27	You have cheated on a national exam	C1_16	0.05	Hard	I2_16	44	Africa is the continent with the least rainfall	0.166666666666667	No	RIGHT	592.3532000000478	RIGHT	640.8647000000656	LEFT	1661.3062000000127	RIGHT	2416.3769000000457	10.7	0.8	Probable_Lie	LEFT	LEFT	4	1089.2661999999973	13	2021-02-17 14:41:47.573632
22	Self	S210217	0.6666666666666666	1	2	2	1	0.6	1350.0000027	1433.3333362	1933.3333372	2500.000005	Minor	Good_deeds	36	You have given up your seat in the MRT	C2_27	0.0	Hard	I2_44	23	It takes 112 years to build the Pisa Tower	0.0	Yes	LEFT	939.2979000000424	RIGHT	512.8705999999283	RIGHT	1559.2034000000012	RIGHT	1606.851900000038	10.1	0.6	Probable_Lie	RIGHT	RIGHT	1	865.7553000000462	14	2021-02-17 14:42:12.846502
104	Computer	S210217	0.5	2	1	1	2	0.2	1350.0000027	1433.3333362	1783.3333369	1933.3333372	Major	Good_deeds	5	You have sorted your trash into recycling bin	C2_17	1.0	Hard	I1_9	27	The sun rises at night	0.722222222222222	Yes	LEFT	504.3525999999474	LEFT	860.3478999999652	RIGHT	3445.2355000000807	LEFT	1503.9278000000422	10.1	0.2	Probable_Lie	RIGHT	LEFT	5	588.6291988720919	15	2021-02-17 14:42:38.814552
127	Computer	S210217	0.6666666666666666	2	1	2	1	0.7	1150.0000023	1150.0000023	2500.000005	1500.000003	Minor	Good_deeds	3	You have deceived a loved one	C1_22	0.0	Easy	I2_22	50	China is a part of Asia	0.833333333333333	No	LEFT	599.8550000000478	LEFT	681.3188999999511	LEFT	1319.6355999999696	RIGHT	1204.7263000000612	10.1	0.7	Probable_Lie	RIGHT	LEFT	3	823.7708599935024	16	2021-02-17 14:43:02.310421
68	Self	S210217	0.6666666666666666	1	2	2	1	0.5	1216.6666691	1350.0000027	1933.3333372	2066.6666708	Minor	Good_deeds	45	You have returned your trays in food courts	C1_6	0.05	Easy	I1_29	41	The hyoid bone is the only jointless bone	0.777777777777778	No	LEFT	853.425100000095	RIGHT	479.8442999999679	RIGHT	1423.8553000000138	RIGHT	3112.105799999995	9.6	0.5	Probable_Lie	RIGHT	LEFT	3	1334.5761999999013	17	2021-02-17 14:43:28.654450
62	Self	S210217	0.5	2	1	2	1	0.3	1216.6666691	1150.0000023	2350.0000047	2500.000005	Major	Good_deeds	20	You have provided shelter for stray animals	C1_42	1.0	Hard	I1_48	21	Airbags in cars are filled with sodium azide	0.888888888888889	No	RIGHT	489.3208999999388	RIGHT	539.9954000000662	RIGHT	1767.040800000018	RIGHT	3267.936500000019	9.9	0.3	Probable_Truth	LEFT	LEFT	3	2186.931700000059	18	2021-02-17 14:43:56.694794
126	Computer	S210217	0.6666666666666666	2	1	2	1	0.8	1000.000002	1350.0000027	1783.3333369	2066.6666708	Major	Good_deeds	31	You have violated a traffic law	C1_31	0.75	Hard	I1_36	40	Animals are living things	0.0555555555555556	Yes	RIGHT	439.6154999999453	LEFT	980.8954000000084	LEFT	1143.3110000000397	RIGHT	1342.7454000000123	9.9	0.8	Probable_Truth	LEFT	RIGHT	6	929.6594702712346	19	2021-02-17 14:44:20.301391
113	Computer	S210217	0.6666666666666666	1	2	1	2	0.2	1433.3333362	1000.000002	2350.0000047	1783.3333369	Major	Good_deeds	9	You have engaged in money laundering	C1_7	0.9	Easy	I1_6	23	Kangaroos live in Africa	0.611111111111111	Yes	LEFT	1069.7767999999996	LEFT	713.0454000000555	LEFT	1436.1553999999614	LEFT	1837.5189999999293	9.9	0.2	Probable_Lie	LEFT	RIGHT	1	622.1908269765286	20	2021-02-17 14:44:45.110804
103	Computer	S210217	0.5	1	2	2	1	0.2	1216.6666691	1433.3333362	1500.000003	2216.6666711000003	Major	Wrong_doings	51	You have fabricated facts about yourself	C2_30	0.0	Hard	I2_34	24	Some owl species hunt fish	0.944444444444444	Yes	LEFT	905.7072000000516	LEFT	621.4406999999937	LEFT	1277.601699999991	LEFT	3735.467200000016	9.9	0.2	Probable_Lie	LEFT	LEFT	4	589.4839366316255	21	2021-02-17 14:45:11.189117
18	Self	S210217	0.6666666666666666	1	2	1	2	0.1	1283.3333359	1350.0000027	2350.0000047	1650.0000033	Major	Good_deeds	54	You have done something against your values	C2_36	0.05	Hard	I1_44	44	A dog has four legs	0.764705882352941	No	RIGHT	715.0103999999828	RIGHT	407.49689999995553	LEFT	2079.262099999937	RIGHT	992.7235999999766	10.0	0.1	Probable_Truth	RIGHT	RIGHT	5	892.0955999999478	22	2021-02-17 14:45:35.485029
79	Self	S210217	0.6666666666666666	2	1	2	1	0.5	1433.3333362	1066.6666688	2350.0000047	2350.0000047	Major	Good_deeds	48	You have taken part in burglary	C2_47	0.0	Easy	I1_4	39	Astatine is the rarest element in the Earth's crust	0.0	Yes	RIGHT	345.07639999992534	RIGHT	586.6086999999425	LEFT	1672.077800000011	LEFT	3602.405499999918	10.5	0.5	Probable_Truth	LEFT	LEFT	1	597.9448000000502	23	2021-02-17 14:46:02.061765
64	Self	S210217	0.6666666666666666	1	2	1	2	0.1	1150.0000023	1433.3333362	2500.000005	2500.000005	Major	Good_deeds	24	You have shown your appreciation to your teachers	C1_45	1.0	Easy	I2_5	5	Cleopatra was born in Greece	0.0	Yes	RIGHT	620.5290999999988	RIGHT	471.4040000000068	RIGHT	1699.7883999999883	RIGHT	3168.27509999996	10.6	0.1	Probable_Truth	RIGHT	RIGHT	3	984.7247000000152	24	2021-02-17 14:46:29.165162
118	Computer	S210217	0.6666666666666666	1	2	2	1	0.8	1150.0000023	1500.000003	2500.000005	2216.6666711000003	Minor	Good_deeds	36	You have given up your seat in the MRT	C2_27	0.0	Hard	I2_44	23	It takes 112 years to build the Pisa Tower	0.0	Yes	LEFT	943.420500000002	LEFT	561.1337999999932	RIGHT	1335.0904000000128	RIGHT	1135.858299999995	10.6	0.8	Probable_Lie	LEFT	RIGHT	2	594.9107616972672	25	2021-02-17 14:46:53.694098
87	Self	S210217	0.8333333333333334	1	2	2	1	0.6	1216.6666691	1350.0000027	2216.6666711000003	2216.6666711000003	Major	Wrong_doings	7	You have bribed a police officer	C2_56	1.0	Easy	I2_1	41	Saturn's rings are between 30 and 300 feet thick	0.0	No	LEFT	698.1192999999166	RIGHT	447.29030000007697	LEFT	1160.107299999936	RIGHT	2322.3319999999603	10.0	0.6	Probable_Lie	RIGHT	LEFT	4	846.5415000000576	26	2021-02-17 14:47:18.741960
106	Computer	S210217	0.5	2	1	1	2	0.6	1283.3333359	1150.0000023	2500.000005	2066.6666708	Minor	Wrong_doings	43	You have been sued	C2_1	0.0	Easy	I2_21	2	Mageirocophobia is a fear of deathly disease	0.0	No	LEFT	488.41349999997874	LEFT	838.6539000000539	LEFT	1064.59760000007	RIGHT	1815.571600000112	10.0	0.6	Probable_Lie	LEFT	LEFT	6	865.1095798928443	27	2021-02-17 14:47:43.381740
67	Self	S210217	0.6666666666666666	1	2	1	2	0.2	1283.3333359	1283.3333359	2350.0000047	1500.000003	Minor	Wrong_doings	8	You have used a fake name online	C2_39	0.05	Hard	I1_54	58	The Earth turns the closest to the sun in May	0.722222222222222	Yes	RIGHT	619.790200000125	RIGHT	312.7048999999716	LEFT	1141.8151000000307	RIGHT	4053.619199999957	10.2	0.2	Probable_Lie	LEFT	LEFT	3	793.0261000001337	28	2021-02-17 14:48:09.293342
28	Self	S210217	0.6666666666666666	2	1	2	1	0.3	1000.000002	1350.0000027	1500.000003	2066.6666708	Major	Wrong_doings	37	You have made counterfeit money	C2_53	0.65	Hard	I2_50	28	North Korea is more developed than South Korea	0.0	Yes	RIGHT	263.44829999993635	RIGHT	645.650200000091	LEFT	1358.3831999999347	LEFT	1711.6899000000103	10.5	0.3	Probable_Truth	LEFT	LEFT	2	834.5980000001418	29	2021-02-17 14:48:32.597877
114	Computer	S210217	0.6666666666666666	1	2	1	2	0.3	1000.000002	1350.0000027	1500.000003	2350.0000047	Major	Good_deeds	54	You have done something against your values	C2_36	0.05	Hard	I1_44	44	A dog has four legs	0.764705882352941	No	RIGHT	844.6605999999974	LEFT	480.3303000001051	LEFT	1958.6553999999976	RIGHT	758.8026999999329	10.5	0.3	Probable_Truth	LEFT	LEFT	2	533.9037384339208	30	2021-02-17 14:48:55.949141
63	Self	S210217	0.5	2	1	2	1	0.1	1283.3333359	1283.3333359	2066.6666708	2066.6666708	Minor	Wrong_doings	57	You have downloaded pirated movies	C2_18	0.0	Hard	I2_4	48	There are 10 continents in the World	0.0	Yes	RIGHT	320.45769999990625	RIGHT	717.4101999999039	LEFT	1016.0035000001244	LEFT	1494.22299999992	10.6	0.1	Probable_Truth	LEFT	RIGHT	6	1546.9246999998632	31	2021-02-17 14:49:20.316652
75	Self	S210217	0.6666666666666666	2	1	1	2	0.1	1283.3333359	1216.6666691	1500.000003	1500.000003	Minor	Wrong_doings	28	You have engaged in drink-driving	C1_23	1.0	Hard	I1_39	17	Today is Sunday	0.0555555555555556	No	RIGHT	288.12280000011015	RIGHT	1333.09660000009	LEFT	1103.3927999999378	LEFT	1208.385599999929	10.7	0.1	Probable_Truth	LEFT	LEFT	2	980.0956999999926	32	2021-02-17 14:49:43.303360
47	Self	S210217	0.8333333333333334	2	1	2	1	0.1	1000.000002	1000.000002	2216.6666711000003	2066.6666708	Major	Wrong_doings	46	You have used heroin	C2_33	0.7	Hard	I2_46	46	Bears have the biggest eyes among mammals	0.611111111111111	No	RIGHT	280.4744000000028	RIGHT	576.4811000001373	LEFT	1366.8391000001066	LEFT	4398.4872000000905	10.8	0.1	Probable_Truth	LEFT	LEFT	1	882.9749999999876	33	2021-02-17 14:50:09.669406
61	Self	S210217	0.5	2	1	2	1	0.6	1000.000002	1350.0000027	2216.6666711000003	1783.3333369	Major	Wrong_doings	18	You have illegally stayed in a country	C1_30	0.0	Hard	I1_32	30	Carnivore refers to meat-eater	0.888888888888889	No	RIGHT	328.6792000001242	RIGHT	535.9619000000748	LEFT	1864.206700000068	RIGHT	1715.332200000148	11.4	0.6	Probable_Truth	LEFT	RIGHT	5	2080.0773999999365	34	2021-02-17 14:50:35.117391
101	Computer	S210217	0.5	1	2	2	1	0.6	1000.000002	1350.0000027	1783.3333369	1650.0000033	Minor	Good_deeds	40	You have cursed at others	C2_58	0.05	Easy	I2_54	47	French is Singapore's official language	0.111111111111111	Yes	LEFT	970.724300000029	LEFT	560.7479999998759	LEFT	1144.2646999998942	LEFT	1984.9083000001428	11.4	0.6	Probable_Lie	LEFT	LEFT	6	582.6495159448411	35	2021-02-17 14:50:58.709056
33	Self	S210217	0.8333333333333334	1	2	1	2	0.7	1350.0000027	1216.6666691	1783.3333369	1783.3333369	Minor	Good_deeds	11	You have stopped using products tested on animals	C1_27	0.65	Easy	I2_31	57	Malay is one of the races in Singapore	0.722222222222222	No	RIGHT	537.4345000000176	RIGHT	392.9802000000109	RIGHT	3275.099100000034	RIGHT	1766.633799999909	12.099999999999998	0.7	Probable_Truth	RIGHT	RIGHT	2	785.5289000001449	36	2021-02-17 14:51:24.173019
71	Self	S210217	0.6666666666666666	1	2	2	1	0.3	1500.000003	1000.000002	1500.000003	1783.3333369	Minor	Good_deeds	59	You have pretended to be busy to avoid a social situation	C2_26	0.7	Easy	I2_41	43	Christmas Day is in March	0.944444444444444	No	LEFT	644.5264000001316	RIGHT	424.4415000000572	LEFT	2031.1016000000564	LEFT	1906.688700000132	11.799999999999995	0.3	Probable_Lie	RIGHT	RIGHT	2	665.6269000000066	37	2021-02-17 14:51:48.205932
76	Self	S210217	0.6666666666666666	2	1	2	1	0.3	1150.0000023	1433.3333362	2066.6666708	1650.0000033	Minor	Wrong_doings	47	You have coveted things that belong to others	C2_20	0.05	Easy	I1_45	45	Brazil is in South America	0.944444444444444	Yes	RIGHT	281.2311000000136	RIGHT	590.0104999998348	LEFT	1926.4209000000392	RIGHT	1365.7207000001108	12.099999999999998	0.3	Probable_Truth	LEFT	LEFT	2	692.2902999999678	38	2021-02-17 14:52:11.941971
57	Self	S210217	0.5	2	1	1	2	0.7	1150.0000023	1216.6666691	2500.000005	1500.000003	Minor	Good_deeds	42	You have let a homeless man into your house	C2_57	0.95	Easy	I1_27	32	Mozambique is the world's poorest country	0.0555555555555556	No	LEFT	680.031099999951	RIGHT	613.5876999999255	RIGHT	2605.987899999945	LEFT	3840.5612999999903	11.4	0.7	Probable_Lie	LEFT	RIGHT	2	2122.1866000000773	39	2021-02-17 14:52:40.741650
100	Computer	S210217	0.5	1	2	2	1	0.4	1350.0000027	1216.6666691	2216.6666711000003	2350.0000047	Major	Wrong_doings	30	You have started a hotline for victims of bully	C2_40	1.0	Easy	I1_19	46	Dutch is the 6th Europe's most widely spoken language	0.833333333333333	No	LEFT	690.4139000000669	LEFT	608.4017999999105	RIGHT	2086.905099999967	LEFT	4226.940700000114	11.4	0.4	Probable_Lie	LEFT	RIGHT	1	601.4357006911932	40	2021-02-17 14:53:08.660813
98	Computer	S210217	0.5	1	2	1	2	0.3	1283.3333359	1066.6666688	1933.3333372	2066.6666708	Major	Good_deeds	29	You have taken responsibility for your actions	C1_29	0.85	Easy	I1_10	54	The Seine river is 50 feet above sea level	0.0555555555555556	No	LEFT	761.4335000000665	LEFT	320.1786000001903	RIGHT	3372.789300000022	LEFT	2687.932000000046	11.4	0.3	Probable_Lie	RIGHT	LEFT	5	956.0787132033952	41	2021-02-17 14:53:35.678287
1	Self	S210217	0.5	1	2	1	2	0.2	1500.000003	1283.3333359	2350.0000047	2216.6666711000003	Minor	Wrong_doings	13	You have sheltered others from disasters	C1_13	0.0	Hard	I1_47	34	Most plants emit oxygen in the day	0.888888888888889	No	RIGHT	531.9118999998409	RIGHT	264.24230000020543	RIGHT	1392.204399999855	RIGHT	3784.353199999941	11.599999999999998	0.2	Probable_Truth	RIGHT	LEFT	2	1126.3017999999647	42	2021-02-17 14:54:02.701167
4	Self	S210217	0.5	1	2	2	1	0.7	1216.6666691	1500.000003	1783.3333369	1500.000003	Major	Wrong_doings	30	You have started a hotline for victims of bully	C2_40	1.0	Easy	I1_19	46	Dutch is the 6th Europe's most widely spoken language	0.833333333333333	No	LEFT	722.300099999984	RIGHT	672.1165999999812	RIGHT	1095.6877999999506	LEFT	1262.941999999839	10.9	0.7	Probable_Lie	RIGHT	LEFT	5	1889.876700000059	43	2021-02-17 14:54:26.916073
32	Self	S210217	0.8333333333333334	1	2	1	2	0.4	1216.6666691	1433.3333362	2066.6666708	2216.6666711000003	Major	Wrong_doings	50	You have watched an M18 movie when you were underage	C2_23	0.1	Easy	I2_42	17	Pyramid of Giza is 468 feet tall	0.0555555555555556	Yes	RIGHT	478.91570000001593	RIGHT	233.65990000002057	LEFT	1895.281800000021	RIGHT	1240.638699999863	11.3	0.4	Probable_Truth	LEFT	LEFT	1	805.7325999998284	44	2021-02-17 14:54:51.076370
19	Self	S210217	0.6666666666666666	1	2	1	2	0.2	1150.0000023	1283.3333359	2066.6666708	2066.6666708	Minor	Wrong_doings	36	You have intentionally let others cut in line	C2_9	0.85	Easy	I2_23	16	Singapore has four seasons	0.0	No	RIGHT	549.5009999999638	RIGHT	232.35959999988157	Time_Max_Exceeded	5000.173200000063	LEFT	1255.2751000000626	11.499999999999998	0.2	Probable_Truth	LEFT	LEFT	2	933.6218999999346	45	2021-02-17 14:55:18.188394
20	Self	S210217	0.6666666666666666	1	2	2	1	0.3	1500.000003	1216.6666691	1783.3333369	1783.3333369	Major	Good_deeds	44	You have told someone's secret to others	C1_44	0.8	Easy	I2_36	36	There are 20 bones in the human skull	1.0	Yes	LEFT	801.6943999998603	RIGHT	264.86339999996744	LEFT	1391.75309999996	LEFT	1563.8370000001487	11.199999999999998	0.3	Probable_Lie	LEFT	LEFT	6	724.628500000108	46	2021-02-17 14:55:41.789534
141	Computer	S210217	0.8333333333333334	2	1	2	1	0.8	1283.3333359	1433.3333362	1500.000003	1650.0000033	Major	Good_deeds	33	You have kept your promises	C1_46	1.0	Easy	I2_26	40	Penguin can fly with their wings	0.722222222222222	No	LEFT	401.2861999999586	LEFT	626.1305000000448	RIGHT	1063.5061000000403	LEFT	1385.3110000000015	11.199999999999998	0.8	Probable_Lie	RIGHT	LEFT	5	547.694366719563	47	2021-02-17 14:56:04.252230
3	Self	S210217	0.5	1	2	1	2	0.5	1000.000002	1350.0000027	2216.6666711000003	1650.0000033	Minor	Good_deeds	58	You have organized a violent protest	C1_51	0.95	Hard	I1_46	19	The Moon orbits around the Earth	0.944444444444444	No	LEFT	830.1081999998132	RIGHT	399.2858999999953	LEFT	2282.413399999996	RIGHT	2000.493600000027	10.699999999999998	0.5	Probable_Lie	LEFT	LEFT	4	866.7517000001226	48	2021-02-17 14:56:58.741208
39	Self	S210217	0.8333333333333334	1	2	2	1	0.6	1150.0000023	1000.000002	1500.000003	1500.000003	Minor	Wrong_doings	23	You have held the elevator doors for others	C2_28	0.15	Easy	I2_6	50	There is typically 0.6 grams of mercury in glass thermometer	0.833333333333333	No	RIGHT	716.4991000001919	RIGHT	232.78940000000148	RIGHT	1703.141000000187	RIGHT	2662.9675999997744	11.299999999999995	0.6	Probable_Truth	LEFT	LEFT	1	682.6023999999506	49	2021-02-17 14:57:22.461813
52	Self	S210217	0.5	1	2	2	1	0.3	1433.3333362	1000.000002	1650.0000033	2216.6666711000003	Major	Good_deeds	4	You have eaten something in the MRT train	C1_47	0.05	Hard	I1_8	49	Lehman Brothers went bankrupt on 20th September	0.611111111111111	No	LEFT	711.670500000082	RIGHT	257.6444999999694	LEFT	1192.2905999999784	RIGHT	3033.8484999999764	10.999999999999996	0.3	Probable_Lie	RIGHT	RIGHT	1	1572.38940000002	50	2021-02-17 14:57:48.101281
112	Computer	S210217	0.6666666666666666	1	2	1	2	0.4	1283.3333359	1216.6666691	2216.6666711000003	1500.000003	Minor	Wrong_doings	27	You have cheated on a national exam	C1_16	0.05	Hard	I2_16	44	Africa is the continent with the least rainfall	0.166666666666667	No	RIGHT	686.4651000000777	LEFT	352.3175000000265	LEFT	1036.469200000056	RIGHT	1527.8971999998705	10.999999999999996	0.4	Probable_Truth	LEFT	LEFT	1	713.1925959875352	51	2021-02-17 14:58:11.212915
93	Self	S210217	0.8333333333333334	2	1	2	1	0.7	1000.000002	1066.6666688	2350.0000047	2066.6666708	Major	Good_deeds	50	You have bribed someone to improve a grade	C2_11	0.65	Easy	I1_13	18	December is the last month of the year	0.888888888888889	No	RIGHT	255.6716999999935	RIGHT	508.0669999999827	LEFT	1030.7815999999548	RIGHT	1789.6370999999365	11.699999999999996	0.7	Probable_Lie	LEFT	LEFT	5	757.0385999999871	52	2021-02-17 14:58:34.612351
9	Self	S210217	0.5	2	1	1	2	0.3	1500.000003	1283.3333359	2066.6666708	2216.6666711000003	Major	Wrong_doings	49	You have rescued others from a catastrophe	C1_49	0.55	Hard	I1_33	31	The Amazon forest covers an area of 1 billion acres	1.0	Yes	LEFT	512.3493000000963	RIGHT	623.2378999998218	RIGHT	2216.0099000000173	RIGHT	1383.8948000000073	11.399999999999997	0.3	Probable_Lie	RIGHT	RIGHT	1	1298.7183999998706	53	2021-02-17 14:59:00.285209
80	Self	S210217	0.8333333333333334	1	2	1	2	0.7	1000.000002	1150.0000023	2350.0000047	1650.0000033	Major	Good_deeds	60	You have stolen something	C1_14	0.0	Hard	I1_3	59	A triangle has three sides	0.0	No	RIGHT	480.9218000000328	RIGHT	256.8773999998939	LEFT	936.3392000000204	RIGHT	1134.2819000001327	12.099999999999994	0.7	Probable_Truth	LEFT	LEFT	1	816.5481000000909	54	2021-02-17 14:59:22.637715
58	Self	S210217	0.5	2	1	1	2	0.4	1433.3333362	1000.000002	1650.0000033	1933.3333372	Major	Wrong_doings	29	You have borrowed things and never returned	C1_20	0.8	Easy	I2_53	3	The first Olympic Games was held in the 5th century B.C	0.0	Yes	LEFT	447.5271999999677	RIGHT	1021.8725999998242	LEFT	1612.862299999961	LEFT	2551.6922000001614	11.699999999999994	0.4	Probable_Lie	LEFT	RIGHT	3	2312.389400000029	55	2021-02-17 14:59:49.173209
48	Self	S210217	0.5	1	2	1	2	0.7	1066.6666688	1216.6666691	1783.3333369	1500.000003	Major	Good_deeds	2	You have gossiped about your best friend	C1_4	0.0	Hard	I1_35	5	Cernan was the second last man to walk on the Moon	0.0	Yes	RIGHT	625.880000000052	RIGHT	223.73689999994892	LEFT	1446.071300000085	LEFT	2408.1330000001344	12.399999999999991	0.7	Probable_Truth	LEFT	RIGHT	4	2449.928	56	2021-02-17 15:00:14.468380
60	Self	S210217	0.5	2	1	2	1	0.5	1066.6666688	1433.3333362	1783.3333369	2350.0000047	Minor	Good_deeds	37	You have helped with household chores	C2_29	0.7	Hard	I1_21	27	There are 6000 spoken languages in the World	0.833333333333333	No	RIGHT	222.76850000002923	RIGHT	479.9172999998973	RIGHT	1302.375199999915	LEFT	2993.278500000088	12.899999999999991	0.5	Probable_Truth	RIGHT	LEFT	3	1029.7195999999076	57	2021-02-17 15:00:39.709703
44	Self	S210217	0.8333333333333334	2	1	2	1	0.7	1433.3333362	1216.6666691	2350.0000047	2500.000005	Major	Good_deeds	46	You have faked an illness	C1_1	0.9	Easy	I1_11	26	It takes 500 days to travel from Earth to Mars	0.0555555555555556	Yes	RIGHT	248.82049999996525	RIGHT	707.7964000000065	LEFT	1504.8679000001357	LEFT	4205.380700000205	13.599999999999993	0.7	Probable_Truth	LEFT	LEFT	1	756.8856000000324	58	2021-02-17 15:01:07.205282
5	Self	S210217	0.5	1	2	2	1	0.8	1433.3333362	1066.6666688	2500.000005	2066.6666708	Minor	Good_deeds	40	You have cursed at others	C2_58	0.05	Easy	I2_54	47	French is Singapore's official language	0.111111111111111	Yes	LEFT	862.8627000000506	RIGHT	721.0308000001078	LEFT	734.8240999999689	LEFT	950.5122000000484	12.799999999999992	0.8	Probable_Lie	RIGHT	RIGHT	3	2444.271700000172	59	2021-02-17 15:01:32.556171
6	Self	S210217	0.5	1	2	2	1	0.6	1150.0000023	1433.3333362	1650.0000033	2350.0000047	Minor	Good_deeds	6	You have offered a listening ear to a friend	C1_38	0.15	Easy	I2_12	10	The first Grammy awards was held in 1959	0.0	Yes	LEFT	808.1442999998671	RIGHT	640.5002000001332	RIGHT	1393.686099999968	RIGHT	2571.853999999803	12.199999999999992	0.6	Probable_Lie	RIGHT	RIGHT	1	2520.469300000059	60	2021-02-17 15:01:59.646859
121	Computer	S210217	0.6666666666666666	2	1	1	2	0.4	1433.3333362	1500.000003	2216.6666711000003	2350.0000047	Minor	Good_deeds	53	You have helped a friend in need	C2_34	1.0	Hard	I2_52	52	South East Asia is currently free from polio	0.777777777777778	No	LEFT	536.9041000001289	LEFT	912.3305000000528	RIGHT	1707.0811000000958	RIGHT	1504.1298999999526	12.199999999999992	0.4	Probable_Truth	LEFT	RIGHT	3	907.211946314446	61	2021-02-17 15:02:25.276171
85	Self	S210217	0.8333333333333334	1	2	2	1	0.3	1433.3333362	1500.000003	1783.3333369	2350.0000047	Major	Wrong_doings	59	You have made someone cry	C2_7	0.9	Hard	I1_12	8	The human's inner ear is larger than a pencil eraser	0.888888888888889	Yes	RIGHT	545.6753000000845	RIGHT	257.1318999998766	LEFT	1376.0846999998648	LEFT	4332.849499999838	12.499999999999991	0.3	Probable_Truth	LEFT	LEFT	1	748.4795000000304	62	2021-02-17 15:02:52.172394
132	Computer	S210217	0.8333333333333334	1	2	2	1	0.8	1500.000003	1433.3333362	2216.6666711000003	1500.000003	Major	Wrong_doings	39	You have volunteered every week for many years	C2_35	0.95	Hard	I1_50	31	Vegetarians can eat vegetable products	0.0	Yes	LEFT	1037.0566999999935	LEFT	559.9970999999186	RIGHT	1367.4521000000368	RIGHT	2837.725900000123	12.499999999999991	0.8	Probable_Truth	LEFT	RIGHT	4	775.048878498754	63	2021-02-17 15:03:17.964082
97	Computer	S210217	0.5	1	2	1	2	0.8	1150.0000023	1150.0000023	1650.0000033	1783.3333369	Minor	Wrong_doings	13	You have sheltered others from disasters	C1_13	0.0	Hard	I1_47	34	Most plants emit oxygen in the day	0.888888888888889	No	RIGHT	1581.300199999987	LEFT	784.7577999998521	RIGHT	1002.8878999999052	RIGHT	2664.566799999875	12.499999999999991	0.8	Probable_Truth	LEFT	RIGHT	5	595.229050350973	64	2021-02-17 15:03:42.901911
110	Computer	S210217	0.5	2	1	2	1	0.3	1150.0000023	1500.000003	2216.6666711000003	2350.0000047	Minor	Wrong_doings	48	You have stopped using plastics completely	C1_19	0.85	Easy	I2_2	33	It is night time now	0.0	No	RIGHT	326.79300000017975	LEFT	692.8267999999207	RIGHT	1751.6971999998532	LEFT	1131.1651000000893	12.499999999999991	0.3	Probable_Truth	LEFT	RIGHT	5	536.4067140223204	65	2021-02-17 15:04:07.140232
34	Self	S210217	0.8333333333333334	1	2	1	2	0.5	1000.000002	1150.0000023	2350.0000047	2500.000005	Minor	Wrong_doings	35	You have participated in a scamming business	C2_38	0.95	Hard	I1_57	42	Marijuana is legal in Singapore	0.833333333333333	Yes	RIGHT	539.9021999996876	RIGHT	247.81750000011016	LEFT	1837.9347000000053	LEFT	1718.6805000001186	12.999999999999991	0.5	Probable_Truth	RIGHT	RIGHT	5	769.7090000001481	66	2021-02-17 15:04:31.829781
7	Self	S210217	0.5	1	2	2	1	0.4	1350.0000027	1216.6666691	1500.000003	1783.3333369	Major	Wrong_doings	51	You have fabricated facts about yourself	C2_30	0.0	Hard	I2_34	24	Some owl species hunt fish	0.944444444444444	Yes	LEFT	750.1048999997693	RIGHT	305.1170000003367	LEFT	1383.4987999998702	LEFT	1825.302300000203	12.599999999999993	0.4	Probable_Lie	LEFT	LEFT	5	1184.606199999962	67	2021-02-17 15:04:55.700037
115	Computer	S210217	0.6666666666666666	1	2	1	2	0.1	1350.0000027	1283.3333359	2066.6666708	2066.6666708	Minor	Wrong_doings	36	You have intentionally let others cut in line	C2_9	0.85	Easy	I2_23	16	Singapore has four seasons	0.0	No	LEFT	825.3272000001743	LEFT	324.995299999955	RIGHT	1781.0954999999922	LEFT	2311.435900000106	12.599999999999993	0.1	Probable_Lie	LEFT	RIGHT	1	520.957859431895	68	2021-02-17 15:05:20.812832
130	Computer	S210217	0.8333333333333334	1	2	1	2	0.5	1283.3333359	1350.0000027	2350.0000047	1783.3333369	Minor	Wrong_doings	35	You have participated in a scamming business	C2_38	0.95	Hard	I1_57	42	Marijuana is legal in Singapore	0.833333333333333	Yes	RIGHT	598.4161999999742	LEFT	623.92809999983	LEFT	1314.9203999996644	LEFT	751.1408999998821	12.599999999999993	0.5	Probable_Truth	RIGHT	RIGHT	3	512.7747133029309	69	2021-02-17 15:05:43.956856
69	Self	S210217	0.6666666666666666	1	2	2	1	0.8	1350.0000027	1216.6666691	2216.6666711000003	2350.0000047	Major	Wrong_doings	6	You have adopted a zero-waste lifestyle	C1_8	1.0	Hard	I1_43	54	Red is a color	0.0	No	LEFT	641.3408999997046	RIGHT	240.509899999779	RIGHT	1272.208700000192	RIGHT	1011.6588999999294	11.799999999999992	0.8	Probable_Lie	RIGHT	RIGHT	2	577.2670999999718	70	2021-02-17 15:06:07.404426
15	Self	S210217	0.5	2	1	2	1	0.2	1216.6666691	1066.6666688	2350.0000047	2066.6666708	Minor	Good_deeds	19	You have kidnapped someone	C1_5	0.0	Hard	I2_27	21	Mexico's National Day is September 16	0.0	Yes	LEFT	896.2783000001764	RIGHT	688.6964999998781	LEFT	840.0593000001209	LEFT	1781.057900000178	11.599999999999993	0.2	Probable_Lie	RIGHT	LEFT	4	842.8130000002056	71	2021-02-17 15:06:31.732088
45	Self	S210217	0.8333333333333334	2	1	2	1	0.6	1066.6666688	1350.0000027	1500.000003	1783.3333369	Major	Good_deeds	33	You have kept your promises	C1_46	1.0	Easy	I2_26	40	Penguin can fly with their wings	0.722222222222222	No	RIGHT	639.8472999999285	RIGHT	621.0552000002281	RIGHT	809.628900000007	LEFT	1114.4839999997205	12.199999999999992	0.6	Probable_Truth	RIGHT	RIGHT	6	447.4482000000535	72	2021-02-17 15:06:53.636120
14	Self	S210217	0.5	2	1	2	1	0.7	1000.000002	1150.0000023	1783.3333369	2500.000005	Minor	Wrong_doings	48	You have stopped using plastics completely	C1_19	0.85	Easy	I2_2	33	It is night time now	0.0	No	LEFT	703.6614000003283	RIGHT	704.6758999999838	RIGHT	1327.6851999999053	LEFT	1364.01479999995	11.499999999999991	0.7	Probable_Lie	LEFT	LEFT	5	1248.185299999932	73	2021-02-17 15:07:17.997624
109	Computer	S210217	0.5	2	1	2	1	0.7	1000.000002	1283.3333359	1650.0000033	2500.000005	Major	Wrong_doings	52	You have lied to your parents	C1_43	0.95	Easy	I1_2	33	The Earth is round	0.777777777777778	No	RIGHT	280.0938000000315	LEFT	1100.1354999998512	LEFT	1103.7249999999403	RIGHT	1165.8939999997529	11.499999999999991	0.7	Probable_Truth	RIGHT	LEFT	3	965.5021676189066	74	2021-02-17 15:07:41.619851
73	Self	S210217	0.6666666666666666	2	1	1	2	0.8	1350.0000027	1500.000003	2500.000005	1933.3333372	Major	Wrong_doings	57	You have thrown your trash into the bin	C1_28	0.55	Easy	I2_17	13	Polish is 20th most spoken language in the World	1.0	No	LEFT	1080.7866000000104	LEFT	882.9428999997617	RIGHT	1563.7162000002718	RIGHT	1774.3140999996283	11.499999999999991	0.8	Probable_Lie	RIGHT	RIGHT	1	610.511200000019	75	2021-02-17 15:08:07.396335
99	Computer	S210217	0.5	1	2	1	2	0.7	1066.6666688	1283.3333359	2350.0000047	1500.000003	Minor	Good_deeds	58	You have organized a violent protest	C1_51	0.95	Hard	I1_46	19	The Moon orbits around the Earth	0.944444444444444	No	LEFT	816.9668999998976	LEFT	472.2351000000344	LEFT	1373.5117999999602	RIGHT	809.3877000001157	11.499999999999991	0.7	Probable_Lie	LEFT	LEFT	6	926.8595106582668	76	2021-02-17 15:08:30.571878
31	Self	S210217	0.6666666666666666	2	1	2	1	0.6	1500.000003	1000.000002	1783.3333369	1933.3333372	Minor	Good_deeds	3	You have deceived a loved one	C1_22	0.0	Easy	I2_22	50	China is a part of Asia	0.833333333333333	No	RIGHT	248.1316999997034	RIGHT	562.0179000002281	LEFT	991.9604000001528	RIGHT	1452.0149999998466	12.099999999999993	0.6	Probable_Truth	LEFT	LEFT	2	640.9458000002815	77	2021-02-17 15:08:53.260119
135	Computer	S210217	0.8333333333333334	1	2	2	1	0.1	1350.0000027	1283.3333359	2066.6666708	2500.000005	Minor	Wrong_doings	23	You have held the elevator doors for others	C2_28	0.15	Easy	I2_6	50	There is typically 0.6 grams of mercury in glass thermometer	0.833333333333333	No	LEFT	996.321899999657	LEFT	535.9677000001284	RIGHT	1127.1257999997033	RIGHT	1295.7521000002998	12.099999999999993	0.1	Probable_Truth	LEFT	RIGHT	3	588.0251361817737	78	2021-02-17 15:09:17.573251
143	Computer	S210217	0.8333333333333334	2	1	2	1	0.5	1216.6666691	1500.000003	2500.000005	2350.0000047	Major	Wrong_doings	46	You have used heroin	C2_33	0.7	Hard	I2_46	46	Bears have the biggest eyes among mammals	0.611111111111111	No	RIGHT	503.501199999846	LEFT	824.2542999996658	LEFT	1025.184999999965	LEFT	1556.2804000001051	12.099999999999993	0.5	Probable_Truth	LEFT	LEFT	1	557.5424054149448	79	2021-02-17 15:09:42.172766
136	Computer	S210217	0.8333333333333334	2	1	1	2	0.4	1500.000003	1350.0000027	1650.0000033	2500.000005	Minor	Wrong_doings	16	You have started an NGO using your savings	C2_14	0.85	Easy	I1_38	58	A square has 3 corners	0.833333333333333	Yes	RIGHT	343.0496000000858	LEFT	724.136499999986	RIGHT	2223.5286999998607	LEFT	1144.5298999997249	12.099999999999993	0.4	Probable_Truth	LEFT	LEFT	1	595.9242035443959	80	2021-02-17 15:10:06.780056
17	Self	S210217	0.6666666666666666	1	2	1	2	0.4	1216.6666691	1500.000003	2216.6666711000003	2216.6666711000003	Major	Good_deeds	9	You have engaged in money laundering	C1_7	0.9	Easy	I1_6	23	Kangaroos live in Africa	0.611111111111111	Yes	RIGHT	607.3584999999184	RIGHT	169.66490000004342	LEFT	1104.4863000001897	LEFT	1273.480599999857	12.499999999999991	0.4	Probable_Truth	LEFT	LEFT	2	665.3796000000511	81	2021-02-17 15:10:30.325780
140	Computer	S210217	0.8333333333333334	2	1	2	1	0.3	1350.0000027	1216.6666691	2216.6666711000003	2216.6666711000003	Major	Good_deeds	46	You have faked an illness	C1_1	0.9	Easy	I1_11	26	It takes 500 days to travel from Earth to Mars	0.0555555555555556	Yes	RIGHT	353.22569999971165	LEFT	723.5795999999937	LEFT	1152.7593000000709	RIGHT	4777.196500000173	12.499999999999991	0.3	Probable_Lie	LEFT	LEFT	2	561.2094262731127	82	2021-02-17 15:10:57.467865
43	Self	S210217	0.8333333333333334	2	1	1	2	0.8	1500.000003	1433.3333362	1650.0000033	1500.000003	Minor	Wrong_doings	1	You have been restricting your electricity consumption	C2_46	0.05	Hard	I2_40	38	Singapore ranked 8th in World's smallest countries	0.0	No	RIGHT	224.74239999974088	RIGHT	454.4455999998718	RIGHT	2205.7145999997374	RIGHT	2879.8587999999654	13.299999999999994	0.8	Probable_Lie	LEFT	LEFT	4	744.3456999999398	83	2021-02-17 15:11:22.636202
139	Computer	S210217	0.8333333333333334	2	1	1	2	0.2	1150.0000023	1283.3333359	1933.3333372	1783.3333369	Minor	Wrong_doings	1	You have been restricting your electricity consumption	C2_46	0.05	Hard	I2_40	38	Singapore ranked 8th in World's smallest countries	0.0	No	RIGHT	423.9849999999024	LEFT	605.0458999998227	RIGHT	2386.412500000006	RIGHT	856.2396000002082	13.299999999999994	0.2	Probable_Truth	LEFT	LEFT	1	612.0485013627803	84	2021-02-17 15:11:46.244595
13	Self	S210217	0.5	2	1	2	1	0.6	1350.0000027	1216.6666691	1933.3333372	2350.0000047	Major	Wrong_doings	52	You have lied to your parents	C1_43	0.95	Easy	I1_2	33	The Earth is round	0.777777777777778	No	RIGHT	105.0890999999865	RIGHT	707.9343000000335	LEFT	743.7583000000814	RIGHT	739.6379000001616	13.899999999999991	0.6	Probable_Truth	RIGHT	RIGHT	4	1171.2840000000142	85	2021-02-17 15:12:09.140106
84	Self	S210217	0.8333333333333334	1	2	2	1	0.4	1350.0000027	1283.3333359	1650.0000033	1783.3333369	Minor	Wrong_doings	14	You have signed up as a bone marrow donor	C2_10	0.1	Hard	I2_8	12	"Statue of Liberty is 151 feet tall"	0.0	Yes	RIGHT	599.6141999999054	RIGHT	210.48490000021047	RIGHT	1710.9129000000394	RIGHT	1378.4061000001202	14.299999999999994	0.4	Probable_Truth	LEFT	LEFT	1	633.4107999996377	86	2021-02-17 15:12:32.316616
36	Self	S210217	0.8333333333333334	1	2	2	1	0.2	1283.3333359	1066.6666688	1650.0000033	2066.6666708	Major	Wrong_doings	39	You have volunteered every week for many years	C2_35	0.95	Hard	I1_50	31	Vegetarians can eat vegetable products	0.0	Yes	RIGHT	606.3493000001472	RIGHT	281.5998999999465	RIGHT	1094.3578999999772	RIGHT	2134.759799999756	14.499999999999991	0.2	Probable_Truth	LEFT	LEFT	1	598.23920000008	87	2021-02-17 15:12:55.675602
77	Self	S210217	0.6666666666666666	2	1	2	1	0.4	1500.000003	1150.0000023	1933.3333372	2500.000005	Major	Wrong_doings	19	You have lost everything just to help others	C1_57	0.25	Hard	I2_60	1	Nomophobia is the fear of being without a phone or computer	0.0	No	RIGHT	288.2767999999487	RIGHT	597.4145999998655	RIGHT	3046.3857999998254	RIGHT	2285.599300000285	14.899999999999991	0.4	Probable_Truth	RIGHT	RIGHT	4	636.7832000000817	88	2021-02-17 15:13:22.187705
116	Computer	S210217	0.6666666666666666	1	2	2	1	0.5	1066.6666688	1433.3333362	1783.3333369	1650.0000033	Major	Good_deeds	44	You have told someone's secret to others	C1_44	0.8	Easy	I2_36	36	There are 20 bones in the human skull	1.0	Yes	LEFT	1085.7922999998664	LEFT	511.1688000001777	LEFT	1120.7173000002513	LEFT	1071.4880000000448	14.899999999999991	0.5	Probable_Lie	RIGHT	RIGHT	1	703.6012504445378	89	2021-02-17 15:13:45.180956
119	Computer	S210217	0.6666666666666666	1	2	2	1	0.6	1216.6666691	1066.6666688	1933.3333372	1933.3333372	Major	Wrong_doings	16	You have risked your life to save another person's life	C2_54	0.95	Hard	I1_37	6	Fishes can swim in water	0.666666666666667	No	LEFT	1509.6263000000365	LEFT	424.7371999999814	RIGHT	1661.1901999999643	RIGHT	1923.987000000125	14.899999999999991	0.6	Probable_Truth	LEFT	LEFT	2	668.0929809407152	90	2021-02-17 15:14:10.092561
70	Self	S210217	0.6666666666666666	1	2	2	1	0.6	1066.6666688	1500.000003	1650.0000033	2216.6666711000003	Minor	Wrong_doings	40	You have bought cocaine	C2_59	0.0	Hard	I2_58	29	The current century is 21st	0.0	Yes	RIGHT	591.9323000002805	RIGHT	152.32590000005075	LEFT	983.445599999868	RIGHT	1625.502599999891	15.499999999999991	0.6	Probable_Truth	LEFT	LEFT	2	664.5140000000538	91	2021-02-17 15:14:33.115300
46	Self	S210217	0.8333333333333334	2	1	2	1	0.4	1150.0000023	1500.000003	1933.3333372	2350.0000047	Minor	Good_deeds	60	You have said thank you when you have received help	C1_60	0.45	Hard	I2_39	11	The hardest bone in human body is the jawbone	0.0	Yes	RIGHT	247.5756999997429	RIGHT	635.3771999997662	RIGHT	2751.4642000001004	RIGHT	4081.787500000246	15.899999999999991	0.4	Probable_Truth	RIGHT	RIGHT	6	510.8399000000645	92	2021-02-17 15:15:00.853818
12	Self	S210217	0.5	2	1	2	1	0.1	1283.3333359	1350.0000027	2500.000005	1783.3333369	Minor	Good_deeds	1	You have said sorry when you were rude	C2_52	0.0	Easy	I2_33	9	There are 7 days in a week	0.0	Yes	RIGHT	598.6989999996695	RIGHT	650.7443999998941	RIGHT	1838.1208000000695	RIGHT	1660.324799999671	15.999999999999991	0.1	Probable_Truth	LEFT	LEFT	1	1338.4892000003674	93	2021-02-17 15:15:26.435494
35	Self	S210217	0.8333333333333334	1	2	1	2	0.3	1500.000003	1283.3333359	1933.3333372	2350.0000047	Major	Good_deeds	27	You have failed to keep promises	C1_11	0.0	Easy	I1_17	56	Acoustic Kitty refers to cat with implants	0.0	Yes	RIGHT	611.2068000002182	RIGHT	264.59609999983513	LEFT	1508.889299999737	Time_Max_Exceeded	5000.221099999635	16.299999999999994	0.3	Probable_Truth	LEFT	LEFT	1	648.3249000002616	94	2021-02-17 15:15:54.108627
138	Computer	S210217	0.8333333333333334	2	1	1	2	0.7	1000.000002	1000.000002	1783.3333369	1933.3333372	Major	Wrong_doings	14	You have cursed at your loved ones	C2_16	0.0	Easy	I1_24	39	Chickens lay eggs	0.0	Yes	RIGHT	241.2727999999333	LEFT	725.124600000072	LEFT	1485.1788999999371	RIGHT	848.493899999994	16.299999999999994	0.7	Probable_Lie	LEFT	LEFT	5	891.9899906430605	95	2021-02-17 15:16:16.571729
78	Self	S210217	0.6666666666666666	2	1	2	1	0.6	1066.6666688	1283.3333359	1650.0000033	1783.3333369	Minor	Good_deeds	23	You have followed instructions	C2_31	0.95	Hard	I1_1	60	Singapore is in Africa	0.888888888888889	Yes	RIGHT	105.8719999996356	RIGHT	711.6031000000476	RIGHT	1342.8829999998015	LEFT	928.3253999997214	16.899999999999995	0.6	Probable_Truth	RIGHT	RIGHT	5	727.77780000024	96	2021-02-17 15:17:09.044681
49	Self	S210217	0.5	1	2	1	2	0.2	1000.000002	1433.3333362	1933.3333372	2066.6666708	Minor	Good_deeds	45	You have bought cigarettes for a minor	C2_2	0.85	Easy	I2_49	55	Singapore is a country	0.888888888888889	Yes	RIGHT	635.0827000001118	RIGHT	224.5545000000675	LEFT	1054.1971000002377	RIGHT	800.3312000000733	17.099999999999994	0.2	Probable_Truth	RIGHT	LEFT	1	1023.0423000002702	97	2021-02-17 15:17:31.787362
24	Self	S210217	0.6666666666666666	2	1	1	2	0.5	1150.0000023	1150.0000023	2066.6666708	2216.6666711000003	Minor	Good_deeds	15	You have taken part in violent demonstration	C1_15	0.1	Hard	I2_28	36	Nanyang Technological University is in Australia	0.0	No	LEFT	584.0885000002345	RIGHT	779.8683999999412	LEFT	1130.2740999999514	LEFT	1392.0025999996142	16.599999999999994	0.5	Probable_Lie	LEFT	LEFT	5	867.7081999999245	98	2021-02-17 15:17:55.699569
29	Self	S210217	0.6666666666666666	2	1	2	1	0.8	1216.6666691	1066.6666688	1650.0000033	1650.0000033	Major	Wrong_doings	22	You have donated blood every 6 months for many years	C2_13	1.0	Easy	I1_40	22	Milwaukee Art Museum is located in California	0.0	Yes	RIGHT	56.1612999999852	RIGHT	575.7399000003716	RIGHT	1255.906500000037	RIGHT	2823.985399999856	17.399999999999995	0.8	Probable_Truth	RIGHT	RIGHT	5	827.5546999998369	99	2021-02-17 15:18:19.395577
105	Computer	S210217	0.5	2	1	1	2	0.8	1216.6666691	1066.6666688	1933.3333372	1500.000003	Major	Wrong_doings	49	You have rescued others from a catastrophe	C1_49	0.55	Hard	I1_33	31	The Amazon forest covers an area of 1 billion acres	1.0	Yes	LEFT	505.1362999997764	LEFT	680.1626999999826	RIGHT	1437.2020999999222	RIGHT	999.4645000001584	17.399999999999995	0.8	Probable_Lie	RIGHT	LEFT	5	542.6888355856761	100	2021-02-17 15:18:41.859677
86	Self	S210217	0.8333333333333334	1	2	2	1	0.8	1500.000003	1066.6666688	2066.6666708	1933.3333372	Minor	Good_deeds	34	You have queued to enter the MRT train	C1_59	0.2	Easy	I1_41	25	Beef comes from cows	0.944444444444444	Yes	RIGHT	870.9988999999041	RIGHT	272.3547000000508	RIGHT	1711.9066999998722	RIGHT	1575.0686999999743	18.2	0.8	Probable_Truth	LEFT	LEFT	1	758.5231999996722	101	2021-02-17 15:19:06.187185
120	Computer	S210217	0.6666666666666666	2	1	1	2	0.6	1066.6666688	1216.6666691	1933.3333372	1933.3333372	Minor	Good_deeds	15	You have taken part in violent demonstration	C1_15	0.1	Hard	I2_28	36	Nanyang Technological University is in Australia	0.0	No	LEFT	487.38159999993513	LEFT	838.669199999913	LEFT	845.985599999949	LEFT	1032.330699999875	18.2	0.6	Probable_Truth	LEFT	RIGHT	3	540.116756330117	102	2021-02-17 15:19:28.643411
74	Self	S210217	0.6666666666666666	2	1	1	2	0.2	1000.000002	1350.0000027	1783.3333369	2216.6666711000003	Minor	Good_deeds	20	You have a non-judgmental attitude towards everyone	C1_48	0.0	Easy	I2_38	38	Slavery was abolished in Cuba in 1886	0.0	No	RIGHT	296.190900000056	RIGHT	528.3042000000933	RIGHT	1714.5658999997977	LEFT	2879.2890999998235	18.399999999999995	0.2	Probable_Truth	RIGHT	RIGHT	5	877.0881000000372	103	2021-02-17 15:19:53.867713
96	Computer	S210217	0.5	1	2	1	2	0.1	1500.000003	1500.000003	2500.000005	2500.000005	Major	Wrong_doings	38	You have extorted money from anyone	C2_6	0.5	Hard	I2_24	12	Cheese is an Asian staple	0.0555555555555556	Yes	LEFT	828.4907999995994	LEFT	295.213099999728	LEFT	1255.4308000003402	LEFT	1168.464500000027	18.399999999999995	0.1	Probable_Lie	LEFT	LEFT	5	849.2448612105536	104	2021-02-17 15:20:18.835256
131	Computer	S210217	0.8333333333333334	1	2	1	2	0.4	1000.000002	1500.000003	1933.3333372	1650.0000033	Major	Good_deeds	27	You have failed to keep promises	C1_11	0.0	Easy	I1_17	56	Acoustic Kitty refers to cat with implants	0.0	Yes	RIGHT	772.9905000001054	LEFT	352.197900000192	LEFT	2754.4302999999672	RIGHT	1215.4192999996667	18.399999999999995	0.4	Probable_Truth	RIGHT	RIGHT	4	547.7218604433574	105	2021-02-17 15:20:43.130090
27	Self	S210217	0.6666666666666666	2	1	1	2	0.2	1283.3333359	1500.000003	1933.3333372	1500.000003	Major	Wrong_doings	13	You have helped your parents when asked to	C1_37	0.2	Easy	I1_15	15	Afghan Hound is the first cloned cat	0.944444444444444	No	RIGHT	359.7707000003538	RIGHT	858.0372999999781	RIGHT	3437.7105999997184	RIGHT	1920.260800000051	18.599999999999994	0.2	Probable_Truth	RIGHT	RIGHT	6	793.6781999997038	106	2021-02-17 15:21:09.291401
102	Computer	S210217	0.5	1	2	2	1	0.5	1433.3333362	1000.000002	2066.6666708	1933.3333372	Minor	Good_deeds	6	You have offered a listening ear to a friend	C1_38	0.15	Easy	I2_12	10	The first Grammy awards was held in 1959	0.0	Yes	LEFT	1045.6730999999309	LEFT	336.1302000002979	RIGHT	1518.7698999998247	RIGHT	1316.6148000000248	18.599999999999994	0.5	Probable_Lie	RIGHT	LEFT	6	788.969351910087	107	2021-02-17 15:21:33.299589
89	Self	S210217	0.8333333333333334	2	1	1	2	0.3	1150.0000023	1150.0000023	1500.000003	1783.3333369	Major	Wrong_doings	11	You have cheated on a test	C1_35	1.0	Hard	I2_18	60	The Eiffel Tower is in Paris	0.0555555555555556	Yes	RIGHT	408.5171000001537	RIGHT	627.8603999999177	LEFT	864.8944000001393	RIGHT	855.7175000000825	18.899999999999995	0.3	Probable_Lie	LEFT	LEFT	2	760.119499999746	108	2021-02-17 15:21:54.981092
56	Self	S210217	0.5	2	1	1	2	0.2	1500.000003	1066.6666688	1933.3333372	1650.0000033	Major	Wrong_doings	30	You have held the door open for a stranger	C2_37	0.0	Easy	I2_30	4	Today is a weekday	0.111111111111111	Yes	LEFT	510.8186000002206	RIGHT	1194.6210999999494	RIGHT	2792.317400000229	RIGHT	1127.7390000000196	18.7	0.2	Probable_Lie	LEFT	RIGHT	1	915.2308000002448	109	2021-02-17 15:22:20.251407
134	Computer	S210217	0.8333333333333334	1	2	2	1	0.7	1433.3333362	1150.0000023	1650.0000033	2216.6666711000003	Major	Good_deeds	28	You have complimented others for good work	C1_50	0.85	Hard	I2_56	6	Singapore is a poor country	0.0	No	LEFT	659.3482999996922	LEFT	296.5045000000828	RIGHT	1126.368100000036	LEFT	1138.2009000003563	18.7	0.7	Probable_Truth	LEFT	RIGHT	5	826.093424995825	110	2021-02-17 15:22:43.323495
2	Self	S210217	0.5	1	2	1	2	0.3	1066.6666688	1000.000002	2066.6666708	1933.3333372	Major	Good_deeds	29	You have taken responsibility for your actions	C1_29	0.85	Easy	I1_10	54	The Seine river is 50 feet above sea level	0.0555555555555556	No	RIGHT	614.0589000001455	RIGHT	184.36500000007072	RIGHT	1276.5746000000036	LEFT	1446.997999999894	19.0	0.3	Probable_Truth	RIGHT	LEFT	3	900.2252000000226	111	2021-02-17 15:23:06.387067
122	Computer	S210217	0.6666666666666666	2	1	1	2	0.3	1350.0000027	1433.3333362	1500.000003	1650.0000033	Minor	Wrong_doings	34	You have donated a pay cheque to charity	C2_3	0.0	Easy	I1_28	28	Algeria is Africa's second largest country	0.666666666666667	Yes	LEFT	240.13830000012604	LEFT	745.486400000118	RIGHT	3782.786000000215	RIGHT	1592.0271999998477	19.0	0.3	Probable_Lie	RIGHT	LEFT	5	624.2956386886445	112	2021-02-17 15:23:31.867668
125	Computer	S210217	0.6666666666666666	2	1	2	1	0.2	1500.000003	1283.3333359	2350.0000047	1783.3333369	Major	Wrong_doings	22	You have donated blood every 6 months for many years	C2_13	1.0	Easy	I1_40	22	Milwaukee Art Museum is located in California	0.0	Yes	RIGHT	359.86370000000534	LEFT	772.8413999998338	RIGHT	1063.0468999997902	RIGHT	1131.3801999999669	19.0	0.2	Probable_Truth	RIGHT	RIGHT	6	616.0537652742703	113	2021-02-17 15:23:55.299466
124	Computer	S210217	0.6666666666666666	2	1	2	1	0.5	1283.3333359	1000.000002	1650.0000033	2500.000005	Major	Wrong_doings	37	You have made counterfeit money	C2_53	0.65	Hard	I2_50	28	North Korea is more developed than South Korea	0.0	Yes	LEFT	255.65030000007027	LEFT	696.3100000002669	LEFT	912.029000000075	LEFT	1365.5401999999413	19.0	0.5	Probable_Lie	RIGHT	RIGHT	2	735.9258882543726	114	2021-02-17 15:24:18.267847
53	Self	S210217	0.5	1	2	2	1	0.1	1150.0000023	1150.0000023	2216.6666711000003	2350.0000047	Major	Wrong_doings	47	You have given directions to a lost tourist	C2_43	1.0	Easy	I2_48	8	Beer is an alcoholic drink	0.0	Yes	LEFT	776.7472999998972	RIGHT	201.4289000003373	RIGHT	1422.751000000062	RIGHT	2154.130200000054	18.899999999999995	0.1	Probable_Lie	LEFT	LEFT	5	962.2402999998484	115	2021-02-17 15:24:43.227491
95	Self	S210217	0.8333333333333334	2	1	2	1	0.8	1216.6666691	1216.6666691	1783.3333369	2350.0000047	Minor	Wrong_doings	35	You have helped others to pick up their belongings	C2_8	1.0	Hard	I2_43	13	R. Amundsen discovered the South Pole	1.0	No	RIGHT	559.4676999999137	RIGHT	434.262199999921	RIGHT	1926.6480000001136	LEFT	2476.5126000002056	19.7	0.8	Probable_Truth	LEFT	LEFT	1	684.1477999996641	116	2021-02-17 15:25:08.450494
50	Self	S210217	0.5	1	2	1	2	0.8	1283.3333359	1350.0000027	1500.000003	1650.0000033	Minor	Good_deeds	58	You have confessed to your mistake	C1_24	0.55	Easy	I1_53	35	There are 30 hours in a day	0.0555555555555556	No	LEFT	892.5282000000152	RIGHT	200.02199999998996	RIGHT	2903.8722000000234	LEFT	985.2915999999824	18.899999999999995	0.8	Probable_Lie	LEFT	LEFT	4	1960.562900000241	117	2021-02-17 15:25:33.747068
142	Computer	S210217	0.8333333333333334	2	1	2	1	0.6	1066.6666688	1150.0000023	2350.0000047	1500.000003	Minor	Good_deeds	60	You have said thank you when you have received help	C1_60	0.45	Hard	I2_39	11	The hardest bone in human body is the jawbone	0.0	Yes	LEFT	239.7197000000233	LEFT	839.0871000001425	RIGHT	1199.339499999951	RIGHT	1029.380299999957	18.899999999999995	0.6	Probable_Lie	RIGHT	RIGHT	1	610.8142473318311	118	2021-02-17 15:25:56.315584
123	Computer	S210217	0.6666666666666666	2	1	1	2	0.1	1216.6666691	1066.6666688	2066.6666708	2216.6666711000003	Major	Wrong_doings	13	You have helped your parents when asked to	C1_37	0.2	Easy	I1_15	15	Afghan Hound is the first cloned cat	0.944444444444444	No	LEFT	921.543400000246	LEFT	1226.4490000002295	RIGHT	1697.948500000166	LEFT	951.6953999996076	18.899999999999995	0.1	Probable_Truth	LEFT	RIGHT	4	964.5499661213717	119	2021-02-17 15:26:21.219818
30	Self	S210217	0.6666666666666666	2	1	2	1	0.1	1350.0000027	1283.3333359	2500.000005	1783.3333369	Major	Good_deeds	31	You have violated a traffic law	C1_31	0.75	Hard	I1_36	40	Animals are living things	0.0555555555555556	Yes	RIGHT	248.21939999992537	RIGHT	318.5333999999784	LEFT	832.3295999998663	RIGHT	802.6221000000078	19.0	0.1	Probable_Truth	RIGHT	RIGHT	6	579.7636000002058	120	2021-02-17 15:26:43.491949
108	Computer	S210217	0.5	2	1	2	1	0.1	1433.3333362	1216.6666691	2066.6666708	1783.3333369	Minor	Good_deeds	1	You have said sorry when you were rude	C2_52	0.0	Easy	I2_33	9	There are 7 days in a week	0.0	Yes	LEFT	223.2889000001705	LEFT	685.2051999999276	RIGHT	1255.6227000000035	RIGHT	1010.179700000208	19.0	0.1	Probable_Lie	RIGHT	RIGHT	3	999.2652689278376	121	2021-02-17 15:27:06.738434
82	Self	S210217	0.8333333333333334	1	2	1	2	0.5	1283.3333359	1216.6666691	1500.000003	1500.000003	Minor	Good_deeds	10	You have switched off appliances when not in use	C2_60	0.65	Hard	I2_25	1	It is 20th Century now	0.777777777777778	Yes	RIGHT	564.9988999998641	RIGHT	232.1833000000879	RIGHT	2588.773200000105	RIGHT	801.1822999997094	19.5	0.5	Probable_Truth	LEFT	LEFT	1	1204.5756999996229	122	2021-02-17 15:27:30.202077
8	Self	S210217	0.5	2	1	1	2	0.5	1433.3333362	1500.000003	1500.000003	1933.3333372	Major	Good_deeds	5	You have sorted your trash into recycling bin	C2_17	1.0	Hard	I1_9	27	The sun rises at night	0.722222222222222	Yes	LEFT	384.252600000309	RIGHT	819.662999999764	RIGHT	1461.9471000000883	LEFT	2447.847599999932	19.0	0.5	Probable_Lie	RIGHT	LEFT	4	1112.8492999996524	123	2021-02-17 15:27:55.371778
37	Self	S210217	0.8333333333333334	1	2	2	1	0.1	1066.6666688	1500.000003	2500.000005	1933.3333372	Minor	Good_deeds	38	You have sold illegal drugs	C1_39	0.0	Hard	I1_26	26	Teddy Roosevelt was the youngest US President	0.944444444444444	No	LEFT	1921.941699999934	LEFT	736.0895999995591	LEFT	1000.9936999999808	LEFT	1388.097700000344	19.0	0.1	Probable_Truth	LEFT	LEFT	1	681.0113999999885	124	2021-02-17 15:28:20.676820
65	Self	S210217	0.6666666666666666	1	2	1	2	0.4	1000.000002	1150.0000023	2066.6666708	1650.0000033	Major	Good_deeds	26	You have taken months off to volunteer	C2_24	0.0	Easy	I2_51	51	Arabi is the oldest surviving breed of horse	0.888888888888889	No	RIGHT	686.6673999998056	RIGHT	230.4911999999604	RIGHT	1510.385500000211	RIGHT	2518.852199999856	19.399999999999995	0.4	Probable_Truth	LEFT	LEFT	2	735.6462999996438	125	2021-02-17 15:28:44.803276
38	Self	S210217	0.8333333333333334	1	2	2	1	0.8	1433.3333362	1350.0000027	2216.6666711000003	1650.0000033	Major	Good_deeds	28	You have complimented others for good work	C1_50	0.85	Hard	I2_56	6	Singapore is a poor country	0.0	No	RIGHT	486.8557999998302	RIGHT	247.16170000010607	RIGHT	896.6878000001088	LEFT	799.4942000000265	20.2	0.8	Probable_Truth	RIGHT	RIGHT	3	415.1648000001842	126	2021-02-17 15:29:06.875565
94	Self	S210217	0.8333333333333334	2	1	2	1	0.4	1283.3333359	1433.3333362	1650.0000033	1500.000003	Minor	Wrong_doings	3	You have been physically hurt to protect others	C2_42	0.0	Easy	I2_45	11	There are 6 million animal species on Earth	0.777777777777778	Yes	RIGHT	439.9397000001954	RIGHT	1126.1343999999551	RIGHT	2480.085499999859	RIGHT	1383.4986000001663	20.599999999999994	0.4	Probable_Truth	RIGHT	RIGHT	6	643.5577000002013	127	2021-02-17 15:29:31.387012
51	Self	S210217	0.5	1	2	1	2	0.4	1350.0000027	1066.6666688	2066.6666708	2500.000005	Minor	Wrong_doings	25	You have volunteered for a disaster-related humanitarian mission	C2_25	0.05	Hard	I1_5	53	The Franco-Prussian War occurred in the 19th century	0.888888888888889	No	LEFT	909.4468999996934	RIGHT	217.1335000002728	RIGHT	1725.3641000002062	RIGHT	1519.8362999999515	20.2	0.4	Probable_Lie	RIGHT	LEFT	5	1196.2312999999083	128	2021-02-17 15:29:56.515050
81	Self	S210217	0.8333333333333334	1	2	1	2	0.1	1150.0000023	1000.000002	2500.000005	2500.000005	Minor	Wrong_doings	56	You have attended all lectures as a student	C1_12	0.0	Easy	I2_59	3	It is snowing outside now	0.0	No	RIGHT	773.0501000000913	RIGHT	207.116699999915	RIGHT	2565.1724999997896	LEFT	1168.0403999998816	20.3	0.1	Probable_Lie	LEFT	LEFT	4	709.1531000000941	129	2021-02-17 15:30:21.667315
111	Computer	S210217	0.5	2	1	2	1	0.5	1500.000003	1350.0000027	1500.000003	1650.0000033	Minor	Good_deeds	19	You have kidnapped someone	C1_5	0.0	Hard	I2_27	21	Mexico's National Day is September 16	0.0	Yes	RIGHT	262.7843000000212	LEFT	630.227499999819	LEFT	792.2514000001684	LEFT	1161.167199999909	20.3	0.5	Probable_Truth	RIGHT	RIGHT	4	517.3307245651487	130	2021-02-17 15:30:43.602823
21	Self	S210217	0.6666666666666666	1	2	2	1	0.7	1000.000002	1150.0000023	1500.000003	1500.000003	Minor	Wrong_doings	7	You have started a movement to support a cause	C1_36	0.0	Easy	I1_23	37	Earth's atmosphere extends up to 10,000km into space	0.0	Yes	RIGHT	749.0149999998721	RIGHT	103.29560000036508	RIGHT	4519.8113999999805	LEFT	1143.0559000000358	21.0	0.7	Probable_Truth	RIGHT	RIGHT	5	621.4174000001549	131	2021-02-17 15:31:08.467005
92	Self	S210217	0.8333333333333334	2	1	2	1	0.2	1350.0000027	1000.000002	1933.3333372	2216.6666711000003	Minor	Wrong_doings	8	You have given way to the handicapped	C1_53	1.0	Easy	I1_60	52	February has 30 days	0.0	Yes	LEFT	353.3853000003546	RIGHT	436.9927000002463	RIGHT	3791.923100000077	LEFT	1761.5866999999523	20.8	0.2	Probable_Lie	RIGHT	RIGHT	1	626.1015000000043	132	2021-02-17 15:31:34.506897
59	Self	S210217	0.5	2	1	1	2	0.8	1350.0000027	1500.000003	1500.000003	2216.6666711000003	Minor	Good_deeds	33	You have blackmailed others for money	C1_33	0.2	Easy	I2_3	53	Last day of the year is 30th December	0.833333333333333	Yes	RIGHT	223.5252000000401	RIGHT	708.1394000001637	LEFT	1049.8191000001498	LEFT	2040.4930999998212	21.6	0.8	Probable_Truth	RIGHT	LEFT	2	819.8474999999235	133	2021-02-17 15:31:58.490831
72	Self	S210217	0.6666666666666666	2	1	1	2	0.7	1216.6666691	1000.000002	2216.6666711000003	2066.6666708	Major	Good_deeds	31	You have drunk alcohol when you were underage	C2_19	0.7	Hard	I2_13	4	Summer is hotter than winter	0.888888888888889	Yes	RIGHT	135.78460000007908	RIGHT	600.1682000000983	LEFT	1510.668800000076	RIGHT	1391.4118000002418	22.3	0.7	Probable_Truth	RIGHT	RIGHT	5	618.1613999997353	134	2021-02-17 15:32:21.819866
88	Self	S210217	0.8333333333333334	2	1	1	2	0.6	1066.6666688	1500.000003	2500.000005	1650.0000033	Major	Good_deeds	53	You have been donating all your excess food to a food bank	C1_3	0.0	Easy	I1_25	25	Hot chocolate was created by the Mayan culture	0.0	No	RIGHT	112.75819999991654	RIGHT	509.19130000011137	RIGHT	1903.9323000001789	RIGHT	2080.1227000001745	22.9	0.6	Probable_Lie	LEFT	LEFT	2	516.2851999998566	135	2021-02-17 15:32:46.235093
128	Computer	S210217	0.8333333333333334	1	2	1	2	0.6	1066.6666688	1000.000002	1500.000003	2066.6666708	Major	Wrong_doings	50	You have watched an M18 movie when you were underage	C2_23	0.1	Easy	I2_42	17	Pyramid of Giza is 468 feet tall	0.0555555555555556	Yes	LEFT	835.2789999999004	LEFT	176.2202999998408	LEFT	1070.7784999999603	RIGHT	1016.5173000000324	22.9	0.6	Probable_Lie	RIGHT	LEFT	4	593.1591234949051	136	2021-02-17 15:33:08.138167
41	Self	S210217	0.8333333333333334	2	1	1	2	0.5	1350.0000027	1066.6666688	2500.000005	1933.3333372	Minor	Good_deeds	9	You have engaged in underage smoking	C1_9	0.0	Hard	I1_58	24	Statute of Liberty is in New York	0.666666666666667	No	RIGHT	536.9049000000814	RIGHT	1229.2750999999953	LEFT	1543.4322000000975	RIGHT	1974.637199999961	23.4	0.5	Probable_Truth	LEFT	LEFT	1	610.6655999997201	137	2021-02-17 15:33:33.458659
10	Self	S210217	0.5	2	1	1	2	0.8	1066.6666688	1000.000002	2216.6666711000003	1500.000003	Minor	Wrong_doings	43	You have been sued	C2_1	0.0	Easy	I2_21	2	Mageirocophobia is a fear of deathly disease	0.0	No	LEFT	384.7350999999435	RIGHT	1070.207499999924	LEFT	1485.99779999995	RIGHT	1352.0637999999965	22.6	0.8	Probable_Lie	RIGHT	LEFT	6	863.843800000268	138	2021-02-17 15:33:56.978912
129	Computer	S210217	0.8333333333333334	1	2	1	2	0.3	1216.6666691	1066.6666688	1783.3333369	1933.3333372	Minor	Good_deeds	11	You have stopped using products tested on animals	C1_27	0.65	Easy	I2_31	57	Malay is one of the races in Singapore	0.722222222222222	No	LEFT	934.5531000003576	LEFT	320.76340000003256	RIGHT	3133.849899999859	RIGHT	1055.9478999998646	22.6	0.3	Probable_Lie	RIGHT	RIGHT	1	774.1859455059766	139	2021-02-17 15:34:21.762844
66	Self	S210217	0.6666666666666666	1	2	1	2	0.7	1433.3333362	1066.6666688	1783.3333369	1933.3333372	Major	Wrong_doings	39	You have been arrested	C1_40	0.95	Hard	I1_14	14	Obama is the USA president now	0.0	Yes	LEFT	762.0139000000563	RIGHT	144.03900000024805	LEFT	773.0165000002671	LEFT	1296.4028000001235	21.9	0.7	Probable_Lie	RIGHT	RIGHT	2	711.3616999999977	140	2021-02-17 15:34:44.234855
55	Self	S210217	0.5	1	2	2	1	0.6	1216.6666691	1283.3333359	2500.000005	1783.3333369	Major	Wrong_doings	24	You have sign up to sponsor a needy child	C2_45	0.05	Easy	I2_55	48	Fibers in oranges can be used to make fabric	1.0	Yes	LEFT	606.5760000001319	RIGHT	527.247399999851	RIGHT	3503.387799999928	LEFT	2660.3494000000865	21.3	0.6	Probable_Lie	RIGHT	LEFT	5	1027.57100000008	141	2021-02-17 15:35:11.914011
137	Computer	S210217	0.8333333333333334	2	1	1	2	0.1	1433.3333362	1066.6666688	2066.6666708	2066.6666708	Minor	Good_deeds	9	You have engaged in underage smoking	C1_9	0.0	Hard	I1_58	24	Statute of Liberty is in New York	0.666666666666667	No	LEFT	207.3851999998624	LEFT	705.006400000002	LEFT	1502.947899999981	RIGHT	736.1297000002196	21.3	0.1	Probable_Lie	RIGHT	LEFT	4	815.6245410059535	142	2021-02-17 15:35:35.082435
42	Self	S210217	0.8333333333333334	2	1	1	2	0.2	1216.6666691	1150.0000023	2066.6666708	1650.0000033	Major	Wrong_doings	14	You have cursed at your loved ones	C2_16	0.0	Easy	I1_24	39	Chickens lay eggs	0.0	Yes	RIGHT	217.1787000002041	RIGHT	389.35330000003887	LEFT	1441.6003999999705	RIGHT	1792.094100000213	21.5	0.2	Probable_Lie	LEFT	LEFT	3	708.5496999998213	143	2021-02-17 15:35:58.290417
