Participant	Task	Stimulus_Side	Response	RT	ITI	Previous_Response	Previous_RT	Trial_Onset	Trial_End	Trial_Order	Duration	Conflict	Cue_Response	Cue_Response_RT	Stop_Signal	Stop_Signal_RT
S200311	Conflict_Resolution	RIGHT	RIGHT	850.618900000086	1033.3333354	n/a	n/a	2020-03-11 13:10:31.095466	2020-03-11 13:10:32.154087	1	6.40810283333333	True	n/a	n/a	n/a	n/a
S200311	Conflict_Resolution	LEFT	LEFT	393.460300000015	1050.0000021	n/a	n/a	2020-03-11 13:10:33.224804	2020-03-11 13:10:33.826480	2	6.40810283333333	False	n/a	n/a	n/a	n/a
S200311	Conflict_Resolution	RIGHT	RIGHT	558.187699999962	583.3333345	n/a	n/a	2020-03-11 13:10:34.427873	2020-03-11 13:10:35.194859	3	6.40810283333333	True	n/a	n/a	n/a	n/a
S200311	Conflict_Resolution	LEFT	LEFT	392.250600000011	1266.6666692	n/a	n/a	2020-03-11 13:10:36.482098	2020-03-11 13:10:37.083067	4	6.40810283333333	False	n/a	n/a	n/a	n/a
S200311	Conflict_Resolution	RIGHT	RIGHT	527.951900000062	1050.0000021	n/a	n/a	2020-03-11 13:10:38.154028	2020-03-11 13:10:38.889478	5	6.40810283333333	True	n/a	n/a	n/a	n/a
S200311	Conflict_Resolution	RIGHT	RIGHT	443.478700000014	1216.6666691	n/a	n/a	2020-03-11 13:10:40.126296	2020-03-11 13:10:40.778162	6	6.40810283333333	False	n/a	n/a	n/a	n/a
S200311	Conflict_Resolution	RIGHT	LEFT	434.954400000038	633.3333346	n/a	n/a	2020-03-11 13:10:41.431417	2020-03-11 13:10:42.074510	7	6.40810283333333	True	n/a	n/a	n/a	n/a
S200311	Conflict_Resolution	RIGHT	RIGHT	507.393499999921	783.3333349	n/a	n/a	2020-03-11 13:10:42.878382	2020-03-11 13:10:43.593362	8	6.40810283333333	True	n/a	n/a	n/a	n/a
S200311	Conflict_Resolution	RIGHT	RIGHT	357.814699999949	1366.6666694	n/a	n/a	2020-03-11 13:10:44.980563	2020-03-11 13:10:45.546676	9	6.40810283333333	False	n/a	n/a	n/a	n/a
S200311	Conflict_Resolution	LEFT	LEFT	369.281199999932	850.0000017	n/a	n/a	2020-03-11 13:10:46.424667	2020-03-11 13:10:47.003711	10	6.40810283333333	False	n/a	n/a	n/a	n/a
S200311	Conflict_Resolution	LEFT	LEFT	671.872200000053	1266.6666692	n/a	n/a	2020-03-11 13:10:48.290066	2020-03-11 13:10:49.171706	11	6.40810283333333	True	n/a	n/a	n/a	n/a
S200311	Conflict_Resolution	LEFT	RIGHT	386.533200000031	1016.6666687	n/a	n/a	2020-03-11 13:10:50.207699	2020-03-11 13:10:50.803697	12	6.40810283333333	True	n/a	n/a	n/a	n/a
S200311	Conflict_Resolution	LEFT	LEFT	539.792799999987	783.3333349	n/a	n/a	2020-03-11 13:10:51.605771	2020-03-11 13:10:52.354764	13	6.40810283333333	True	n/a	n/a	n/a	n/a
S200311	Conflict_Resolution	LEFT	LEFT	410.622400000079	633.3333346	n/a	n/a	2020-03-11 13:10:53.007519	2020-03-11 13:10:53.625407	14	6.40810283333333	False	n/a	n/a	n/a	n/a
S200311	Conflict_Resolution	LEFT	LEFT	529.534799999965	816.6666683	n/a	n/a	2020-03-11 13:10:54.463812	2020-03-11 13:10:55.201476	15	6.40810283333333	True	n/a	n/a	n/a	n/a
S200311	Conflict_Resolution	LEFT	LEFT	415.180599999985	733.3333348	n/a	n/a	2020-03-11 13:10:55.955154	2020-03-11 13:10:56.577533	16	6.40810283333333	True	n/a	n/a	n/a	n/a
S200311	Conflict_Resolution	RIGHT	RIGHT	395.640599999979	1433.3333362	n/a	n/a	2020-03-11 13:10:58.030712	2020-03-11 13:10:58.634776	17	6.40810283333333	False	n/a	n/a	n/a	n/a
S200311	Conflict_Resolution	LEFT	LEFT	489.423999999985	633.3333346	n/a	n/a	2020-03-11 13:10:59.288693	2020-03-11 13:10:59.985956	18	6.40810283333333	True	n/a	n/a	n/a	n/a
S200311	Conflict_Resolution	LEFT	RIGHT	389.905399999975	1316.6666693	n/a	n/a	2020-03-11 13:11:01.323665	2020-03-11 13:11:01.922826	19	6.40810283333333	True	n/a	n/a	n/a	n/a
S200311	Conflict_Resolution	LEFT	LEFT	392.85730000006	666.666668	n/a	n/a	2020-03-11 13:11:02.609567	2020-03-11 13:11:03.209874	20	6.40810283333333	False	n/a	n/a	n/a	n/a
S200311	Conflict_Resolution	LEFT	LEFT	586.903399999983	1450.0000029	n/a	n/a	2020-03-11 13:11:04.679296	2020-03-11 13:11:05.474240	21	6.40810283333333	True	n/a	n/a	n/a	n/a
S200311	Conflict_Resolution	RIGHT	RIGHT	531.852000000072	983.3333353	n/a	n/a	2020-03-11 13:11:06.478207	2020-03-11 13:11:07.218444	22	6.40810283333333	True	n/a	n/a	n/a	n/a
S200311	Conflict_Resolution	RIGHT	RIGHT	438.570000000027	750.0000015	n/a	n/a	2020-03-11 13:11:07.987539	2020-03-11 13:11:08.634345	23	6.40810283333333	False	n/a	n/a	n/a	n/a
S200311	Conflict_Resolution	RIGHT	RIGHT	610.747599999968	600.0000012	n/a	n/a	2020-03-11 13:11:09.255154	2020-03-11 13:11:10.075012	24	6.40810283333333	True	n/a	n/a	n/a	n/a
S200311	Conflict_Resolution	RIGHT	RIGHT	457.227800000055	633.3333346	n/a	n/a	2020-03-11 13:11:10.728860	2020-03-11 13:11:11.394954	25	6.40810283333333	False	n/a	n/a	n/a	n/a
S200311	Conflict_Resolution	LEFT	LEFT	475.192799999945	1400.0000028	n/a	n/a	2020-03-11 13:11:12.814420	2020-03-11 13:11:13.497568	26	6.40810283333333	False	n/a	n/a	n/a	n/a
S200311	Conflict_Resolution	LEFT	LEFT	708.547500000009	583.3333345	n/a	n/a	2020-03-11 13:11:14.101598	2020-03-11 13:11:15.017265	27	6.40810283333333	True	n/a	n/a	n/a	n/a
S200311	Conflict_Resolution	RIGHT	RIGHT	587.538300000006	1266.6666692	n/a	n/a	2020-03-11 13:11:16.301894	2020-03-11 13:11:17.097808	28	6.40810283333333	True	n/a	n/a	n/a	n/a
S200311	Conflict_Resolution	LEFT	LEFT	591.227000000003	533.3333344	n/a	n/a	2020-03-11 13:11:17.650507	2020-03-11 13:11:18.450740	29	6.40810283333333	True	n/a	n/a	n/a	n/a
S200311	Conflict_Resolution	RIGHT	RIGHT	437.447499999962	1083.3333355	n/a	n/a	2020-03-11 13:11:19.556447	2020-03-11 13:11:20.202038	30	6.40810283333333	False	n/a	n/a	n/a	n/a
S200311	Conflict_Resolution	LEFT	LEFT	404.895499999952	783.3333349	n/a	n/a	2020-03-11 13:11:21.005487	2020-03-11 13:11:21.617319	31	6.40810283333333	False	n/a	n/a	n/a	n/a
S200311	Conflict_Resolution	LEFT	RIGHT	452.716399999986	1000.000002	n/a	n/a	2020-03-11 13:11:22.637223	2020-03-11 13:11:23.297496	32	6.40810283333333	True	n/a	n/a	n/a	n/a
S200311	Conflict_Resolution	LEFT	LEFT	466.188299999999	850.0000017	n/a	n/a	2020-03-11 13:11:24.168066	2020-03-11 13:11:24.842485	33	6.40810283333333	True	n/a	n/a	n/a	n/a
S200311	Conflict_Resolution	RIGHT	RIGHT	508.972599999993	600.0000012	n/a	n/a	2020-03-11 13:11:25.461100	2020-03-11 13:11:26.177866	34	6.40810283333333	False	n/a	n/a	n/a	n/a
S200311	Conflict_Resolution	LEFT	LEFT	615.248699999938	716.6666681	n/a	n/a	2020-03-11 13:11:26.915822	2020-03-11 13:11:27.740991	35	6.40810283333333	True	n/a	n/a	n/a	n/a
S200311	Conflict_Resolution	RIGHT	RIGHT	467.158899999959	983.3333353	n/a	n/a	2020-03-11 13:11:28.743114	2020-03-11 13:11:29.417455	36	6.40810283333333	False	n/a	n/a	n/a	n/a
S200311	Conflict_Resolution	RIGHT	RIGHT	472.300700000005	1316.6666693	n/a	n/a	2020-03-11 13:11:30.754131	2020-03-11 13:11:31.434577	37	6.40810283333333	False	n/a	n/a	n/a	n/a
S200311	Conflict_Resolution	LEFT	LEFT	500.2882	1416.6666695	n/a	n/a	2020-03-11 13:11:32.869136	2020-03-11 13:11:33.577344	38	6.40810283333333	True	n/a	n/a	n/a	n/a
S200311	Conflict_Resolution	LEFT	LEFT	494.729799999959	1350.0000027	n/a	n/a	2020-03-11 13:11:34.947381	2020-03-11 13:11:35.649417	39	6.40810283333333	False	n/a	n/a	n/a	n/a
S200311	Conflict_Resolution	RIGHT	RIGHT	581.012299999998	1433.3333362	n/a	n/a	2020-03-11 13:11:37.100862	2020-03-11 13:11:37.889180	40	6.40810283333333	True	n/a	n/a	n/a	n/a
S200311	Conflict_Resolution	LEFT	LEFT	429.058299999951	1200.0000024	n/a	n/a	2020-03-11 13:11:39.108859	2020-03-11 13:11:39.745709	41	6.40810283333333	False	n/a	n/a	n/a	n/a
S200311	Conflict_Resolution	RIGHT	RIGHT	607.294000000024	683.3333347	n/a	n/a	2020-03-11 13:11:40.450578	2020-03-11 13:11:41.266500	42	6.40810283333333	True	n/a	n/a	n/a	n/a
S200311	Conflict_Resolution	RIGHT	RIGHT	765.310599999907	1150.0000023	n/a	n/a	2020-03-11 13:11:42.436715	2020-03-11 13:11:43.410713	43	6.40810283333333	True	n/a	n/a	n/a	n/a
S200311	Conflict_Resolution	LEFT	LEFT	490.064800000027	1016.6666687	n/a	n/a	2020-03-11 13:11:44.448225	2020-03-11 13:11:45.145514	44	6.40810283333333	False	n/a	n/a	n/a	n/a
S200311	Conflict_Resolution	RIGHT	RIGHT	708.449500000029	1416.6666695	n/a	n/a	2020-03-11 13:11:46.581795	2020-03-11 13:11:47.498897	45	6.40810283333333	True	n/a	n/a	n/a	n/a
S200311	Conflict_Resolution	LEFT	LEFT	667.191899999921	616.6666679	n/a	n/a	2020-03-11 13:11:48.135196	2020-03-11 13:11:49.011801	46	6.40810283333333	True	n/a	n/a	n/a	n/a
S200311	Conflict_Resolution	RIGHT	RIGHT	430.768299999954	1483.3333363	n/a	n/a	2020-03-11 13:11:50.514843	2020-03-11 13:11:51.153441	47	6.40810283333333	False	n/a	n/a	n/a	n/a
S200311	Conflict_Resolution	LEFT	LEFT	507.213699999966	1216.6666691	n/a	n/a	2020-03-11 13:11:52.390463	2020-03-11 13:11:53.106616	48	6.40810283333333	False	n/a	n/a	n/a	n/a
S200311	Conflict_Resolution	RIGHT	RIGHT	539.302000000021	800.0000016	n/a	n/a	2020-03-11 13:11:53.926670	2020-03-11 13:11:54.674239	49	6.40810283333333	True	n/a	n/a	n/a	n/a
S200311	Conflict_Resolution	LEFT	LEFT	599.642700000004	916.6666685	n/a	n/a	2020-03-11 13:11:55.610608	2020-03-11 13:11:56.418916	50	6.40810283333333	True	n/a	n/a	n/a	n/a
S200311	Conflict_Resolution	RIGHT	RIGHT	710.03989999997	1316.6666693	n/a	n/a	2020-03-11 13:11:57.755625	2020-03-11 13:11:58.674863	51	6.40810283333333	True	n/a	n/a	n/a	n/a
S200311	Conflict_Resolution	LEFT	LEFT	476.0311	616.6666679	RIGHT	-453.728	2020-03-11 13:11:59.310096	2020-03-11 13:11:59.994113	52	6.40810283333333	False	n/a	n/a	n/a	n/a
S200311	Conflict_Resolution	RIGHT	RIGHT	483.713200000011	783.3333349	n/a	n/a	2020-03-11 13:12:00.798080	2020-03-11 13:12:01.489187	53	6.40810283333333	False	n/a	n/a	n/a	n/a
S200311	Conflict_Resolution	RIGHT	RIGHT	426.837400000068	1466.6666696	n/a	n/a	2020-03-11 13:12:02.975662	2020-03-11 13:12:03.609639	54	6.40810283333333	False	n/a	n/a	n/a	n/a
S200311	Conflict_Resolution	RIGHT	RIGHT	456.574699999919	683.3333347	n/a	n/a	2020-03-11 13:12:04.312852	2020-03-11 13:12:04.977269	55	6.40810283333333	False	n/a	n/a	n/a	n/a
S200311	Conflict_Resolution	RIGHT	RIGHT	559.294700000009	1100.0000022	n/a	n/a	2020-03-11 13:12:06.099102	2020-03-11 13:12:06.865198	56	6.40810283333333	False	n/a	n/a	n/a	n/a
S200311	Conflict_Resolution	RIGHT	RIGHT	711.09110000009	550.0000011	n/a	n/a	2020-03-11 13:12:07.434742	2020-03-11 13:12:08.354334	57	6.40810283333333	True	n/a	n/a	n/a	n/a
S200311	Conflict_Resolution	RIGHT	RIGHT	733.666599999992	950.0000019	n/a	n/a	2020-03-11 13:12:09.323827	2020-03-11 13:12:10.265673	58	6.40810283333333	False	n/a	n/a	n/a	n/a
S200311	Conflict_Resolution	LEFT	RIGHT	877.819899999963	1350.0000027	n/a	n/a	2020-03-11 13:12:11.635804	2020-03-11 13:12:12.723626	59	6.40810283333333	True	n/a	n/a	n/a	n/a
S200311	Conflict_Resolution	LEFT	LEFT	595.042599999942	1400.0000028	n/a	n/a	2020-03-11 13:12:14.142953	2020-03-11 13:12:14.945666	60	6.40810283333333	True	n/a	n/a	n/a	n/a
S200311	Conflict_Resolution	RIGHT	RIGHT	567.096099999958	1083.3333355	n/a	n/a	2020-03-11 13:12:16.050231	2020-03-11 13:12:16.825111	61	6.40810283333333	True	n/a	n/a	n/a	n/a
S200311	Conflict_Resolution	LEFT	LEFT	482.072700000003	716.6666681	n/a	n/a	2020-03-11 13:12:17.559420	2020-03-11 13:12:18.250572	62	6.40810283333333	False	n/a	n/a	n/a	n/a
S200311	Conflict_Resolution	RIGHT	RIGHT	682.351600000061	1233.3333358	n/a	n/a	2020-03-11 13:12:19.503101	2020-03-11 13:12:20.393842	63	6.40810283333333	True	n/a	n/a	n/a	n/a
S200311	Conflict_Resolution	LEFT	LEFT	570.250600000008	1050.0000021	n/a	n/a	2020-03-11 13:12:21.463951	2020-03-11 13:12:22.241950	64	6.40810283333333	True	n/a	n/a	n/a	n/a
S200311	Conflict_Resolution	RIGHT	RIGHT	648.581200000081	1283.3333359	n/a	n/a	2020-03-11 13:12:23.545727	2020-03-11 13:12:24.401326	65	6.40810283333333	True	n/a	n/a	n/a	n/a
S200311	Conflict_Resolution	RIGHT	RIGHT	537.12859999996	533.3333344	n/a	n/a	2020-03-11 13:12:24.953043	2020-03-11 13:12:25.699630	66	6.40810283333333	False	n/a	n/a	n/a	n/a
S200311	Conflict_Resolution	RIGHT	RIGHT	426.172099999917	850.0000017	n/a	n/a	2020-03-11 13:12:26.567405	2020-03-11 13:12:27.201532	67	6.40810283333333	False	n/a	n/a	n/a	n/a
S200311	Conflict_Resolution	LEFT	LEFT	528.772300000014	866.6666684	n/a	n/a	2020-03-11 13:12:28.088856	2020-03-11 13:12:28.827921	68	6.40810283333333	True	n/a	n/a	n/a	n/a
S200311	Conflict_Resolution	RIGHT	RIGHT	608.051800000112	883.3333351	n/a	n/a	2020-03-11 13:12:29.729324	2020-03-11 13:12:30.545458	69	6.40810283333333	True	n/a	n/a	n/a	n/a
S200311	Conflict_Resolution	LEFT	LEFT	458.659799999964	1500.000003	n/a	n/a	2020-03-11 13:12:32.063736	2020-03-11 13:12:32.730790	70	6.40810283333333	False	n/a	n/a	n/a	n/a
S200311	Conflict_Resolution	LEFT	LEFT	810.859800000003	1216.6666691	n/a	n/a	2020-03-11 13:12:33.966701	2020-03-11 13:12:34.985636	71	6.40810283333333	True	n/a	n/a	n/a	n/a
S200311	Conflict_Resolution	LEFT	LEFT	544.938300000013	1100.0000022	n/a	n/a	2020-03-11 13:12:36.105435	2020-03-11 13:12:36.858435	72	6.40810283333333	True	n/a	n/a	n/a	n/a
S200311	Conflict_Resolution	RIGHT	RIGHT	685.330199999953	733.3333348	n/a	n/a	2020-03-11 13:12:37.612506	2020-03-11 13:12:38.506451	73	6.40810283333333	False	n/a	n/a	n/a	n/a
S200311	Conflict_Resolution	RIGHT	RIGHT	684.335300000043	1133.3333356	n/a	n/a	2020-03-11 13:12:39.661478	2020-03-11 13:12:40.553734	74	6.40810283333333	True	n/a	n/a	n/a	n/a
S200311	Conflict_Resolution	LEFT	LEFT	598.338000000012	533.3333344	n/a	n/a	2020-03-11 13:12:41.107486	2020-03-11 13:12:41.913098	75	6.40810283333333	False	n/a	n/a	n/a	n/a
S200311	Conflict_Resolution	LEFT	LEFT	669.319299999984	1200.0000024	n/a	n/a	2020-03-11 13:12:43.132935	2020-03-11 13:12:44.011566	76	6.40810283333333	True	n/a	n/a	n/a	n/a
S200311	Conflict_Resolution	RIGHT	RIGHT	692.064899999991	750.0000015	n/a	n/a	2020-03-11 13:12:44.781463	2020-03-11 13:12:45.681977	77	6.40810283333333	True	n/a	n/a	n/a	n/a
S200311	Conflict_Resolution	LEFT	LEFT	564.412599999969	950.0000019	n/a	n/a	2020-03-11 13:12:46.653009	2020-03-11 13:12:47.426492	78	6.40810283333333	True	n/a	n/a	n/a	n/a
S200311	Conflict_Resolution	RIGHT	RIGHT	506.829899999957	1050.0000021	n/a	n/a	2020-03-11 13:12:48.495035	2020-03-11 13:12:49.210129	79	6.40810283333333	False	n/a	n/a	n/a	n/a
S200311	Conflict_Resolution	RIGHT	LEFT	429.465499999992	950.0000019	n/a	n/a	2020-03-11 13:12:50.180560	2020-03-11 13:12:50.818924	80	6.40810283333333	True	n/a	n/a	n/a	n/a
S200311	Conflict_Resolution	RIGHT	RIGHT	532.376799999952	933.3333352	n/a	n/a	2020-03-11 13:12:51.773614	2020-03-11 13:12:52.513842	81	6.40810283333333	False	n/a	n/a	n/a	n/a
S200311	Conflict_Resolution	LEFT	LEFT	494.078500000001	1316.6666693	n/a	n/a	2020-03-11 13:12:53.851583	2020-03-11 13:12:54.554321	82	6.40810283333333	False	n/a	n/a	n/a	n/a
S200311	Conflict_Resolution	LEFT	LEFT	489.645600000017	683.3333347	n/a	n/a	2020-03-11 13:12:55.255869	2020-03-11 13:12:55.953782	83	6.40810283333333	False	n/a	n/a	n/a	n/a
S200311	Conflict_Resolution	LEFT	LEFT	647.358900000086	1366.6666694	n/a	n/a	2020-03-11 13:12:57.338579	2020-03-11 13:12:58.193134	84	6.40810283333333	True	n/a	n/a	n/a	n/a
S200311	Conflict_Resolution	RIGHT	RIGHT	528.791200000001	883.3333351	n/a	n/a	2020-03-11 13:12:59.097154	2020-03-11 13:12:59.833343	85	6.40810283333333	False	n/a	n/a	n/a	n/a
S200311	Conflict_Resolution	RIGHT	RIGHT	677.847400000019	1366.6666694	n/a	n/a	2020-03-11 13:13:01.220589	2020-03-11 13:13:02.107351	86	6.40810283333333	True	n/a	n/a	n/a	n/a
S200311	Conflict_Resolution	LEFT	LEFT	573.382199999969	733.3333348	n/a	n/a	2020-03-11 13:13:02.860822	2020-03-11 13:13:03.642827	87	6.40810283333333	False	n/a	n/a	n/a	n/a
S200311	Conflict_Resolution	LEFT	LEFT	509.057899999902	1166.666669	n/a	n/a	2020-03-11 13:13:04.828955	2020-03-11 13:13:05.546005	88	6.40810283333333	False	n/a	n/a	n/a	n/a
S200311	Conflict_Resolution	LEFT	LEFT	718.49050000003	900.0000018	n/a	n/a	2020-03-11 13:13:06.466924	2020-03-11 13:13:07.394039	89	6.40810283333333	False	n/a	n/a	n/a	n/a
S200311	Conflict_Resolution	LEFT	LEFT	548.524499999985	966.6666686	n/a	n/a	2020-03-11 13:13:08.381639	2020-03-11 13:13:09.137202	90	6.40810283333333	False	n/a	n/a	n/a	n/a
S200311	Conflict_Resolution	RIGHT	RIGHT	536.414599999944	1100.0000022	n/a	n/a	2020-03-11 13:13:10.257316	2020-03-11 13:13:11.002807	91	6.40810283333333	True	n/a	n/a	n/a	n/a
S200311	Conflict_Resolution	LEFT	LEFT	545.642699999917	866.6666684	n/a	n/a	2020-03-11 13:13:11.887638	2020-03-11 13:13:12.641756	92	6.40810283333333	False	n/a	n/a	n/a	n/a
S200311	Conflict_Resolution	LEFT	LEFT	537.839500000018	1066.6666688	n/a	n/a	2020-03-11 13:13:13.727514	2020-03-11 13:13:14.474526	93	6.40810283333333	False	n/a	n/a	n/a	n/a
S200311	Conflict_Resolution	RIGHT	RIGHT	603.169699999853	850.0000017	n/a	n/a	2020-03-11 13:13:15.342245	2020-03-11 13:13:16.154580	94	6.40810283333333	True	n/a	n/a	n/a	n/a
S200311	Conflict_Resolution	LEFT	LEFT	799.211499999956	683.3333347	n/a	n/a	2020-03-11 13:13:16.858907	2020-03-11 13:13:17.866898	95	6.40810283333333	True	n/a	n/a	n/a	n/a
S200311	Conflict_Resolution	RIGHT	RIGHT	671.735500000068	1466.6666696	n/a	n/a	2020-03-11 13:13:19.354528	2020-03-11 13:13:20.234984	96	6.40810283333333	True	n/a	n/a	n/a	n/a
S200311	Conflict_Resolution	RIGHT	RIGHT	728.290100000095	650.0000013	n/a	n/a	2020-03-11 13:13:20.906072	2020-03-11 13:13:21.842708	97	6.40810283333333	True	n/a	n/a	n/a	n/a
S200311	Conflict_Resolution	RIGHT	RIGHT	582.922800000006	1150.0000023	n/a	n/a	2020-03-11 13:13:23.011203	2020-03-11 13:13:23.803576	98	6.40810283333333	False	n/a	n/a	n/a	n/a
S200311	Conflict_Resolution	LEFT	LEFT	624.737999999979	1250.0000025	n/a	n/a	2020-03-11 13:13:25.073268	2020-03-11 13:13:25.905889	99	6.40810283333333	True	n/a	n/a	n/a	n/a
S200311	Conflict_Resolution	RIGHT	RIGHT	635.762300000124	1216.6666691	n/a	n/a	2020-03-11 13:13:27.142077	2020-03-11 13:13:27.987868	100	6.40810283333333	True	n/a	n/a	n/a	n/a
S200311	Conflict_Resolution	LEFT	LEFT	484.803699999929	966.6666686	n/a	n/a	2020-03-11 13:13:28.973052	2020-03-11 13:13:29.665683	101	6.40810283333333	True	n/a	n/a	n/a	n/a
S200311	Conflict_Resolution	RIGHT	RIGHT	615.04049999985	733.3333348	n/a	n/a	2020-03-11 13:13:30.418990	2020-03-11 13:13:31.242206	102	6.40810283333333	True	n/a	n/a	n/a	n/a
S200311	Conflict_Resolution	LEFT	LEFT	432.354399999895	1100.0000022	n/a	n/a	2020-03-11 13:13:32.361314	2020-03-11 13:13:33.004658	103	6.40810283333333	False	n/a	n/a	n/a	n/a
S200311	Conflict_Resolution	LEFT	LEFT	541.795000000093	1300.0000026	n/a	n/a	2020-03-11 13:13:34.324338	2020-03-11 13:13:35.074331	104	6.40810283333333	False	n/a	n/a	n/a	n/a
S200311	Conflict_Resolution	RIGHT	RIGHT	571.724000000131	1383.3333361	n/a	n/a	2020-03-11 13:13:36.478093	2020-03-11 13:13:37.258749	105	6.40810283333333	True	n/a	n/a	n/a	n/a
S200311	Conflict_Resolution	LEFT	LEFT	425.088199999891	1450.0000029	n/a	n/a	2020-03-11 13:13:38.728710	2020-03-11 13:13:39.363037	106	6.40810283333333	False	n/a	n/a	n/a	n/a
S200311	Conflict_Resolution	RIGHT	RIGHT	505.231500000036	833.333335	n/a	n/a	2020-03-11 13:13:40.216828	2020-03-11 13:13:40.929308	107	6.40810283333333	False	n/a	n/a	n/a	n/a
S200311	Conflict_Resolution	LEFT	LEFT	466.134399999873	1466.6666696	n/a	n/a	2020-03-11 13:13:42.415828	2020-03-11 13:13:43.090651	108	6.40810283333333	False	n/a	n/a	n/a	n/a
S200311	Conflict_Resolution	RIGHT	RIGHT	442.39349999998	1233.3333358	n/a	n/a	2020-03-11 13:13:44.343831	2020-03-11 13:13:44.993113	109	6.40810283333333	False	n/a	n/a	n/a	n/a
S200311	Conflict_Resolution	RIGHT	RIGHT	599.926399999958	933.3333352	n/a	n/a	2020-03-11 13:13:45.945414	2020-03-11 13:13:46.753789	110	6.40810283333333	True	n/a	n/a	n/a	n/a
S200311	Conflict_Resolution	RIGHT	RIGHT	452.881899999966	1033.3333354	n/a	n/a	2020-03-11 13:13:47.804462	2020-03-11 13:13:48.467637	111	6.40810283333333	False	n/a	n/a	n/a	n/a
S200311	Conflict_Resolution	RIGHT	RIGHT	493.36570000014	550.0000011	n/a	n/a	2020-03-11 13:13:49.037223	2020-03-11 13:13:49.738336	112	6.40810283333333	False	n/a	n/a	n/a	n/a
S200311	Conflict_Resolution	LEFT	LEFT	469.08099999996	1150.0000023	n/a	n/a	2020-03-11 13:13:50.909100	2020-03-11 13:13:51.586287	113	6.40810283333333	False	n/a	n/a	n/a	n/a
S200311	Conflict_Resolution	RIGHT	RIGHT	504.081700000143	500.000001	n/a	n/a	2020-03-11 13:13:52.105684	2020-03-11 13:13:52.818058	114	6.40810283333333	False	n/a	n/a	n/a	n/a
S200311	Conflict_Resolution	RIGHT	RIGHT	603.094299999839	1000.000002	n/a	n/a	2020-03-11 13:13:53.839008	2020-03-11 13:13:54.649110	115	6.40810283333333	True	n/a	n/a	n/a	n/a
S200311	Conflict_Resolution	RIGHT	RIGHT	734.637499999963	533.3333344	n/a	n/a	2020-03-11 13:13:55.203627	2020-03-11 13:13:56.145793	116	6.40810283333333	True	n/a	n/a	n/a	n/a
S200311	Conflict_Resolution	LEFT	LEFT	574.111399999992	766.6666682	n/a	n/a	2020-03-11 13:13:56.931660	2020-03-11 13:13:57.713872	117	6.40810283333333	False	n/a	n/a	n/a	n/a
S200311	Conflict_Resolution	RIGHT	RIGHT	431.105399999979	1333.333336	n/a	n/a	2020-03-11 13:13:59.066388	2020-03-11 13:13:59.705341	118	6.40810283333333	False	n/a	n/a	n/a	n/a
S200311	Conflict_Resolution	RIGHT	RIGHT	601.579800000081	900.0000018	n/a	n/a	2020-03-11 13:14:00.624495	2020-03-11 13:14:01.433374	119	6.40810283333333	True	n/a	n/a	n/a	n/a
S200311	Conflict_Resolution	LEFT	LEFT	649.812200000042	1066.6666688	n/a	n/a	2020-03-11 13:14:02.520526	2020-03-11 13:14:03.377431	120	6.40810283333333	True	n/a	n/a	n/a	n/a
S200311	Conflict_Resolution	LEFT	LEFT	661.632399999917	583.3333345	n/a	n/a	2020-03-11 13:14:03.979987	2020-03-11 13:14:04.849227	121	6.40810283333333	False	n/a	n/a	n/a	n/a
S200311	Conflict_Resolution	LEFT	LEFT	717.273400000067	1416.6666695	n/a	n/a	2020-03-11 13:14:06.284305	2020-03-11 13:14:07.209966	122	6.40810283333333	False	n/a	n/a	n/a	n/a
S200311	Conflict_Resolution	RIGHT	RIGHT	632.227999999941	1283.3333359	n/a	n/a	2020-03-11 13:14:08.513797	2020-03-11 13:14:09.354543	123	6.40810283333333	False	n/a	n/a	n/a	n/a
S200311	Conflict_Resolution	LEFT	LEFT	717.174099999966	766.6666682	n/a	n/a	2020-03-11 13:14:10.140238	2020-03-11 13:14:11.065803	124	6.40810283333333	True	n/a	n/a	n/a	n/a
S200311	Conflict_Resolution	RIGHT	RIGHT	544.048499999917	900.0000018	n/a	n/a	2020-03-11 13:14:11.986063	2020-03-11 13:14:12.739047	125	6.40810283333333	False	n/a	n/a	n/a	n/a
S200311	Conflict_Resolution	LEFT	LEFT	566.414100000202	1116.6666689	n/a	n/a	2020-03-11 13:14:13.875568	2020-03-11 13:14:14.649543	126	6.40810283333333	True	n/a	n/a	n/a	n/a
S200311	Conflict_Resolution	LEFT	LEFT	674.726699999837	1466.6666696	n/a	n/a	2020-03-11 13:14:16.135024	2020-03-11 13:14:17.019130	127	6.40810283333333	True	n/a	n/a	n/a	n/a
S200311	Conflict_Resolution	RIGHT	RIGHT	534.486599999809	1133.3333356	n/a	n/a	2020-03-11 13:14:18.171337	2020-03-11 13:14:18.913974	128	6.40810283333333	False	n/a	n/a	n/a	n/a
S200311	Conflict_Resolution	LEFT	LEFT	495.878400000038	916.6666685	n/a	n/a	2020-03-11 13:14:19.849549	2020-03-11 13:14:20.553794	129	6.40810283333333	False	n/a	n/a	n/a	n/a
S200311	Conflict_Resolution	LEFT	LEFT	495.313800000076	566.6666678	n/a	n/a	2020-03-11 13:14:21.138839	2020-03-11 13:14:21.842880	130	6.40810283333333	False	n/a	n/a	n/a	n/a
S200311	Conflict_Resolution	RIGHT	RIGHT	655.515700000024	700.0000014	n/a	n/a	2020-03-11 13:14:22.562321	2020-03-11 13:14:23.426687	131	6.40810283333333	False	n/a	n/a	n/a	n/a
S200311	Conflict_Resolution	RIGHT	RIGHT	665.298699999994	1416.6666695	n/a	n/a	2020-03-11 13:14:24.864726	2020-03-11 13:14:25.739939	132	6.40810283333333	False	n/a	n/a	n/a	n/a
S200311	Conflict_Resolution	LEFT	LEFT	598.046599999861	1500.000003	n/a	n/a	2020-03-11 13:14:27.259721	2020-03-11 13:14:28.065109	133	6.40810283333333	True	n/a	n/a	n/a	n/a
S200311	Conflict_Resolution	RIGHT	RIGHT	459.707399999843	1183.3333357	n/a	n/a	2020-03-11 13:14:29.270007	2020-03-11 13:14:29.938479	134	6.40810283333333	False	n/a	n/a	n/a	n/a
S200311	Conflict_Resolution	RIGHT	RIGHT	788.695899999993	1383.3333361	n/a	n/a	2020-03-11 13:14:31.340889	2020-03-11 13:14:32.338139	135	6.40810283333333	False	n/a	n/a	n/a	n/a
S200311	Conflict_Resolution	RIGHT	RIGHT	410.394399999859	1266.6666692	n/a	n/a	2020-03-11 13:14:33.623759	2020-03-11 13:14:34.241761	136	6.40810283333333	False	n/a	n/a	n/a	n/a
S200311	Conflict_Resolution	RIGHT	RIGHT	637.716399999817	1333.333336	n/a	n/a	2020-03-11 13:14:35.595699	2020-03-11 13:14:36.441456	137	6.40810283333333	True	n/a	n/a	n/a	n/a
S200311	Conflict_Resolution	LEFT	LEFT	717.975299999807	566.6666678	n/a	n/a	2020-03-11 13:14:37.027971	2020-03-11 13:14:37.955302	138	6.40810283333333	True	n/a	n/a	n/a	n/a
S200311	Conflict_Resolution	LEFT	LEFT	490.31459999992	1000.000002	n/a	n/a	2020-03-11 13:14:38.975969	2020-03-11 13:14:39.673425	139	6.40810283333333	False	n/a	n/a	n/a	n/a
S200311	Conflict_Resolution	LEFT	LEFT	584.564600000022	1300.0000026	n/a	n/a	2020-03-11 13:14:40.992940	2020-03-11 13:14:41.786225	140	6.40810283333333	True	n/a	n/a	n/a	n/a
S200311	Conflict_Resolution	RIGHT	RIGHT	635.133200000155	1183.3333357	n/a	n/a	2020-03-11 13:14:42.990656	2020-03-11 13:14:43.833452	141	6.40810283333333	True	n/a	n/a	n/a	n/a
S200311	Conflict_Resolution	LEFT	LEFT	644.513200000119	1150.0000023	n/a	n/a	2020-03-11 13:14:45.004831	2020-03-11 13:14:45.858446	142	6.40810283333333	True	n/a	n/a	n/a	n/a
S200311	Conflict_Resolution	RIGHT	RIGHT	748.102100000096	800.0000016	n/a	n/a	2020-03-11 13:14:46.677872	2020-03-11 13:14:47.634745	143	6.40810283333333	False	n/a	n/a	n/a	n/a
S200311	Conflict_Resolution	LEFT	LEFT	539.233099999819	816.6666683	n/a	n/a	2020-03-11 13:14:48.470586	2020-03-11 13:14:49.218370	144	6.40810283333333	False	n/a	n/a	n/a	n/a
S200311	Conflict_Resolution	RIGHT	RIGHT	668.867099999943	583.3333345	n/a	n/a	2020-03-11 13:14:49.821314	2020-03-11 13:14:50.698905	145	6.40810283333333	False	n/a	n/a	n/a	n/a
S200311	Conflict_Resolution	LEFT	Time_Max_Exceeded	1500.10259999999	900.0000018	n/a	n/a	2020-03-11 13:14:51.618608	2020-03-11 13:14:53.119585	146	6.40810283333333	True	n/a	n/a	n/a	n/a
S200311	Conflict_Resolution	LEFT	LEFT	415.887599999905	1366.6666694	n/a	n/a	2020-03-11 13:14:54.505498	2020-03-11 13:14:55.129410	147	6.40810283333333	False	n/a	n/a	n/a	n/a
S200311	Conflict_Resolution	LEFT	LEFT	648.689599999898	516.6666677	n/a	n/a	2020-03-11 13:14:55.665116	2020-03-11 13:14:56.521331	148	6.40810283333333	True	n/a	n/a	n/a	n/a
S200311	Conflict_Resolution	LEFT	LEFT	391.176099999939	1116.6666689	n/a	n/a	2020-03-11 13:14:57.658111	2020-03-11 13:14:58.257122	149	6.40810283333333	False	n/a	n/a	n/a	n/a
S200311	Conflict_Resolution	RIGHT	RIGHT	532.401800000116	1000.000002	n/a	n/a	2020-03-11 13:14:59.277620	2020-03-11 13:15:00.018003	150	6.40810283333333	False	n/a	n/a	n/a	n/a
S200311	Conflict_Resolution	LEFT	LEFT	613.909700000022	516.6666677	n/a	n/a	2020-03-11 13:15:00.555638	2020-03-11 13:15:01.379062	151	6.40810283333333	False	n/a	n/a	n/a	n/a
S200311	Conflict_Resolution	RIGHT	RIGHT	514.270399999987	833.333335	n/a	n/a	2020-03-11 13:15:02.231398	2020-03-11 13:15:02.954590	152	6.40810283333333	True	n/a	n/a	n/a	n/a
S200311	Conflict_Resolution	LEFT	LEFT	417.151999999987	1250.0000025	n/a	n/a	2020-03-11 13:15:04.224204	2020-03-11 13:15:04.851746	153	6.40810283333333	False	n/a	n/a	n/a	n/a
S200311	Conflict_Resolution	LEFT	LEFT	467.352899999923	1166.666669	n/a	n/a	2020-03-11 13:15:06.038831	2020-03-11 13:15:06.713473	154	6.40810283333333	True	n/a	n/a	n/a	n/a
S200311	Conflict_Resolution	RIGHT	RIGHT	498.289000000113	650.0000013	n/a	n/a	2020-03-11 13:15:07.383671	2020-03-11 13:15:08.090281	155	6.40810283333333	False	n/a	n/a	n/a	n/a
S200311	Conflict_Resolution	RIGHT	RIGHT	864.927100000159	1483.3333363	n/a	n/a	2020-03-11 13:15:09.593292	2020-03-11 13:15:10.666564	156	6.40810283333333	True	n/a	n/a	n/a	n/a
S200311	Conflict_Resolution	LEFT	LEFT	413.300400000026	950.0000019	n/a	n/a	2020-03-11 13:15:11.636721	2020-03-11 13:15:12.258051	157	6.40810283333333	False	n/a	n/a	n/a	n/a
S200311	Conflict_Resolution	LEFT	LEFT	536.433700000089	666.666668	n/a	n/a	2020-03-11 13:15:12.945362	2020-03-11 13:15:13.689499	158	6.40810283333333	True	n/a	n/a	n/a	n/a
S200311	Conflict_Resolution	RIGHT	RIGHT	575.881700000082	500.000001	n/a	n/a	2020-03-11 13:15:14.209888	2020-03-11 13:15:14.994576	159	6.40810283333333	True	n/a	n/a	n/a	n/a
S200311	Conflict_Resolution	RIGHT	RIGHT	791.491399999813	700.0000014	n/a	n/a	2020-03-11 13:15:15.713893	2020-03-11 13:15:16.713712	160	6.40810283333333	True	n/a	n/a	n/a	n/a
