"Participant"	"Task"	"Stimulus_Side"	"Response"	"RT"	"ITI"	"Previous_Response"	"Previous_RT"	"Stop_Signal"	"Stop_Signal_RT"	"Conflict"	"Cue_Response"	"Cue_Response_RT"	"Trial_Onset"	"Trial_End"	"Trial_Order"	"Duration"
"S200311"	"Conflict_Resolution"	"RIGHT"	"RIGHT"	850.618900000086	1033.3333354	""	n/a	n/a	n/a	"True"	n/a	n/a	"2020-03-11 13:10:31.095466"	"2020-03-11 13:10:32.154087"	1	6.40810283333333
"S200311"	"Conflict_Resolution"	"LEFT"	"LEFT"	393.460300000015	1050.0000021	""	n/a	n/a	n/a	"False"	n/a	n/a	"2020-03-11 13:10:33.224804"	"2020-03-11 13:10:33.826480"	2	6.40810283333333
"S200311"	"Conflict_Resolution"	"RIGHT"	"RIGHT"	558.187699999962	583.3333345	""	n/a	n/a	n/a	"True"	n/a	n/a	"2020-03-11 13:10:34.427873"	"2020-03-11 13:10:35.194859"	3	6.40810283333333
"S200311"	"Conflict_Resolution"	"LEFT"	"LEFT"	392.250600000011	1266.6666692	""	n/a	n/a	n/a	"False"	n/a	n/a	"2020-03-11 13:10:36.482098"	"2020-03-11 13:10:37.083067"	4	6.40810283333333
"S200311"	"Conflict_Resolution"	"RIGHT"	"RIGHT"	527.951900000062	1050.0000021	""	n/a	n/a	n/a	"True"	n/a	n/a	"2020-03-11 13:10:38.154028"	"2020-03-11 13:10:38.889478"	5	6.40810283333333
"S200311"	"Conflict_Resolution"	"RIGHT"	"RIGHT"	443.478700000014	1216.6666691	""	n/a	n/a	n/a	"False"	n/a	n/a	"2020-03-11 13:10:40.126296"	"2020-03-11 13:10:40.778162"	6	6.40810283333333
"S200311"	"Conflict_Resolution"	"RIGHT"	"LEFT"	434.954400000038	633.3333346	""	n/a	n/a	n/a	"True"	n/a	n/a	"2020-03-11 13:10:41.431417"	"2020-03-11 13:10:42.074510"	7	6.40810283333333
"S200311"	"Conflict_Resolution"	"RIGHT"	"RIGHT"	507.393499999921	783.3333349	""	n/a	n/a	n/a	"True"	n/a	n/a	"2020-03-11 13:10:42.878382"	"2020-03-11 13:10:43.593362"	8	6.40810283333333
"S200311"	"Conflict_Resolution"	"RIGHT"	"RIGHT"	357.814699999949	1366.6666694	""	n/a	n/a	n/a	"False"	n/a	n/a	"2020-03-11 13:10:44.980563"	"2020-03-11 13:10:45.546676"	9	6.40810283333333
"S200311"	"Conflict_Resolution"	"LEFT"	"LEFT"	369.281199999932	850.0000017	""	n/a	n/a	n/a	"False"	n/a	n/a	"2020-03-11 13:10:46.424667"	"2020-03-11 13:10:47.003711"	10	6.40810283333333
"S200311"	"Conflict_Resolution"	"LEFT"	"LEFT"	671.872200000053	1266.6666692	""	n/a	n/a	n/a	"True"	n/a	n/a	"2020-03-11 13:10:48.290066"	"2020-03-11 13:10:49.171706"	11	6.40810283333333
"S200311"	"Conflict_Resolution"	"LEFT"	"RIGHT"	386.533200000031	1016.6666687	""	n/a	n/a	n/a	"True"	n/a	n/a	"2020-03-11 13:10:50.207699"	"2020-03-11 13:10:50.803697"	12	6.40810283333333
"S200311"	"Conflict_Resolution"	"LEFT"	"LEFT"	539.792799999987	783.3333349	""	n/a	n/a	n/a	"True"	n/a	n/a	"2020-03-11 13:10:51.605771"	"2020-03-11 13:10:52.354764"	13	6.40810283333333
"S200311"	"Conflict_Resolution"	"LEFT"	"LEFT"	410.622400000079	633.3333346	""	n/a	n/a	n/a	"False"	n/a	n/a	"2020-03-11 13:10:53.007519"	"2020-03-11 13:10:53.625407"	14	6.40810283333333
"S200311"	"Conflict_Resolution"	"LEFT"	"LEFT"	529.534799999965	816.6666683	""	n/a	n/a	n/a	"True"	n/a	n/a	"2020-03-11 13:10:54.463812"	"2020-03-11 13:10:55.201476"	15	6.40810283333333
"S200311"	"Conflict_Resolution"	"LEFT"	"LEFT"	415.180599999985	733.3333348	""	n/a	n/a	n/a	"True"	n/a	n/a	"2020-03-11 13:10:55.955154"	"2020-03-11 13:10:56.577533"	16	6.40810283333333
"S200311"	"Conflict_Resolution"	"RIGHT"	"RIGHT"	395.640599999979	1433.3333362	""	n/a	n/a	n/a	"False"	n/a	n/a	"2020-03-11 13:10:58.030712"	"2020-03-11 13:10:58.634776"	17	6.40810283333333
"S200311"	"Conflict_Resolution"	"LEFT"	"LEFT"	489.423999999985	633.3333346	""	n/a	n/a	n/a	"True"	n/a	n/a	"2020-03-11 13:10:59.288693"	"2020-03-11 13:10:59.985956"	18	6.40810283333333
"S200311"	"Conflict_Resolution"	"LEFT"	"RIGHT"	389.905399999975	1316.6666693	""	n/a	n/a	n/a	"True"	n/a	n/a	"2020-03-11 13:11:01.323665"	"2020-03-11 13:11:01.922826"	19	6.40810283333333
"S200311"	"Conflict_Resolution"	"LEFT"	"LEFT"	392.85730000006	666.666668	""	n/a	n/a	n/a	"False"	n/a	n/a	"2020-03-11 13:11:02.609567"	"2020-03-11 13:11:03.209874"	20	6.40810283333333
"S200311"	"Conflict_Resolution"	"LEFT"	"LEFT"	586.903399999983	1450.0000029	""	n/a	n/a	n/a	"True"	n/a	n/a	"2020-03-11 13:11:04.679296"	"2020-03-11 13:11:05.474240"	21	6.40810283333333
"S200311"	"Conflict_Resolution"	"RIGHT"	"RIGHT"	531.852000000072	983.3333353	""	n/a	n/a	n/a	"True"	n/a	n/a	"2020-03-11 13:11:06.478207"	"2020-03-11 13:11:07.218444"	22	6.40810283333333
"S200311"	"Conflict_Resolution"	"RIGHT"	"RIGHT"	438.570000000027	750.0000015	""	n/a	n/a	n/a	"False"	n/a	n/a	"2020-03-11 13:11:07.987539"	"2020-03-11 13:11:08.634345"	23	6.40810283333333
"S200311"	"Conflict_Resolution"	"RIGHT"	"RIGHT"	610.747599999968	600.0000012	""	n/a	n/a	n/a	"True"	n/a	n/a	"2020-03-11 13:11:09.255154"	"2020-03-11 13:11:10.075012"	24	6.40810283333333
"S200311"	"Conflict_Resolution"	"RIGHT"	"RIGHT"	457.227800000055	633.3333346	""	n/a	n/a	n/a	"False"	n/a	n/a	"2020-03-11 13:11:10.728860"	"2020-03-11 13:11:11.394954"	25	6.40810283333333
"S200311"	"Conflict_Resolution"	"LEFT"	"LEFT"	475.192799999945	1400.0000028	""	n/a	n/a	n/a	"False"	n/a	n/a	"2020-03-11 13:11:12.814420"	"2020-03-11 13:11:13.497568"	26	6.40810283333333
"S200311"	"Conflict_Resolution"	"LEFT"	"LEFT"	708.547500000009	583.3333345	""	n/a	n/a	n/a	"True"	n/a	n/a	"2020-03-11 13:11:14.101598"	"2020-03-11 13:11:15.017265"	27	6.40810283333333
"S200311"	"Conflict_Resolution"	"RIGHT"	"RIGHT"	587.538300000006	1266.6666692	""	n/a	n/a	n/a	"True"	n/a	n/a	"2020-03-11 13:11:16.301894"	"2020-03-11 13:11:17.097808"	28	6.40810283333333
"S200311"	"Conflict_Resolution"	"LEFT"	"LEFT"	591.227000000003	533.3333344	""	n/a	n/a	n/a	"True"	n/a	n/a	"2020-03-11 13:11:17.650507"	"2020-03-11 13:11:18.450740"	29	6.40810283333333
"S200311"	"Conflict_Resolution"	"RIGHT"	"RIGHT"	437.447499999962	1083.3333355	""	n/a	n/a	n/a	"False"	n/a	n/a	"2020-03-11 13:11:19.556447"	"2020-03-11 13:11:20.202038"	30	6.40810283333333
"S200311"	"Conflict_Resolution"	"LEFT"	"LEFT"	404.895499999952	783.3333349	""	n/a	n/a	n/a	"False"	n/a	n/a	"2020-03-11 13:11:21.005487"	"2020-03-11 13:11:21.617319"	31	6.40810283333333
"S200311"	"Conflict_Resolution"	"LEFT"	"RIGHT"	452.716399999986	1000.000002	""	n/a	n/a	n/a	"True"	n/a	n/a	"2020-03-11 13:11:22.637223"	"2020-03-11 13:11:23.297496"	32	6.40810283333333
"S200311"	"Conflict_Resolution"	"LEFT"	"LEFT"	466.188299999999	850.0000017	""	n/a	n/a	n/a	"True"	n/a	n/a	"2020-03-11 13:11:24.168066"	"2020-03-11 13:11:24.842485"	33	6.40810283333333
"S200311"	"Conflict_Resolution"	"RIGHT"	"RIGHT"	508.972599999993	600.0000012	""	n/a	n/a	n/a	"False"	n/a	n/a	"2020-03-11 13:11:25.461100"	"2020-03-11 13:11:26.177866"	34	6.40810283333333
"S200311"	"Conflict_Resolution"	"LEFT"	"LEFT"	615.248699999938	716.6666681	""	n/a	n/a	n/a	"True"	n/a	n/a	"2020-03-11 13:11:26.915822"	"2020-03-11 13:11:27.740991"	35	6.40810283333333
"S200311"	"Conflict_Resolution"	"RIGHT"	"RIGHT"	467.158899999959	983.3333353	""	n/a	n/a	n/a	"False"	n/a	n/a	"2020-03-11 13:11:28.743114"	"2020-03-11 13:11:29.417455"	36	6.40810283333333
"S200311"	"Conflict_Resolution"	"RIGHT"	"RIGHT"	472.300700000005	1316.6666693	""	n/a	n/a	n/a	"False"	n/a	n/a	"2020-03-11 13:11:30.754131"	"2020-03-11 13:11:31.434577"	37	6.40810283333333
"S200311"	"Conflict_Resolution"	"LEFT"	"LEFT"	500.2882	1416.6666695	""	n/a	n/a	n/a	"True"	n/a	n/a	"2020-03-11 13:11:32.869136"	"2020-03-11 13:11:33.577344"	38	6.40810283333333
"S200311"	"Conflict_Resolution"	"LEFT"	"LEFT"	494.729799999959	1350.0000027	""	n/a	n/a	n/a	"False"	n/a	n/a	"2020-03-11 13:11:34.947381"	"2020-03-11 13:11:35.649417"	39	6.40810283333333
"S200311"	"Conflict_Resolution"	"RIGHT"	"RIGHT"	581.012299999998	1433.3333362	""	n/a	n/a	n/a	"True"	n/a	n/a	"2020-03-11 13:11:37.100862"	"2020-03-11 13:11:37.889180"	40	6.40810283333333
"S200311"	"Conflict_Resolution"	"LEFT"	"LEFT"	429.058299999951	1200.0000024	""	n/a	n/a	n/a	"False"	n/a	n/a	"2020-03-11 13:11:39.108859"	"2020-03-11 13:11:39.745709"	41	6.40810283333333
"S200311"	"Conflict_Resolution"	"RIGHT"	"RIGHT"	607.294000000024	683.3333347	""	n/a	n/a	n/a	"True"	n/a	n/a	"2020-03-11 13:11:40.450578"	"2020-03-11 13:11:41.266500"	42	6.40810283333333
"S200311"	"Conflict_Resolution"	"RIGHT"	"RIGHT"	765.310599999907	1150.0000023	""	n/a	n/a	n/a	"True"	n/a	n/a	"2020-03-11 13:11:42.436715"	"2020-03-11 13:11:43.410713"	43	6.40810283333333
"S200311"	"Conflict_Resolution"	"LEFT"	"LEFT"	490.064800000027	1016.6666687	""	n/a	n/a	n/a	"False"	n/a	n/a	"2020-03-11 13:11:44.448225"	"2020-03-11 13:11:45.145514"	44	6.40810283333333
"S200311"	"Conflict_Resolution"	"RIGHT"	"RIGHT"	708.449500000029	1416.6666695	""	n/a	n/a	n/a	"True"	n/a	n/a	"2020-03-11 13:11:46.581795"	"2020-03-11 13:11:47.498897"	45	6.40810283333333
"S200311"	"Conflict_Resolution"	"LEFT"	"LEFT"	667.191899999921	616.6666679	""	n/a	n/a	n/a	"True"	n/a	n/a	"2020-03-11 13:11:48.135196"	"2020-03-11 13:11:49.011801"	46	6.40810283333333
"S200311"	"Conflict_Resolution"	"RIGHT"	"RIGHT"	430.768299999954	1483.3333363	""	n/a	n/a	n/a	"False"	n/a	n/a	"2020-03-11 13:11:50.514843"	"2020-03-11 13:11:51.153441"	47	6.40810283333333
"S200311"	"Conflict_Resolution"	"LEFT"	"LEFT"	507.213699999966	1216.6666691	""	n/a	n/a	n/a	"False"	n/a	n/a	"2020-03-11 13:11:52.390463"	"2020-03-11 13:11:53.106616"	48	6.40810283333333
"S200311"	"Conflict_Resolution"	"RIGHT"	"RIGHT"	539.302000000021	800.0000016	""	n/a	n/a	n/a	"True"	n/a	n/a	"2020-03-11 13:11:53.926670"	"2020-03-11 13:11:54.674239"	49	6.40810283333333
"S200311"	"Conflict_Resolution"	"LEFT"	"LEFT"	599.642700000004	916.6666685	""	n/a	n/a	n/a	"True"	n/a	n/a	"2020-03-11 13:11:55.610608"	"2020-03-11 13:11:56.418916"	50	6.40810283333333
"S200311"	"Conflict_Resolution"	"RIGHT"	"RIGHT"	710.03989999997	1316.6666693	""	n/a	n/a	n/a	"True"	n/a	n/a	"2020-03-11 13:11:57.755625"	"2020-03-11 13:11:58.674863"	51	6.40810283333333
"S200311"	"Conflict_Resolution"	"LEFT"	"LEFT"	476.0311	616.6666679	"RIGHT"	-453.728	n/a	n/a	"False"	n/a	n/a	"2020-03-11 13:11:59.310096"	"2020-03-11 13:11:59.994113"	52	6.40810283333333
"S200311"	"Conflict_Resolution"	"RIGHT"	"RIGHT"	483.713200000011	783.3333349	""	n/a	n/a	n/a	"False"	n/a	n/a	"2020-03-11 13:12:00.798080"	"2020-03-11 13:12:01.489187"	53	6.40810283333333
"S200311"	"Conflict_Resolution"	"RIGHT"	"RIGHT"	426.837400000068	1466.6666696	""	n/a	n/a	n/a	"False"	n/a	n/a	"2020-03-11 13:12:02.975662"	"2020-03-11 13:12:03.609639"	54	6.40810283333333
"S200311"	"Conflict_Resolution"	"RIGHT"	"RIGHT"	456.574699999919	683.3333347	""	n/a	n/a	n/a	"False"	n/a	n/a	"2020-03-11 13:12:04.312852"	"2020-03-11 13:12:04.977269"	55	6.40810283333333
"S200311"	"Conflict_Resolution"	"RIGHT"	"RIGHT"	559.294700000009	1100.0000022	""	n/a	n/a	n/a	"False"	n/a	n/a	"2020-03-11 13:12:06.099102"	"2020-03-11 13:12:06.865198"	56	6.40810283333333
"S200311"	"Conflict_Resolution"	"RIGHT"	"RIGHT"	711.09110000009	550.0000011	""	n/a	n/a	n/a	"True"	n/a	n/a	"2020-03-11 13:12:07.434742"	"2020-03-11 13:12:08.354334"	57	6.40810283333333
"S200311"	"Conflict_Resolution"	"RIGHT"	"RIGHT"	733.666599999992	950.0000019	""	n/a	n/a	n/a	"False"	n/a	n/a	"2020-03-11 13:12:09.323827"	"2020-03-11 13:12:10.265673"	58	6.40810283333333
"S200311"	"Conflict_Resolution"	"LEFT"	"RIGHT"	877.819899999963	1350.0000027	""	n/a	n/a	n/a	"True"	n/a	n/a	"2020-03-11 13:12:11.635804"	"2020-03-11 13:12:12.723626"	59	6.40810283333333
"S200311"	"Conflict_Resolution"	"LEFT"	"LEFT"	595.042599999942	1400.0000028	""	n/a	n/a	n/a	"True"	n/a	n/a	"2020-03-11 13:12:14.142953"	"2020-03-11 13:12:14.945666"	60	6.40810283333333
"S200311"	"Conflict_Resolution"	"RIGHT"	"RIGHT"	567.096099999958	1083.3333355	""	n/a	n/a	n/a	"True"	n/a	n/a	"2020-03-11 13:12:16.050231"	"2020-03-11 13:12:16.825111"	61	6.40810283333333
"S200311"	"Conflict_Resolution"	"LEFT"	"LEFT"	482.072700000003	716.6666681	""	n/a	n/a	n/a	"False"	n/a	n/a	"2020-03-11 13:12:17.559420"	"2020-03-11 13:12:18.250572"	62	6.40810283333333
"S200311"	"Conflict_Resolution"	"RIGHT"	"RIGHT"	682.351600000061	1233.3333358	""	n/a	n/a	n/a	"True"	n/a	n/a	"2020-03-11 13:12:19.503101"	"2020-03-11 13:12:20.393842"	63	6.40810283333333
"S200311"	"Conflict_Resolution"	"LEFT"	"LEFT"	570.250600000008	1050.0000021	""	n/a	n/a	n/a	"True"	n/a	n/a	"2020-03-11 13:12:21.463951"	"2020-03-11 13:12:22.241950"	64	6.40810283333333
"S200311"	"Conflict_Resolution"	"RIGHT"	"RIGHT"	648.581200000081	1283.3333359	""	n/a	n/a	n/a	"True"	n/a	n/a	"2020-03-11 13:12:23.545727"	"2020-03-11 13:12:24.401326"	65	6.40810283333333
"S200311"	"Conflict_Resolution"	"RIGHT"	"RIGHT"	537.12859999996	533.3333344	""	n/a	n/a	n/a	"False"	n/a	n/a	"2020-03-11 13:12:24.953043"	"2020-03-11 13:12:25.699630"	66	6.40810283333333
"S200311"	"Conflict_Resolution"	"RIGHT"	"RIGHT"	426.172099999917	850.0000017	""	n/a	n/a	n/a	"False"	n/a	n/a	"2020-03-11 13:12:26.567405"	"2020-03-11 13:12:27.201532"	67	6.40810283333333
"S200311"	"Conflict_Resolution"	"LEFT"	"LEFT"	528.772300000014	866.6666684	""	n/a	n/a	n/a	"True"	n/a	n/a	"2020-03-11 13:12:28.088856"	"2020-03-11 13:12:28.827921"	68	6.40810283333333
"S200311"	"Conflict_Resolution"	"RIGHT"	"RIGHT"	608.051800000112	883.3333351	""	n/a	n/a	n/a	"True"	n/a	n/a	"2020-03-11 13:12:29.729324"	"2020-03-11 13:12:30.545458"	69	6.40810283333333
"S200311"	"Conflict_Resolution"	"LEFT"	"LEFT"	458.659799999964	1500.000003	""	n/a	n/a	n/a	"False"	n/a	n/a	"2020-03-11 13:12:32.063736"	"2020-03-11 13:12:32.730790"	70	6.40810283333333
"S200311"	"Conflict_Resolution"	"LEFT"	"LEFT"	810.859800000003	1216.6666691	""	n/a	n/a	n/a	"True"	n/a	n/a	"2020-03-11 13:12:33.966701"	"2020-03-11 13:12:34.985636"	71	6.40810283333333
"S200311"	"Conflict_Resolution"	"LEFT"	"LEFT"	544.938300000013	1100.0000022	""	n/a	n/a	n/a	"True"	n/a	n/a	"2020-03-11 13:12:36.105435"	"2020-03-11 13:12:36.858435"	72	6.40810283333333
"S200311"	"Conflict_Resolution"	"RIGHT"	"RIGHT"	685.330199999953	733.3333348	""	n/a	n/a	n/a	"False"	n/a	n/a	"2020-03-11 13:12:37.612506"	"2020-03-11 13:12:38.506451"	73	6.40810283333333
"S200311"	"Conflict_Resolution"	"RIGHT"	"RIGHT"	684.335300000043	1133.3333356	""	n/a	n/a	n/a	"True"	n/a	n/a	"2020-03-11 13:12:39.661478"	"2020-03-11 13:12:40.553734"	74	6.40810283333333
"S200311"	"Conflict_Resolution"	"LEFT"	"LEFT"	598.338000000012	533.3333344	""	n/a	n/a	n/a	"False"	n/a	n/a	"2020-03-11 13:12:41.107486"	"2020-03-11 13:12:41.913098"	75	6.40810283333333
"S200311"	"Conflict_Resolution"	"LEFT"	"LEFT"	669.319299999984	1200.0000024	""	n/a	n/a	n/a	"True"	n/a	n/a	"2020-03-11 13:12:43.132935"	"2020-03-11 13:12:44.011566"	76	6.40810283333333
"S200311"	"Conflict_Resolution"	"RIGHT"	"RIGHT"	692.064899999991	750.0000015	""	n/a	n/a	n/a	"True"	n/a	n/a	"2020-03-11 13:12:44.781463"	"2020-03-11 13:12:45.681977"	77	6.40810283333333
"S200311"	"Conflict_Resolution"	"LEFT"	"LEFT"	564.412599999969	950.0000019	""	n/a	n/a	n/a	"True"	n/a	n/a	"2020-03-11 13:12:46.653009"	"2020-03-11 13:12:47.426492"	78	6.40810283333333
"S200311"	"Conflict_Resolution"	"RIGHT"	"RIGHT"	506.829899999957	1050.0000021	""	n/a	n/a	n/a	"False"	n/a	n/a	"2020-03-11 13:12:48.495035"	"2020-03-11 13:12:49.210129"	79	6.40810283333333
"S200311"	"Conflict_Resolution"	"RIGHT"	"LEFT"	429.465499999992	950.0000019	""	n/a	n/a	n/a	"True"	n/a	n/a	"2020-03-11 13:12:50.180560"	"2020-03-11 13:12:50.818924"	80	6.40810283333333
"S200311"	"Conflict_Resolution"	"RIGHT"	"RIGHT"	532.376799999952	933.3333352	""	n/a	n/a	n/a	"False"	n/a	n/a	"2020-03-11 13:12:51.773614"	"2020-03-11 13:12:52.513842"	81	6.40810283333333
"S200311"	"Conflict_Resolution"	"LEFT"	"LEFT"	494.078500000001	1316.6666693	""	n/a	n/a	n/a	"False"	n/a	n/a	"2020-03-11 13:12:53.851583"	"2020-03-11 13:12:54.554321"	82	6.40810283333333
"S200311"	"Conflict_Resolution"	"LEFT"	"LEFT"	489.645600000017	683.3333347	""	n/a	n/a	n/a	"False"	n/a	n/a	"2020-03-11 13:12:55.255869"	"2020-03-11 13:12:55.953782"	83	6.40810283333333
"S200311"	"Conflict_Resolution"	"LEFT"	"LEFT"	647.358900000086	1366.6666694	""	n/a	n/a	n/a	"True"	n/a	n/a	"2020-03-11 13:12:57.338579"	"2020-03-11 13:12:58.193134"	84	6.40810283333333
"S200311"	"Conflict_Resolution"	"RIGHT"	"RIGHT"	528.791200000001	883.3333351	""	n/a	n/a	n/a	"False"	n/a	n/a	"2020-03-11 13:12:59.097154"	"2020-03-11 13:12:59.833343"	85	6.40810283333333
"S200311"	"Conflict_Resolution"	"RIGHT"	"RIGHT"	677.847400000019	1366.6666694	""	n/a	n/a	n/a	"True"	n/a	n/a	"2020-03-11 13:13:01.220589"	"2020-03-11 13:13:02.107351"	86	6.40810283333333
"S200311"	"Conflict_Resolution"	"LEFT"	"LEFT"	573.382199999969	733.3333348	""	n/a	n/a	n/a	"False"	n/a	n/a	"2020-03-11 13:13:02.860822"	"2020-03-11 13:13:03.642827"	87	6.40810283333333
"S200311"	"Conflict_Resolution"	"LEFT"	"LEFT"	509.057899999902	1166.666669	""	n/a	n/a	n/a	"False"	n/a	n/a	"2020-03-11 13:13:04.828955"	"2020-03-11 13:13:05.546005"	88	6.40810283333333
"S200311"	"Conflict_Resolution"	"LEFT"	"LEFT"	718.49050000003	900.0000018	""	n/a	n/a	n/a	"False"	n/a	n/a	"2020-03-11 13:13:06.466924"	"2020-03-11 13:13:07.394039"	89	6.40810283333333
"S200311"	"Conflict_Resolution"	"LEFT"	"LEFT"	548.524499999985	966.6666686	""	n/a	n/a	n/a	"False"	n/a	n/a	"2020-03-11 13:13:08.381639"	"2020-03-11 13:13:09.137202"	90	6.40810283333333
"S200311"	"Conflict_Resolution"	"RIGHT"	"RIGHT"	536.414599999944	1100.0000022	""	n/a	n/a	n/a	"True"	n/a	n/a	"2020-03-11 13:13:10.257316"	"2020-03-11 13:13:11.002807"	91	6.40810283333333
"S200311"	"Conflict_Resolution"	"LEFT"	"LEFT"	545.642699999917	866.6666684	""	n/a	n/a	n/a	"False"	n/a	n/a	"2020-03-11 13:13:11.887638"	"2020-03-11 13:13:12.641756"	92	6.40810283333333
"S200311"	"Conflict_Resolution"	"LEFT"	"LEFT"	537.839500000018	1066.6666688	""	n/a	n/a	n/a	"False"	n/a	n/a	"2020-03-11 13:13:13.727514"	"2020-03-11 13:13:14.474526"	93	6.40810283333333
"S200311"	"Conflict_Resolution"	"RIGHT"	"RIGHT"	603.169699999853	850.0000017	""	n/a	n/a	n/a	"True"	n/a	n/a	"2020-03-11 13:13:15.342245"	"2020-03-11 13:13:16.154580"	94	6.40810283333333
"S200311"	"Conflict_Resolution"	"LEFT"	"LEFT"	799.211499999956	683.3333347	""	n/a	n/a	n/a	"True"	n/a	n/a	"2020-03-11 13:13:16.858907"	"2020-03-11 13:13:17.866898"	95	6.40810283333333
"S200311"	"Conflict_Resolution"	"RIGHT"	"RIGHT"	671.735500000068	1466.6666696	""	n/a	n/a	n/a	"True"	n/a	n/a	"2020-03-11 13:13:19.354528"	"2020-03-11 13:13:20.234984"	96	6.40810283333333
"S200311"	"Conflict_Resolution"	"RIGHT"	"RIGHT"	728.290100000095	650.0000013	""	n/a	n/a	n/a	"True"	n/a	n/a	"2020-03-11 13:13:20.906072"	"2020-03-11 13:13:21.842708"	97	6.40810283333333
"S200311"	"Conflict_Resolution"	"RIGHT"	"RIGHT"	582.922800000006	1150.0000023	""	n/a	n/a	n/a	"False"	n/a	n/a	"2020-03-11 13:13:23.011203"	"2020-03-11 13:13:23.803576"	98	6.40810283333333
"S200311"	"Conflict_Resolution"	"LEFT"	"LEFT"	624.737999999979	1250.0000025	""	n/a	n/a	n/a	"True"	n/a	n/a	"2020-03-11 13:13:25.073268"	"2020-03-11 13:13:25.905889"	99	6.40810283333333
"S200311"	"Conflict_Resolution"	"RIGHT"	"RIGHT"	635.762300000124	1216.6666691	""	n/a	n/a	n/a	"True"	n/a	n/a	"2020-03-11 13:13:27.142077"	"2020-03-11 13:13:27.987868"	100	6.40810283333333
"S200311"	"Conflict_Resolution"	"LEFT"	"LEFT"	484.803699999929	966.6666686	""	n/a	n/a	n/a	"True"	n/a	n/a	"2020-03-11 13:13:28.973052"	"2020-03-11 13:13:29.665683"	101	6.40810283333333
"S200311"	"Conflict_Resolution"	"RIGHT"	"RIGHT"	615.04049999985	733.3333348	""	n/a	n/a	n/a	"True"	n/a	n/a	"2020-03-11 13:13:30.418990"	"2020-03-11 13:13:31.242206"	102	6.40810283333333
"S200311"	"Conflict_Resolution"	"LEFT"	"LEFT"	432.354399999895	1100.0000022	""	n/a	n/a	n/a	"False"	n/a	n/a	"2020-03-11 13:13:32.361314"	"2020-03-11 13:13:33.004658"	103	6.40810283333333
"S200311"	"Conflict_Resolution"	"LEFT"	"LEFT"	541.795000000093	1300.0000026	""	n/a	n/a	n/a	"False"	n/a	n/a	"2020-03-11 13:13:34.324338"	"2020-03-11 13:13:35.074331"	104	6.40810283333333
"S200311"	"Conflict_Resolution"	"RIGHT"	"RIGHT"	571.724000000131	1383.3333361	""	n/a	n/a	n/a	"True"	n/a	n/a	"2020-03-11 13:13:36.478093"	"2020-03-11 13:13:37.258749"	105	6.40810283333333
"S200311"	"Conflict_Resolution"	"LEFT"	"LEFT"	425.088199999891	1450.0000029	""	n/a	n/a	n/a	"False"	n/a	n/a	"2020-03-11 13:13:38.728710"	"2020-03-11 13:13:39.363037"	106	6.40810283333333
"S200311"	"Conflict_Resolution"	"RIGHT"	"RIGHT"	505.231500000036	833.333335	""	n/a	n/a	n/a	"False"	n/a	n/a	"2020-03-11 13:13:40.216828"	"2020-03-11 13:13:40.929308"	107	6.40810283333333
"S200311"	"Conflict_Resolution"	"LEFT"	"LEFT"	466.134399999873	1466.6666696	""	n/a	n/a	n/a	"False"	n/a	n/a	"2020-03-11 13:13:42.415828"	"2020-03-11 13:13:43.090651"	108	6.40810283333333
"S200311"	"Conflict_Resolution"	"RIGHT"	"RIGHT"	442.39349999998	1233.3333358	""	n/a	n/a	n/a	"False"	n/a	n/a	"2020-03-11 13:13:44.343831"	"2020-03-11 13:13:44.993113"	109	6.40810283333333
"S200311"	"Conflict_Resolution"	"RIGHT"	"RIGHT"	599.926399999958	933.3333352	""	n/a	n/a	n/a	"True"	n/a	n/a	"2020-03-11 13:13:45.945414"	"2020-03-11 13:13:46.753789"	110	6.40810283333333
"S200311"	"Conflict_Resolution"	"RIGHT"	"RIGHT"	452.881899999966	1033.3333354	""	n/a	n/a	n/a	"False"	n/a	n/a	"2020-03-11 13:13:47.804462"	"2020-03-11 13:13:48.467637"	111	6.40810283333333
"S200311"	"Conflict_Resolution"	"RIGHT"	"RIGHT"	493.36570000014	550.0000011	""	n/a	n/a	n/a	"False"	n/a	n/a	"2020-03-11 13:13:49.037223"	"2020-03-11 13:13:49.738336"	112	6.40810283333333
"S200311"	"Conflict_Resolution"	"LEFT"	"LEFT"	469.08099999996	1150.0000023	""	n/a	n/a	n/a	"False"	n/a	n/a	"2020-03-11 13:13:50.909100"	"2020-03-11 13:13:51.586287"	113	6.40810283333333
"S200311"	"Conflict_Resolution"	"RIGHT"	"RIGHT"	504.081700000143	500.000001	""	n/a	n/a	n/a	"False"	n/a	n/a	"2020-03-11 13:13:52.105684"	"2020-03-11 13:13:52.818058"	114	6.40810283333333
"S200311"	"Conflict_Resolution"	"RIGHT"	"RIGHT"	603.094299999839	1000.000002	""	n/a	n/a	n/a	"True"	n/a	n/a	"2020-03-11 13:13:53.839008"	"2020-03-11 13:13:54.649110"	115	6.40810283333333
"S200311"	"Conflict_Resolution"	"RIGHT"	"RIGHT"	734.637499999963	533.3333344	""	n/a	n/a	n/a	"True"	n/a	n/a	"2020-03-11 13:13:55.203627"	"2020-03-11 13:13:56.145793"	116	6.40810283333333
"S200311"	"Conflict_Resolution"	"LEFT"	"LEFT"	574.111399999992	766.6666682	""	n/a	n/a	n/a	"False"	n/a	n/a	"2020-03-11 13:13:56.931660"	"2020-03-11 13:13:57.713872"	117	6.40810283333333
"S200311"	"Conflict_Resolution"	"RIGHT"	"RIGHT"	431.105399999979	1333.333336	""	n/a	n/a	n/a	"False"	n/a	n/a	"2020-03-11 13:13:59.066388"	"2020-03-11 13:13:59.705341"	118	6.40810283333333
"S200311"	"Conflict_Resolution"	"RIGHT"	"RIGHT"	601.579800000081	900.0000018	""	n/a	n/a	n/a	"True"	n/a	n/a	"2020-03-11 13:14:00.624495"	"2020-03-11 13:14:01.433374"	119	6.40810283333333
"S200311"	"Conflict_Resolution"	"LEFT"	"LEFT"	649.812200000042	1066.6666688	""	n/a	n/a	n/a	"True"	n/a	n/a	"2020-03-11 13:14:02.520526"	"2020-03-11 13:14:03.377431"	120	6.40810283333333
"S200311"	"Conflict_Resolution"	"LEFT"	"LEFT"	661.632399999917	583.3333345	""	n/a	n/a	n/a	"False"	n/a	n/a	"2020-03-11 13:14:03.979987"	"2020-03-11 13:14:04.849227"	121	6.40810283333333
"S200311"	"Conflict_Resolution"	"LEFT"	"LEFT"	717.273400000067	1416.6666695	""	n/a	n/a	n/a	"False"	n/a	n/a	"2020-03-11 13:14:06.284305"	"2020-03-11 13:14:07.209966"	122	6.40810283333333
"S200311"	"Conflict_Resolution"	"RIGHT"	"RIGHT"	632.227999999941	1283.3333359	""	n/a	n/a	n/a	"False"	n/a	n/a	"2020-03-11 13:14:08.513797"	"2020-03-11 13:14:09.354543"	123	6.40810283333333
"S200311"	"Conflict_Resolution"	"LEFT"	"LEFT"	717.174099999966	766.6666682	""	n/a	n/a	n/a	"True"	n/a	n/a	"2020-03-11 13:14:10.140238"	"2020-03-11 13:14:11.065803"	124	6.40810283333333
"S200311"	"Conflict_Resolution"	"RIGHT"	"RIGHT"	544.048499999917	900.0000018	""	n/a	n/a	n/a	"False"	n/a	n/a	"2020-03-11 13:14:11.986063"	"2020-03-11 13:14:12.739047"	125	6.40810283333333
"S200311"	"Conflict_Resolution"	"LEFT"	"LEFT"	566.414100000202	1116.6666689	""	n/a	n/a	n/a	"True"	n/a	n/a	"2020-03-11 13:14:13.875568"	"2020-03-11 13:14:14.649543"	126	6.40810283333333
"S200311"	"Conflict_Resolution"	"LEFT"	"LEFT"	674.726699999837	1466.6666696	""	n/a	n/a	n/a	"True"	n/a	n/a	"2020-03-11 13:14:16.135024"	"2020-03-11 13:14:17.019130"	127	6.40810283333333
"S200311"	"Conflict_Resolution"	"RIGHT"	"RIGHT"	534.486599999809	1133.3333356	""	n/a	n/a	n/a	"False"	n/a	n/a	"2020-03-11 13:14:18.171337"	"2020-03-11 13:14:18.913974"	128	6.40810283333333
"S200311"	"Conflict_Resolution"	"LEFT"	"LEFT"	495.878400000038	916.6666685	""	n/a	n/a	n/a	"False"	n/a	n/a	"2020-03-11 13:14:19.849549"	"2020-03-11 13:14:20.553794"	129	6.40810283333333
"S200311"	"Conflict_Resolution"	"LEFT"	"LEFT"	495.313800000076	566.6666678	""	n/a	n/a	n/a	"False"	n/a	n/a	"2020-03-11 13:14:21.138839"	"2020-03-11 13:14:21.842880"	130	6.40810283333333
"S200311"	"Conflict_Resolution"	"RIGHT"	"RIGHT"	655.515700000024	700.0000014	""	n/a	n/a	n/a	"False"	n/a	n/a	"2020-03-11 13:14:22.562321"	"2020-03-11 13:14:23.426687"	131	6.40810283333333
"S200311"	"Conflict_Resolution"	"RIGHT"	"RIGHT"	665.298699999994	1416.6666695	""	n/a	n/a	n/a	"False"	n/a	n/a	"2020-03-11 13:14:24.864726"	"2020-03-11 13:14:25.739939"	132	6.40810283333333
"S200311"	"Conflict_Resolution"	"LEFT"	"LEFT"	598.046599999861	1500.000003	""	n/a	n/a	n/a	"True"	n/a	n/a	"2020-03-11 13:14:27.259721"	"2020-03-11 13:14:28.065109"	133	6.40810283333333
"S200311"	"Conflict_Resolution"	"RIGHT"	"RIGHT"	459.707399999843	1183.3333357	""	n/a	n/a	n/a	"False"	n/a	n/a	"2020-03-11 13:14:29.270007"	"2020-03-11 13:14:29.938479"	134	6.40810283333333
"S200311"	"Conflict_Resolution"	"RIGHT"	"RIGHT"	788.695899999993	1383.3333361	""	n/a	n/a	n/a	"False"	n/a	n/a	"2020-03-11 13:14:31.340889"	"2020-03-11 13:14:32.338139"	135	6.40810283333333
"S200311"	"Conflict_Resolution"	"RIGHT"	"RIGHT"	410.394399999859	1266.6666692	""	n/a	n/a	n/a	"False"	n/a	n/a	"2020-03-11 13:14:33.623759"	"2020-03-11 13:14:34.241761"	136	6.40810283333333
"S200311"	"Conflict_Resolution"	"RIGHT"	"RIGHT"	637.716399999817	1333.333336	""	n/a	n/a	n/a	"True"	n/a	n/a	"2020-03-11 13:14:35.595699"	"2020-03-11 13:14:36.441456"	137	6.40810283333333
"S200311"	"Conflict_Resolution"	"LEFT"	"LEFT"	717.975299999807	566.6666678	""	n/a	n/a	n/a	"True"	n/a	n/a	"2020-03-11 13:14:37.027971"	"2020-03-11 13:14:37.955302"	138	6.40810283333333
"S200311"	"Conflict_Resolution"	"LEFT"	"LEFT"	490.31459999992	1000.000002	""	n/a	n/a	n/a	"False"	n/a	n/a	"2020-03-11 13:14:38.975969"	"2020-03-11 13:14:39.673425"	139	6.40810283333333
"S200311"	"Conflict_Resolution"	"LEFT"	"LEFT"	584.564600000022	1300.0000026	""	n/a	n/a	n/a	"True"	n/a	n/a	"2020-03-11 13:14:40.992940"	"2020-03-11 13:14:41.786225"	140	6.40810283333333
"S200311"	"Conflict_Resolution"	"RIGHT"	"RIGHT"	635.133200000155	1183.3333357	""	n/a	n/a	n/a	"True"	n/a	n/a	"2020-03-11 13:14:42.990656"	"2020-03-11 13:14:43.833452"	141	6.40810283333333
"S200311"	"Conflict_Resolution"	"LEFT"	"LEFT"	644.513200000119	1150.0000023	""	n/a	n/a	n/a	"True"	n/a	n/a	"2020-03-11 13:14:45.004831"	"2020-03-11 13:14:45.858446"	142	6.40810283333333
"S200311"	"Conflict_Resolution"	"RIGHT"	"RIGHT"	748.102100000096	800.0000016	""	n/a	n/a	n/a	"False"	n/a	n/a	"2020-03-11 13:14:46.677872"	"2020-03-11 13:14:47.634745"	143	6.40810283333333
"S200311"	"Conflict_Resolution"	"LEFT"	"LEFT"	539.233099999819	816.6666683	""	n/a	n/a	n/a	"False"	n/a	n/a	"2020-03-11 13:14:48.470586"	"2020-03-11 13:14:49.218370"	144	6.40810283333333
"S200311"	"Conflict_Resolution"	"RIGHT"	"RIGHT"	668.867099999943	583.3333345	""	n/a	n/a	n/a	"False"	n/a	n/a	"2020-03-11 13:14:49.821314"	"2020-03-11 13:14:50.698905"	145	6.40810283333333
"S200311"	"Conflict_Resolution"	"LEFT"	"Time_Max_Exceeded"	1500.10259999999	900.0000018	""	n/a	n/a	n/a	"True"	n/a	n/a	"2020-03-11 13:14:51.618608"	"2020-03-11 13:14:53.119585"	146	6.40810283333333
"S200311"	"Conflict_Resolution"	"LEFT"	"LEFT"	415.887599999905	1366.6666694	""	n/a	n/a	n/a	"False"	n/a	n/a	"2020-03-11 13:14:54.505498"	"2020-03-11 13:14:55.129410"	147	6.40810283333333
"S200311"	"Conflict_Resolution"	"LEFT"	"LEFT"	648.689599999898	516.6666677	""	n/a	n/a	n/a	"True"	n/a	n/a	"2020-03-11 13:14:55.665116"	"2020-03-11 13:14:56.521331"	148	6.40810283333333
"S200311"	"Conflict_Resolution"	"LEFT"	"LEFT"	391.176099999939	1116.6666689	""	n/a	n/a	n/a	"False"	n/a	n/a	"2020-03-11 13:14:57.658111"	"2020-03-11 13:14:58.257122"	149	6.40810283333333
"S200311"	"Conflict_Resolution"	"RIGHT"	"RIGHT"	532.401800000116	1000.000002	""	n/a	n/a	n/a	"False"	n/a	n/a	"2020-03-11 13:14:59.277620"	"2020-03-11 13:15:00.018003"	150	6.40810283333333
"S200311"	"Conflict_Resolution"	"LEFT"	"LEFT"	613.909700000022	516.6666677	""	n/a	n/a	n/a	"False"	n/a	n/a	"2020-03-11 13:15:00.555638"	"2020-03-11 13:15:01.379062"	151	6.40810283333333
"S200311"	"Conflict_Resolution"	"RIGHT"	"RIGHT"	514.270399999987	833.333335	""	n/a	n/a	n/a	"True"	n/a	n/a	"2020-03-11 13:15:02.231398"	"2020-03-11 13:15:02.954590"	152	6.40810283333333
"S200311"	"Conflict_Resolution"	"LEFT"	"LEFT"	417.151999999987	1250.0000025	""	n/a	n/a	n/a	"False"	n/a	n/a	"2020-03-11 13:15:04.224204"	"2020-03-11 13:15:04.851746"	153	6.40810283333333
"S200311"	"Conflict_Resolution"	"LEFT"	"LEFT"	467.352899999923	1166.666669	""	n/a	n/a	n/a	"True"	n/a	n/a	"2020-03-11 13:15:06.038831"	"2020-03-11 13:15:06.713473"	154	6.40810283333333
"S200311"	"Conflict_Resolution"	"RIGHT"	"RIGHT"	498.289000000113	650.0000013	""	n/a	n/a	n/a	"False"	n/a	n/a	"2020-03-11 13:15:07.383671"	"2020-03-11 13:15:08.090281"	155	6.40810283333333
"S200311"	"Conflict_Resolution"	"RIGHT"	"RIGHT"	864.927100000159	1483.3333363	""	n/a	n/a	n/a	"True"	n/a	n/a	"2020-03-11 13:15:09.593292"	"2020-03-11 13:15:10.666564"	156	6.40810283333333
"S200311"	"Conflict_Resolution"	"LEFT"	"LEFT"	413.300400000026	950.0000019	""	n/a	n/a	n/a	"False"	n/a	n/a	"2020-03-11 13:15:11.636721"	"2020-03-11 13:15:12.258051"	157	6.40810283333333
"S200311"	"Conflict_Resolution"	"LEFT"	"LEFT"	536.433700000089	666.666668	""	n/a	n/a	n/a	"True"	n/a	n/a	"2020-03-11 13:15:12.945362"	"2020-03-11 13:15:13.689499"	158	6.40810283333333
"S200311"	"Conflict_Resolution"	"RIGHT"	"RIGHT"	575.881700000082	500.000001	""	n/a	n/a	n/a	"True"	n/a	n/a	"2020-03-11 13:15:14.209888"	"2020-03-11 13:15:14.994576"	159	6.40810283333333
"S200311"	"Conflict_Resolution"	"RIGHT"	"RIGHT"	791.491399999813	700.0000014	""	n/a	n/a	n/a	"True"	n/a	n/a	"2020-03-11 13:15:15.713893"	"2020-03-11 13:15:16.713712"	160	6.40810283333333
"S200311"	"Processing_Speed"	"RIGHT"	"DOWN"	615.831499999999	1466.6666696	""	n/a	n/a	n/a	n/a	n/a	n/a	"2020-03-11 12:58:04.450104"	"2020-03-11 12:58:05.286426"	1	1.95925595
"S200311"	"Processing_Speed"	"RIGHT"	"DOWN"	334.122800000003	916.6666685	""	n/a	n/a	n/a	n/a	n/a	n/a	"2020-03-11 12:58:06.212389"	"2020-03-11 12:58:06.754211"	2	1.95925595
"S200311"	"Processing_Speed"	"RIGHT"	"DOWN"	289.395399999989	1150.0000023	""	n/a	n/a	n/a	n/a	n/a	n/a	"2020-03-11 12:58:07.912821"	"2020-03-11 12:58:08.410834"	3	1.95925595
"S200311"	"Processing_Speed"	"LEFT"	"DOWN"	354.245500000005	700.0000014	""	n/a	n/a	n/a	n/a	n/a	n/a	"2020-03-11 12:58:09.120167"	"2020-03-11 12:58:09.682768"	4	1.95925595
"S200311"	"Processing_Speed"	"LEFT"	"DOWN"	287.20100000001	1400.0000028	""	n/a	n/a	n/a	n/a	n/a	n/a	"2020-03-11 12:58:11.091510"	"2020-03-11 12:58:11.586445"	5	1.95925595
"S200311"	"Processing_Speed"	"LEFT"	"DOWN"	285.130999999993	1050.0000021	""	n/a	n/a	n/a	n/a	n/a	n/a	"2020-03-11 12:58:12.645026"	"2020-03-11 12:58:13.138185"	6	1.95925595
"S200311"	"Processing_Speed"	"LEFT"	"DOWN"	364.122200000011	666.666668	""	n/a	n/a	n/a	n/a	n/a	n/a	"2020-03-11 12:58:13.814727"	"2020-03-11 12:58:14.387331"	7	1.95925595
"S200311"	"Processing_Speed"	"LEFT"	"DOWN"	278.465100000005	600.0000012	""	n/a	n/a	n/a	n/a	n/a	n/a	"2020-03-11 12:58:14.995676"	"2020-03-11 12:58:15.482334"	8	1.95925595
"S200311"	"Processing_Speed"	"RIGHT"	"DOWN"	273.823399999998	883.3333351	""	n/a	n/a	n/a	n/a	n/a	n/a	"2020-03-11 12:58:16.376585"	"2020-03-11 12:58:16.858887"	9	1.95925595
"S200311"	"Processing_Speed"	"RIGHT"	"DOWN"	269.808499999982	1400.0000028	""	n/a	n/a	n/a	n/a	n/a	n/a	"2020-03-11 12:58:18.268508"	"2020-03-11 12:58:18.747019"	10	1.95925595
"S200311"	"Processing_Speed"	"LEFT"	"DOWN"	271.514999999994	733.3333348	""	n/a	n/a	n/a	n/a	n/a	n/a	"2020-03-11 12:58:19.490801"	"2020-03-11 12:58:19.971013"	11	1.95925595
"S200311"	"Processing_Speed"	"RIGHT"	"DOWN"	355.998800000009	1050.0000021	""	n/a	n/a	n/a	n/a	n/a	n/a	"2020-03-11 12:58:21.030432"	"2020-03-11 12:58:21.597007"	12	1.95925595
"S200311"	"Processing_Speed"	"RIGHT"	"DOWN"	338.151000000011	1433.3333362	""	n/a	n/a	n/a	n/a	n/a	n/a	"2020-03-11 12:58:23.040300"	"2020-03-11 12:58:23.586642"	13	1.95925595
"S200311"	"Processing_Speed"	"RIGHT"	"DOWN"	314.031599999993	733.3333348	""	n/a	n/a	n/a	n/a	n/a	n/a	"2020-03-11 12:58:24.328210"	"2020-03-11 12:58:24.851533"	14	1.95925595
"S200311"	"Processing_Speed"	"LEFT"	"DOWN"	285.156999999998	950.0000019	""	n/a	n/a	n/a	n/a	n/a	n/a	"2020-03-11 12:58:25.813042"	"2020-03-11 12:58:26.307405"	15	1.95925595
"S200311"	"Processing_Speed"	"RIGHT"	"DOWN"	265.431999999976	1300.0000026	""	n/a	n/a	n/a	n/a	n/a	n/a	"2020-03-11 12:58:27.616937"	"2020-03-11 12:58:28.091663"	16	1.95925595
"S200311"	"Processing_Speed"	"RIGHT"	"DOWN"	275.149400000004	1266.6666692	""	n/a	n/a	n/a	n/a	n/a	n/a	"2020-03-11 12:58:29.367665"	"2020-03-11 12:58:29.851369"	17	1.95925595
"S200311"	"Processing_Speed"	"RIGHT"	"DOWN"	374.540200000013	783.3333349	""	n/a	n/a	n/a	n/a	n/a	n/a	"2020-03-11 12:58:30.644110"	"2020-03-11 12:58:31.227564"	18	1.95925595
"S200311"	"Processing_Speed"	"RIGHT"	"DOWN"	333.401000000009	600.0000012	""	n/a	n/a	n/a	n/a	n/a	n/a	"2020-03-11 12:58:31.837211"	"2020-03-11 12:58:32.378410"	19	1.95925595
"S200311"	"Processing_Speed"	"LEFT"	"DOWN"	269.859200000013	1216.6666691	""	n/a	n/a	n/a	n/a	n/a	n/a	"2020-03-11 12:58:33.605195"	"2020-03-11 12:58:34.082098"	20	1.95925595
"S200311"	"Processing_Speed"	"RIGHT"	"DOWN"	291.085199999998	1083.3333355	""	n/a	n/a	n/a	n/a	n/a	n/a	"2020-03-11 12:58:35.175279"	"2020-03-11 12:58:35.674585"	21	1.95925595
"S200311"	"Processing_Speed"	"RIGHT"	"DOWN"	379.171299999996	500.000001	"DOWN"	-496.221	n/a	n/a	n/a	n/a	n/a	"2020-03-11 12:58:36.182805"	"2020-03-11 12:58:36.770880"	22	1.95925595
"S200311"	"Processing_Speed"	"LEFT"	"DOWN"	316.682799999995	1016.6666687	""	n/a	n/a	n/a	n/a	n/a	n/a	"2020-03-11 12:58:37.797768"	"2020-03-11 12:58:38.321295"	23	1.95925595
"S200311"	"Processing_Speed"	"RIGHT"	"DOWN"	319.869600000004	1016.6666687	""	n/a	n/a	n/a	n/a	n/a	n/a	"2020-03-11 12:58:39.346453"	"2020-03-11 12:58:39.875672"	24	1.95925595
"S200311"	"Processing_Speed"	"LEFT"	"DOWN"	399.563299999983	566.6666678	""	n/a	n/a	n/a	n/a	n/a	n/a	"2020-03-11 12:58:40.450723"	"2020-03-11 12:58:41.059578"	25	1.95925595
"S200311"	"Processing_Speed"	"RIGHT"	"DOWN"	343.932300000006	950.0000019	""	n/a	n/a	n/a	n/a	n/a	n/a	"2020-03-11 12:58:42.018242"	"2020-03-11 12:58:42.570959"	26	1.95925595
"S200311"	"Processing_Speed"	"LEFT"	"DOWN"	338.455699999997	1083.3333355	""	n/a	n/a	n/a	n/a	n/a	n/a	"2020-03-11 12:58:43.663609"	"2020-03-11 12:58:44.210210"	27	1.95925595
"S200311"	"Processing_Speed"	"RIGHT"	"DOWN"	305.881199999988	700.0000014	""	n/a	n/a	n/a	n/a	n/a	n/a	"2020-03-11 12:58:44.920666"	"2020-03-11 12:58:45.434270"	28	1.95925595
"S200311"	"Processing_Speed"	"LEFT"	"DOWN"	323.478999999992	500.000001	""	n/a	n/a	n/a	n/a	n/a	n/a	"2020-03-11 12:58:45.942910"	"2020-03-11 12:58:46.475332"	29	1.95925595
"S200311"	"Processing_Speed"	"LEFT"	"DOWN"	290.936000000016	850.0000017	""	n/a	n/a	n/a	n/a	n/a	n/a	"2020-03-11 12:58:47.335590"	"2020-03-11 12:58:47.836367"	30	1.95925595
"S200311"	"Processing_Speed"	"RIGHT"	"DOWN"	277.491099999992	983.3333353	""	n/a	n/a	n/a	n/a	n/a	n/a	"2020-03-11 12:58:48.829534"	"2020-03-11 12:58:49.316024"	31	1.95925595
"S200311"	"Processing_Speed"	"RIGHT"	"DOWN"	348.945499999985	1216.6666691	""	n/a	n/a	n/a	n/a	n/a	n/a	"2020-03-11 12:58:50.540989"	"2020-03-11 12:58:51.098630"	32	1.95925595
"S200311"	"Processing_Speed"	"RIGHT"	"DOWN"	391.549999999995	566.6666678	""	n/a	n/a	n/a	n/a	n/a	n/a	"2020-03-11 12:58:51.675186"	"2020-03-11 12:58:52.275732"	33	1.95925595
"S200311"	"Processing_Speed"	"LEFT"	"DOWN"	310.947900000002	983.3333353	""	n/a	n/a	n/a	n/a	n/a	n/a	"2020-03-11 12:58:53.268639"	"2020-03-11 12:58:53.787759"	34	1.95925595
"S200311"	"Processing_Speed"	"RIGHT"	"DOWN"	307.69890000002	850.0000017	""	n/a	n/a	n/a	n/a	n/a	n/a	"2020-03-11 12:58:54.646883"	"2020-03-11 12:58:55.163500"	35	1.95925595
"S200311"	"Processing_Speed"	"LEFT"	"DOWN"	306.267399999996	1300.0000026	""	n/a	n/a	n/a	n/a	n/a	n/a	"2020-03-11 12:58:56.471908"	"2020-03-11 12:58:56.987108"	36	1.95925595
"S200311"	"Processing_Speed"	"LEFT"	"DOWN"	276.68300000002	1433.3333362	""	n/a	n/a	n/a	n/a	n/a	n/a	"2020-03-11 12:58:58.429325"	"2020-03-11 12:58:58.914128"	37	1.95925595
"S200311"	"Processing_Speed"	"LEFT"	"DOWN"	276.467700000012	883.3333351	""	n/a	n/a	n/a	n/a	n/a	n/a	"2020-03-11 12:58:59.806388"	"2020-03-11 12:59:00.291279"	38	1.95925595
"S200311"	"Processing_Speed"	"RIGHT"	"DOWN"	322.21229999999	1500.000003	""	n/a	n/a	n/a	n/a	n/a	n/a	"2020-03-11 12:59:01.800026"	"2020-03-11 12:59:02.330685"	39	1.95925595
"S200311"	"Processing_Speed"	"RIGHT"	"DOWN"	309.18299999999	633.3333346	""	n/a	n/a	n/a	n/a	n/a	n/a	"2020-03-11 12:59:02.973499"	"2020-03-11 12:59:03.490705"	40	1.95925595
"S200311"	"Processing_Speed"	"LEFT"	"DOWN"	280.025099999989	533.3333344	""	n/a	n/a	n/a	n/a	n/a	n/a	"2020-03-11 12:59:04.034439"	"2020-03-11 12:59:04.524598"	41	1.95925595
"S200311"	"Processing_Speed"	"RIGHT"	"DOWN"	279.827399999988	533.3333344	""	n/a	n/a	n/a	n/a	n/a	n/a	"2020-03-11 12:59:05.066731"	"2020-03-11 12:59:05.554273"	42	1.95925595
"S200311"	"Processing_Speed"	"LEFT"	"DOWN"	215.588099999991	783.3333349	""	n/a	n/a	n/a	n/a	n/a	n/a	"2020-03-11 12:59:06.347296"	"2020-03-11 12:59:06.771141"	43	1.95925595
"S200311"	"Processing_Speed"	"LEFT"	"DOWN"	303.237299999978	1366.6666694	""	n/a	n/a	n/a	n/a	n/a	n/a	"2020-03-11 12:59:08.147559"	"2020-03-11 12:59:08.659192"	44	1.95925595
"S200311"	"Processing_Speed"	"RIGHT"	"DOWN"	303.748399999989	1366.6666694	""	n/a	n/a	n/a	n/a	n/a	n/a	"2020-03-11 12:59:10.035178"	"2020-03-11 12:59:10.547191"	45	1.95925595
"S200311"	"Processing_Speed"	"LEFT"	"DOWN"	288.617200000004	1500.000003	""	n/a	n/a	n/a	n/a	n/a	n/a	"2020-03-11 12:59:12.057755"	"2020-03-11 12:59:12.555810"	46	1.95925595
"S200311"	"Processing_Speed"	"RIGHT"	"DOWN"	385.1966	1116.6666689	""	n/a	n/a	n/a	n/a	n/a	n/a	"2020-03-11 12:59:13.681703"	"2020-03-11 12:59:14.274110"	47	1.95925595
"S200311"	"Processing_Speed"	"RIGHT"	"DOWN"	330.541099999976	1333.333336	""	n/a	n/a	n/a	n/a	n/a	n/a	"2020-03-11 12:59:15.615726"	"2020-03-11 12:59:16.154112"	48	1.95925595
"S200311"	"Processing_Speed"	"LEFT"	"DOWN"	289.3349	916.6666685	""	n/a	n/a	n/a	n/a	n/a	n/a	"2020-03-11 12:59:17.080399"	"2020-03-11 12:59:17.578112"	49	1.95925595
"S200311"	"Processing_Speed"	"LEFT"	"DOWN"	314.539800000006	1333.333336	""	n/a	n/a	n/a	n/a	n/a	n/a	"2020-03-11 12:59:18.919990"	"2020-03-11 12:59:19.443943"	50	1.95925595
"S200311"	"Processing_Speed"	"LEFT"	"DOWN"	294.568100000021	1183.3333357	""	n/a	n/a	n/a	n/a	n/a	n/a	"2020-03-11 12:59:20.635467"	"2020-03-11 12:59:21.138142"	51	1.95925595
"S200311"	"Processing_Speed"	"LEFT"	"DOWN"	319.254300000011	816.6666683	""	n/a	n/a	n/a	n/a	n/a	n/a	"2020-03-11 12:59:21.963633"	"2020-03-11 12:59:22.490820"	52	1.95925595
"S200311"	"Processing_Speed"	"RIGHT"	"DOWN"	316.10839999999	666.666668	""	n/a	n/a	n/a	n/a	n/a	n/a	"2020-03-11 12:59:23.166378"	"2020-03-11 12:59:23.691375"	53	1.95925595
"S200311"	"Processing_Speed"	"LEFT"	"DOWN"	285.23229999999	633.3333346	""	n/a	n/a	n/a	n/a	n/a	n/a	"2020-03-11 12:59:24.332923"	"2020-03-11 12:59:24.826771"	54	1.95925595
"S200311"	"Processing_Speed"	"LEFT"	"DOWN"	328.075000000013	1150.0000023	""	n/a	n/a	n/a	n/a	n/a	n/a	"2020-03-11 12:59:25.986081"	"2020-03-11 12:59:26.522412"	55	1.95925595
"S200311"	"Processing_Speed"	"LEFT"	"DOWN"	242.458499999998	1116.6666689	""	n/a	n/a	n/a	n/a	n/a	n/a	"2020-03-11 12:59:27.648193"	"2020-03-11 12:59:28.097416"	56	1.95925595
"S200311"	"Processing_Speed"	"RIGHT"	"DOWN"	344.011600000016	1183.3333357	""	n/a	n/a	n/a	n/a	n/a	n/a	"2020-03-11 12:59:29.290331"	"2020-03-11 12:59:29.842192"	57	1.95925595
"S200311"	"Processing_Speed"	"RIGHT"	"DOWN"	358.759600000013	816.6666683	""	n/a	n/a	n/a	n/a	n/a	n/a	"2020-03-11 12:59:30.667617"	"2020-03-11 12:59:31.234148"	58	1.95925595
"S200311"	"Processing_Speed"	"LEFT"	"DOWN"	357.028400000019	1266.6666692	""	n/a	n/a	n/a	n/a	n/a	n/a	"2020-03-11 12:59:32.508882"	"2020-03-11 12:59:33.074297"	59	1.95925595
"S200311"	"Processing_Speed"	"LEFT"	"DOWN"	364.669200000009	1466.6666696	""	n/a	n/a	n/a	n/a	n/a	n/a	"2020-03-11 12:59:34.549839"	"2020-03-11 12:59:35.122529"	60	1.95925595
"S200311"	"Response_Inhibition"	"RIGHT"	"RIGHT"	376.898367300031	766.6666682	""	n/a	n/a	n/a	n/a	n/a	n/a	"2020-03-11 13:03:10.350114"	"2020-03-11 13:03:10.939219"	1	6.40208403333333
"S200311"	"Response_Inhibition"	"RIGHT"	"RIGHT"	408.350167199999	666.666668	""	n/a	n/a	n/a	n/a	n/a	n/a	"2020-03-11 13:03:11.614816"	"2020-03-11 13:03:12.234177"	2	6.40208403333333
"S200311"	"Response_Inhibition"	"LEFT"	"LEFT"	356.750499999976	666.666668	""	n/a	n/a	n/a	n/a	n/a	n/a	"2020-03-11 13:03:12.909634"	"2020-03-11 13:03:13.475860"	3	6.40208403333333
"S200311"	"Response_Inhibition"	"RIGHT"	"RIGHT"	514.271500000007	1466.6666696	""	n/a	n/a	n/a	n/a	n/a	n/a	"2020-03-11 13:03:14.952072"	"2020-03-11 13:03:15.674321"	4	6.40208403333333
"S200311"	"Response_Inhibition"	"LEFT"	"LEFT"	424.910600000032	533.3333344	""	n/a	n/a	n/a	n/a	n/a	n/a	"2020-03-11 13:03:16.217582"	"2020-03-11 13:03:16.849509"	5	6.40208403333333
"S200311"	"Response_Inhibition"	"LEFT"	"LEFT"	563.027900000009	733.3333348	""	n/a	n/a	n/a	n/a	n/a	n/a	"2020-03-11 13:03:17.591718"	"2020-03-11 13:03:18.363766"	6	6.40208403333333
"S200311"	"Response_Inhibition"	"RIGHT"	"RIGHT"	522.205900000017	683.3333347	""	n/a	n/a	n/a	n/a	n/a	n/a	"2020-03-11 13:03:19.056038"	"2020-03-11 13:03:19.787888"	7	6.40208403333333
"S200311"	"Response_Inhibition"	"LEFT"	"LEFT"	411.492199999998	1433.3333362	""	n/a	n/a	n/a	n/a	n/a	n/a	"2020-03-11 13:03:21.230538"	"2020-03-11 13:03:21.849498"	8	6.40208403333333
"S200311"	"Response_Inhibition"	"LEFT"	"LEFT"	503.705600000046	616.6666679	""	n/a	n/a	n/a	n/a	n/a	n/a	"2020-03-11 13:03:22.474833"	"2020-03-11 13:03:23.186379"	9	6.40208403333333
"S200311"	"Response_Inhibition"	"RIGHT"	"RIGHT"	470.83520000001	983.3333353	""	n/a	n/a	n/a	n/a	n/a	n/a	"2020-03-11 13:03:24.179627"	"2020-03-11 13:03:24.858808"	10	6.40208403333333
"S200311"	"Response_Inhibition"	"LEFT"	"Time_Max_Exceeded"	1500.06696709998	1333.333336	""	n/a	n/a	n/a	n/a	n/a	n/a	"2020-03-11 13:03:26.201080"	"2020-03-11 13:03:27.704445"	11	6.40208403333333
"S200311"	"Response_Inhibition"	"RIGHT"	"RIGHT"	666.629300000011	1316.6666693	""	n/a	n/a	n/a	n/a	n/a	n/a	"2020-03-11 13:03:29.031312"	"2020-03-11 13:03:29.907604"	12	6.40208403333333
"S200311"	"Response_Inhibition"	"RIGHT"	"Time_Max_Exceeded"	1500.05966729997	966.6666686	""	n/a	n/a	n/a	n/a	n/a	n/a	"2020-03-11 13:03:30.882806"	"2020-03-11 13:03:32.386677"	13	6.40208403333333
"S200311"	"Response_Inhibition"	"LEFT"	"LEFT"	690.37510000004	1266.6666692	""	n/a	n/a	n/a	n/a	n/a	n/a	"2020-03-11 13:03:33.663967"	"2020-03-11 13:03:34.562150"	14	6.40208403333333
"S200311"	"Response_Inhibition"	"LEFT"	"LEFT"	859.340199999963	1466.6666696	""	n/a	n/a	n/a	n/a	n/a	n/a	"2020-03-11 13:03:36.039239"	"2020-03-11 13:03:37.106581"	15	6.40208403333333
"S200311"	"Response_Inhibition"	"RIGHT"	"Time_Max_Exceeded"	1500.04700070003	1250.0000025	""	n/a	n/a	n/a	n/a	n/a	n/a	"2020-03-11 13:03:38.365734"	"2020-03-11 13:03:39.868660"	16	6.40208403333333
"S200311"	"Response_Inhibition"	"LEFT"	"Time_Max_Exceeded"	1500.05096689999	1200.0000024	""	n/a	n/a	n/a	n/a	n/a	n/a	"2020-03-11 13:03:41.078176"	"2020-03-11 13:03:42.582224"	17	6.40208403333333
"S200311"	"Response_Inhibition"	"RIGHT"	"Time_Max_Exceeded"	1500.06123389997	800.0000016	""	n/a	n/a	n/a	n/a	n/a	n/a	"2020-03-11 13:03:43.391351"	"2020-03-11 13:03:44.894652"	18	6.40208403333333
"S200311"	"Response_Inhibition"	"LEFT"	"Time_Max_Exceeded"	1500.04800009998	683.3333347	""	n/a	n/a	n/a	n/a	n/a	n/a	"2020-03-11 13:03:45.587763"	"2020-03-11 13:03:47.090672"	19	6.40208403333333
"S200311"	"Response_Inhibition"	"RIGHT"	"RIGHT"	768.94870000001	700.0000014	""	n/a	n/a	n/a	n/a	n/a	n/a	"2020-03-11 13:03:47.801385"	"2020-03-11 13:03:48.778124"	20	6.40208403333333
"S200311"	"Response_Inhibition"	"LEFT"	"LEFT"	895.178999999985	783.3333349	""	n/a	n/a	n/a	n/a	n/a	n/a	"2020-03-11 13:03:49.570604"	"2020-03-11 13:03:50.674310"	21	6.40208403333333
"S200311"	"Response_Inhibition"	"RIGHT"	"RIGHT"	1135.12430000003	1400.0000028	""	n/a	n/a	n/a	n/a	n/a	n/a	"2020-03-11 13:03:52.082934"	"2020-03-11 13:03:53.427282"	22	6.40208403333333
"S200311"	"Response_Inhibition"	"RIGHT"	"Time_Max_Exceeded"	1500.04990060001	933.3333352	""	n/a	n/a	n/a	n/a	n/a	n/a	"2020-03-11 13:03:54.371002"	"2020-03-11 13:03:55.873822"	23	6.40208403333333
"S200311"	"Response_Inhibition"	"LEFT"	"LEFT"	813.069999999982	833.333335	""	n/a	n/a	n/a	n/a	n/a	n/a	"2020-03-11 13:03:56.717313"	"2020-03-11 13:03:57.738810"	24	6.40208403333333
"S200311"	"Response_Inhibition"	"RIGHT"	"RIGHT"	974.960099999976	1200.0000024	""	n/a	n/a	n/a	n/a	n/a	n/a	"2020-03-11 13:03:58.947597"	"2020-03-11 13:04:00.130664"	25	6.40208403333333
"S200311"	"Response_Inhibition"	"LEFT"	"LEFT"	690.962500000012	683.3333347	""	n/a	n/a	n/a	n/a	n/a	n/a	"2020-03-11 13:04:00.823055"	"2020-03-11 13:04:01.721325"	26	6.40208403333333
"S200311"	"Response_Inhibition"	"RIGHT"	"RIGHT"	941.424799999993	1050.0000021	""	n/a	n/a	n/a	n/a	n/a	n/a	"2020-03-11 13:04:02.780747"	"2020-03-11 13:04:03.931874"	27	6.40208403333333
"S200311"	"Response_Inhibition"	"RIGHT"	"RIGHT"	652.719100000013	1416.6666695	""	n/a	n/a	n/a	n/a	n/a	n/a	"2020-03-11 13:04:05.357501"	"2020-03-11 13:04:06.218464"	28	6.40208403333333
"S200311"	"Response_Inhibition"	"LEFT"	"LEFT"	886.058800000001	1000.000002	""	n/a	n/a	n/a	n/a	n/a	n/a	"2020-03-11 13:04:07.228224"	"2020-03-11 13:04:08.321462"	29	6.40208403333333
"S200311"	"Response_Inhibition"	"RIGHT"	"RIGHT"	965.678300000036	1450.0000029	""	n/a	n/a	n/a	n/a	n/a	n/a	"2020-03-11 13:04:09.780181"	"2020-03-11 13:04:10.955090"	30	6.40208403333333
"S200311"	"Response_Inhibition"	"RIGHT"	"Time_Max_Exceeded"	1500.06293390001	1000.000002	""	n/a	n/a	n/a	n/a	n/a	n/a	"2020-03-11 13:04:11.963592"	"2020-03-11 13:04:13.467541"	31	6.40208403333333
"S200311"	"Response_Inhibition"	"LEFT"	"Time_Max_Exceeded"	1500.09370059997	1266.6666692	""	n/a	n/a	n/a	n/a	n/a	n/a	"2020-03-11 13:04:14.743669"	"2020-03-11 13:04:16.247342"	32	6.40208403333333
"S200311"	"Response_Inhibition"	"RIGHT"	"RIGHT"	1078.5535	633.3333346	""	n/a	n/a	n/a	n/a	n/a	n/a	"2020-03-11 13:04:16.891621"	"2020-03-11 13:04:18.178204"	33	6.40208403333333
"S200311"	"Response_Inhibition"	"LEFT"	"LEFT"	917.747800000029	1233.3333358	""	n/a	n/a	n/a	n/a	n/a	n/a	"2020-03-11 13:04:19.419964"	"2020-03-11 13:04:20.545316"	34	6.40208403333333
"S200311"	"Response_Inhibition"	"LEFT"	"LEFT"	1187.6833	900.0000018	""	n/a	n/a	n/a	n/a	n/a	n/a	"2020-03-11 13:04:21.454603"	"2020-03-11 13:04:22.849525"	35	6.40208403333333
"S200311"	"Response_Inhibition"	"RIGHT"	"Time_Max_Exceeded"	1500.05116700002	750.0000015	""	n/a	n/a	n/a	n/a	n/a	n/a	"2020-03-11 13:04:23.611429"	"2020-03-11 13:04:25.115293"	36	6.40208403333333
"S200311"	"Response_Inhibition"	"RIGHT"	"RIGHT"	859.078699999998	883.3333351	""	n/a	n/a	n/a	n/a	n/a	n/a	"2020-03-11 13:04:26.007486"	"2020-03-11 13:04:27.073225"	37	6.40208403333333
"S200311"	"Response_Inhibition"	"LEFT"	"Time_Max_Exceeded"	1500.05653359997	1150.0000023	""	n/a	n/a	n/a	n/a	n/a	n/a	"2020-03-11 13:04:28.233360"	"2020-03-11 13:04:29.737328"	38	6.40208403333333
"S200311"	"Response_Inhibition"	"LEFT"	"LEFT"	693.87340000003	633.3333346	""	n/a	n/a	n/a	n/a	n/a	n/a	"2020-03-11 13:04:30.380127"	"2020-03-11 13:04:31.282653"	39	6.40208403333333
"S200311"	"Response_Inhibition"	"RIGHT"	"Time_Max_Exceeded"	1500.0599671	1316.6666693	""	n/a	n/a	n/a	n/a	n/a	n/a	"2020-03-11 13:04:32.610072"	"2020-03-11 13:04:34.113538"	40	6.40208403333333
"S200311"	"Response_Inhibition"	"LEFT"	"Time_Max_Exceeded"	1500.08270050001	1416.6666695	""	n/a	n/a	n/a	n/a	n/a	n/a	"2020-03-11 13:04:35.540488"	"2020-03-11 13:04:37.044404"	41	6.40208403333333
"S200311"	"Response_Inhibition"	"LEFT"	"LEFT"	899.248100000023	1450.0000029	""	n/a	n/a	n/a	n/a	n/a	n/a	"2020-03-11 13:04:38.502899"	"2020-03-11 13:04:39.610681"	42	6.40208403333333
"S200311"	"Response_Inhibition"	"LEFT"	"Time_Max_Exceeded"	1500.08160000004	566.6666678	""	n/a	n/a	n/a	n/a	n/a	n/a	"2020-03-11 13:04:40.186139"	"2020-03-11 13:04:41.686456"	43	6.40208403333333
"S200311"	"Response_Inhibition"	"RIGHT"	"RIGHT"	597.661799999969	1300.0000026	"LEFT"	-1293.482	n/a	n/a	n/a	n/a	n/a	"2020-03-11 13:04:42.996873"	"2020-03-11 13:04:43.802320"	44	6.40208403333333
"S200311"	"Response_Inhibition"	"RIGHT"	"Time_Max_Exceeded"	1500.06713340004	1033.3333354	""	n/a	n/a	n/a	n/a	n/a	n/a	"2020-03-11 13:04:44.845342"	"2020-03-11 13:04:46.349081"	45	6.40208403333333
"S200311"	"Response_Inhibition"	"LEFT"	"LEFT"	817.655300000069	850.0000017	""	n/a	n/a	n/a	n/a	n/a	n/a	"2020-03-11 13:04:47.208115"	"2020-03-11 13:04:48.235152"	46	6.40208403333333
"S200311"	"Response_Inhibition"	"RIGHT"	"RIGHT"	436.938599999962	833.333335	""	n/a	n/a	n/a	n/a	n/a	n/a	"2020-03-11 13:04:49.077456"	"2020-03-11 13:04:49.721949"	47	6.40208403333333
"S200311"	"Response_Inhibition"	"LEFT"	"LEFT"	849.281399999995	1350.0000027	""	n/a	n/a	n/a	n/a	n/a	n/a	"2020-03-11 13:04:51.081408"	"2020-03-11 13:04:52.138751"	48	6.40208403333333
"S200311"	"Response_Inhibition"	"RIGHT"	"RIGHT"	840.601600000014	950.0000019	""	n/a	n/a	n/a	n/a	n/a	n/a	"2020-03-11 13:04:53.098028"	"2020-03-11 13:04:54.146594"	49	6.40208403333333
"S200311"	"Response_Inhibition"	"RIGHT"	"RIGHT"	840.734699999985	1150.0000023	""	n/a	n/a	n/a	n/a	n/a	n/a	"2020-03-11 13:04:55.305206"	"2020-03-11 13:04:56.353168"	50	6.40208403333333
"S200311"	"Response_Inhibition"	"RIGHT"	"RIGHT"	973.584699999947	1233.3333358	""	n/a	n/a	n/a	n/a	n/a	n/a	"2020-03-11 13:04:57.596978"	"2020-03-11 13:04:58.779534"	51	6.40208403333333
"S200311"	"Response_Inhibition"	"RIGHT"	"RIGHT"	890.809699999977	1433.3333362	""	n/a	n/a	n/a	n/a	n/a	n/a	"2020-03-11 13:05:00.223177"	"2020-03-11 13:05:01.324052"	52	6.40208403333333
"S200311"	"Response_Inhibition"	"RIGHT"	"RIGHT"	1063.89879999995	916.6666685	""	n/a	n/a	n/a	n/a	n/a	n/a	"2020-03-11 13:05:02.250008"	"2020-03-11 13:05:03.521325"	53	6.40208403333333
"S200311"	"Response_Inhibition"	"LEFT"	"Time_Max_Exceeded"	1500.04940020006	1050.0000021	""	n/a	n/a	n/a	n/a	n/a	n/a	"2020-03-11 13:05:04.579761"	"2020-03-11 13:05:06.083203"	54	6.40208403333333
"S200311"	"Response_Inhibition"	"RIGHT"	"RIGHT"	957.091799999944	1000.000002	""	n/a	n/a	n/a	n/a	n/a	n/a	"2020-03-11 13:05:07.092743"	"2020-03-11 13:05:08.258848"	55	6.40208403333333
"S200311"	"Response_Inhibition"	"LEFT"	"LEFT"	953.86469999994	500.000001	""	n/a	n/a	n/a	n/a	n/a	n/a	"2020-03-11 13:05:08.768587"	"2020-03-11 13:05:09.931653"	56	6.40208403333333
"S200311"	"Response_Inhibition"	"LEFT"	"LEFT"	890.495600000008	850.0000017	""	n/a	n/a	n/a	n/a	n/a	n/a	"2020-03-11 13:05:10.791237"	"2020-03-11 13:05:11.891042"	57	6.40208403333333
"S200311"	"Response_Inhibition"	"RIGHT"	"RIGHT"	887.158999999997	1350.0000027	""	n/a	n/a	n/a	n/a	n/a	n/a	"2020-03-11 13:05:13.250646"	"2020-03-11 13:05:14.345802"	58	6.40208403333333
"S200311"	"Response_Inhibition"	"LEFT"	"LEFT"	953.588299999979	1150.0000023	""	n/a	n/a	n/a	n/a	n/a	n/a	"2020-03-11 13:05:15.504956"	"2020-03-11 13:05:16.666123"	59	6.40208403333333
"S200311"	"Response_Inhibition"	"LEFT"	"LEFT"	881.697599999939	1100.0000022	""	n/a	n/a	n/a	n/a	n/a	n/a	"2020-03-11 13:05:17.776092"	"2020-03-11 13:05:18.865934"	60	6.40208403333333
"S200311"	"Response_Inhibition"	"LEFT"	"LEFT"	1081.54239999999	1316.6666693	""	n/a	n/a	n/a	n/a	n/a	n/a	"2020-03-11 13:05:20.192831"	"2020-03-11 13:05:21.482017"	61	6.40208403333333
"S200311"	"Response_Inhibition"	"RIGHT"	"Time_Max_Exceeded"	1500.05400040005	900.0000018	""	n/a	n/a	n/a	n/a	n/a	n/a	"2020-03-11 13:05:22.391393"	"2020-03-11 13:05:23.895292"	62	6.40208403333333
"S200311"	"Response_Inhibition"	"RIGHT"	"RIGHT"	833.375000000046	600.0000012	""	n/a	n/a	n/a	n/a	n/a	n/a	"2020-03-11 13:05:24.504587"	"2020-03-11 13:05:25.546934"	63	6.40208403333333
"S200311"	"Response_Inhibition"	"LEFT"	"Time_Max_Exceeded"	1500.05500069995	1283.3333359	""	n/a	n/a	n/a	n/a	n/a	n/a	"2020-03-11 13:05:26.840358"	"2020-03-11 13:05:28.344113"	64	6.40208403333333
"S200311"	"Response_Inhibition"	"LEFT"	"LEFT"	837.716799999953	1083.3333355	""	n/a	n/a	n/a	n/a	n/a	n/a	"2020-03-11 13:05:29.436743"	"2020-03-11 13:05:30.482971"	65	6.40208403333333
"S200311"	"Response_Inhibition"	"LEFT"	"Time_Max_Exceeded"	1500.09840000007	516.6666677	""	n/a	n/a	n/a	n/a	n/a	n/a	"2020-03-11 13:05:31.009013"	"2020-03-11 13:05:32.508847"	66	6.40208403333333
"S200311"	"Response_Inhibition"	"LEFT"	"LEFT"	900.67339999996	933.3333352	""	n/a	n/a	n/a	n/a	n/a	n/a	"2020-03-11 13:05:33.453194"	"2020-03-11 13:05:34.562894"	67	6.40208403333333
"S200311"	"Response_Inhibition"	"LEFT"	"LEFT"	1110.03859999994	1216.6666691	""	n/a	n/a	n/a	n/a	n/a	n/a	"2020-03-11 13:05:35.787659"	"2020-03-11 13:05:37.106923"	68	6.40208403333333
"S200311"	"Response_Inhibition"	"LEFT"	"Time_Max_Exceeded"	1500.0469338	750.0000015	""	n/a	n/a	n/a	n/a	n/a	n/a	"2020-03-11 13:05:37.866371"	"2020-03-11 13:05:39.369967"	69	6.40208403333333
"S200311"	"Response_Inhibition"	"LEFT"	"LEFT"	784.919299999956	1366.6666694	""	n/a	n/a	n/a	n/a	n/a	n/a	"2020-03-11 13:05:40.746581"	"2020-03-11 13:05:41.740742"	70	6.40208403333333
"S200311"	"Response_Inhibition"	"RIGHT"	"Time_Max_Exceeded"	1500.06829999995	1083.3333355	""	n/a	n/a	n/a	n/a	n/a	n/a	"2020-03-11 13:05:42.833816"	"2020-03-11 13:05:44.334318"	71	6.40208403333333
"S200311"	"Response_Inhibition"	"LEFT"	"LEFT"	564.430700000003	1166.666669	"RIGHT"	-1079.883	n/a	n/a	n/a	n/a	n/a	"2020-03-11 13:05:45.509970"	"2020-03-11 13:05:46.284360"	72	6.40208403333333
"S200311"	"Response_Inhibition"	"RIGHT"	"Time_Max_Exceeded"	1500.05996700001	1500.000003	""	n/a	n/a	n/a	n/a	n/a	n/a	"2020-03-11 13:05:47.795759"	"2020-03-11 13:05:49.299494"	73	6.40208403333333
"S200311"	"Response_Inhibition"	"RIGHT"	"RIGHT"	569.857400000046	850.0000017	""	n/a	n/a	n/a	n/a	n/a	n/a	"2020-03-11 13:05:50.160896"	"2020-03-11 13:05:50.938870"	74	6.40208403333333
"S200311"	"Response_Inhibition"	"LEFT"	"LEFT"	824.344599999904	1133.3333356	""	n/a	n/a	n/a	n/a	n/a	n/a	"2020-03-11 13:05:52.082185"	"2020-03-11 13:05:53.113802"	75	6.40208403333333
"S200311"	"Response_Inhibition"	"LEFT"	"LEFT"	804.531999999995	633.3333346	""	n/a	n/a	n/a	n/a	n/a	n/a	"2020-03-11 13:05:53.757800"	"2020-03-11 13:05:54.770707"	76	6.40208403333333
"S200311"	"Response_Inhibition"	"RIGHT"	"RIGHT"	741.0157999999	1216.6666691	""	n/a	n/a	n/a	n/a	n/a	n/a	"2020-03-11 13:05:55.997125"	"2020-03-11 13:05:56.946867"	77	6.40208403333333
"S200311"	"Response_Inhibition"	"LEFT"	"LEFT"	785.15040000002	533.3333344	""	n/a	n/a	n/a	n/a	n/a	n/a	"2020-03-11 13:05:57.489149"	"2020-03-11 13:05:58.481381"	78	6.40208403333333
"S200311"	"Response_Inhibition"	"RIGHT"	"RIGHT"	486.367800000039	1183.3333357	""	n/a	n/a	n/a	n/a	n/a	n/a	"2020-03-11 13:05:59.675569"	"2020-03-11 13:06:00.370054"	79	6.40208403333333
"S200311"	"Response_Inhibition"	"LEFT"	"Time_Max_Exceeded"	1500.05693349995	800.0000016	""	n/a	n/a	n/a	n/a	n/a	n/a	"2020-03-11 13:06:01.180108"	"2020-03-11 13:06:02.683910"	80	6.40208403333333
"S200311"	"Response_Inhibition"	"LEFT"	"Time_Max_Exceeded"	1500.05553359991	1033.3333354	""	n/a	n/a	n/a	n/a	n/a	n/a	"2020-03-11 13:06:03.725850"	"2020-03-11 13:06:05.230019"	81	6.40208403333333
"S200311"	"Response_Inhibition"	"RIGHT"	"RIGHT"	367.484799999943	1266.6666692	""	n/a	n/a	n/a	n/a	n/a	n/a	"2020-03-11 13:06:06.506978"	"2020-03-11 13:06:07.082995"	82	6.40208403333333
"S200311"	"Response_Inhibition"	"RIGHT"	"RIGHT"	993.785300000013	1483.3333363	""	n/a	n/a	n/a	n/a	n/a	n/a	"2020-03-11 13:06:08.576625"	"2020-03-11 13:06:09.780023"	83	6.40208403333333
"S200311"	"Response_Inhibition"	"RIGHT"	"Time_Max_Exceeded"	1500.06216670003	716.6666681	""	n/a	n/a	n/a	n/a	n/a	n/a	"2020-03-11 13:06:10.505516"	"2020-03-11 13:06:12.009102"	84	6.40208403333333
"S200311"	"Response_Inhibition"	"LEFT"	"LEFT"	749.6036	1050.0000021	""	n/a	n/a	n/a	n/a	n/a	n/a	"2020-03-11 13:06:13.068322"	"2020-03-11 13:06:14.026601"	85	6.40208403333333
"S200311"	"Response_Inhibition"	"LEFT"	"Time_Max_Exceeded"	1500.05913380002	1183.3333357	""	n/a	n/a	n/a	n/a	n/a	n/a	"2020-03-11 13:06:15.219677"	"2020-03-11 13:06:16.722778"	86	6.40208403333333
"S200311"	"Response_Inhibition"	"LEFT"	"LEFT"	777.557600000023	1300.0000026	""	n/a	n/a	n/a	n/a	n/a	n/a	"2020-03-11 13:06:18.032213"	"2020-03-11 13:06:19.017453"	87	6.40208403333333
"S200311"	"Response_Inhibition"	"RIGHT"	"Time_Max_Exceeded"	1500.05563399995	616.6666679	""	n/a	n/a	n/a	n/a	n/a	n/a	"2020-03-11 13:06:19.642796"	"2020-03-11 13:06:21.145777"	88	6.40208403333333
"S200311"	"Response_Inhibition"	"LEFT"	"LEFT"	809.0451999999	733.3333348	""	n/a	n/a	n/a	n/a	n/a	n/a	"2020-03-11 13:06:21.888862"	"2020-03-11 13:06:22.906067"	89	6.40208403333333
"S200311"	"Response_Inhibition"	"RIGHT"	"RIGHT"	967.386499999975	566.6666678	""	n/a	n/a	n/a	n/a	n/a	n/a	"2020-03-11 13:06:23.482895"	"2020-03-11 13:06:24.658809"	90	6.40208403333333
"S200311"	"Response_Inhibition"	"LEFT"	"LEFT"	377.80429999998	1500.000003	""	n/a	n/a	n/a	n/a	n/a	n/a	"2020-03-11 13:06:26.168596"	"2020-03-11 13:06:26.755379"	91	6.40208403333333
"S200311"	"Response_Inhibition"	"RIGHT"	"RIGHT"	763.055399999985	683.3333347	""	n/a	n/a	n/a	n/a	n/a	n/a	"2020-03-11 13:06:27.447584"	"2020-03-11 13:06:28.418248"	92	6.40208403333333
"S200311"	"Response_Inhibition"	"LEFT"	"LEFT"	766.87789999994	583.3333345	""	n/a	n/a	n/a	n/a	n/a	n/a	"2020-03-11 13:06:29.011363"	"2020-03-11 13:06:29.988742"	93	6.40208403333333
"S200311"	"Response_Inhibition"	"RIGHT"	"RIGHT"	743.046699999923	733.3333348	""	n/a	n/a	n/a	n/a	n/a	n/a	"2020-03-11 13:06:30.731095"	"2020-03-11 13:06:31.682868"	94	6.40208403333333
"S200311"	"Response_Inhibition"	"RIGHT"	"Time_Max_Exceeded"	1500.05973369999	1366.6666694	""	n/a	n/a	n/a	n/a	n/a	n/a	"2020-03-11 13:06:33.058529"	"2020-03-11 13:06:34.561441"	95	6.40208403333333
"S200311"	"Response_Inhibition"	"LEFT"	"Time_Max_Exceeded"	1500.06340029995	1100.0000022	""	n/a	n/a	n/a	n/a	n/a	n/a	"2020-03-11 13:06:35.671515"	"2020-03-11 13:06:37.174326"	96	6.40208403333333
"S200311"	"Response_Inhibition"	"LEFT"	"LEFT"	744.739600000003	1216.6666691	""	n/a	n/a	n/a	n/a	n/a	n/a	"2020-03-11 13:06:38.401566"	"2020-03-11 13:06:39.354734"	97	6.40208403333333
"S200311"	"Response_Inhibition"	"LEFT"	"LEFT"	1022.79999999996	600.0000012	""	n/a	n/a	n/a	n/a	n/a	n/a	"2020-03-11 13:06:39.963088"	"2020-03-11 13:06:41.194730"	98	6.40208403333333
"S200311"	"Response_Inhibition"	"RIGHT"	"Time_Max_Exceeded"	1500.05946690002	1416.6666695	""	n/a	n/a	n/a	n/a	n/a	n/a	"2020-03-11 13:06:42.620033"	"2020-03-11 13:06:44.123904"	99	6.40208403333333
"S200311"	"Response_Inhibition"	"RIGHT"	"Time_Max_Exceeded"	1500.05630009991	550.0000011	""	n/a	n/a	n/a	n/a	n/a	n/a	"2020-03-11 13:06:44.683375"	"2020-03-11 13:06:46.187543"	100	6.40208403333333
"S200311"	"Response_Inhibition"	"RIGHT"	"Time_Max_Exceeded"	1500.05866719998	1216.6666691	""	n/a	n/a	n/a	n/a	n/a	n/a	"2020-03-11 13:06:47.413222"	"2020-03-11 13:06:48.916235"	101	6.40208403333333
"S200311"	"Response_Inhibition"	"RIGHT"	"RIGHT"	736.086	1100.0000022	""	n/a	n/a	n/a	n/a	n/a	n/a	"2020-03-11 13:06:50.025884"	"2020-03-11 13:06:50.969365"	102	6.40208403333333
"S200311"	"Response_Inhibition"	"LEFT"	"LEFT"	399.099700000079	1383.3333361	""	n/a	n/a	n/a	n/a	n/a	n/a	"2020-03-11 13:06:52.363337"	"2020-03-11 13:06:52.971021"	103	6.40208403333333
"S200311"	"Response_Inhibition"	"RIGHT"	"Time_Max_Exceeded"	1500.05366700002	1150.0000023	""	n/a	n/a	n/a	n/a	n/a	n/a	"2020-03-11 13:06:54.130984"	"2020-03-11 13:06:55.634101"	104	6.40208403333333
"S200311"	"Response_Inhibition"	"LEFT"	"LEFT"	936.404299999936	1116.6666689	""	n/a	n/a	n/a	n/a	n/a	n/a	"2020-03-11 13:06:56.761302"	"2020-03-11 13:06:57.906315"	105	6.40208403333333
"S200311"	"Response_Inhibition"	"LEFT"	"LEFT"	999.238700000092	783.3333349	""	n/a	n/a	n/a	n/a	n/a	n/a	"2020-03-11 13:06:58.699466"	"2020-03-11 13:06:59.907082"	106	6.40208403333333
"S200311"	"Response_Inhibition"	"RIGHT"	"RIGHT"	891.048500000011	1283.3333359	""	n/a	n/a	n/a	n/a	n/a	n/a	"2020-03-11 13:07:01.198787"	"2020-03-11 13:07:02.298716"	107	6.40208403333333
"S200311"	"Response_Inhibition"	"RIGHT"	"RIGHT"	369.906000000015	1100.0000022	""	n/a	n/a	n/a	n/a	n/a	n/a	"2020-03-11 13:07:03.408349"	"2020-03-11 13:07:03.986364"	108	6.40208403333333
"S200311"	"Response_Inhibition"	"LEFT"	"LEFT"	854.079800000022	1400.0000028	""	n/a	n/a	n/a	n/a	n/a	n/a	"2020-03-11 13:07:05.396317"	"2020-03-11 13:07:06.458499"	109	6.40208403333333
"S200311"	"Response_Inhibition"	"LEFT"	"Time_Max_Exceeded"	1500.06793390011	1416.6666695	""	n/a	n/a	n/a	n/a	n/a	n/a	"2020-03-11 13:07:07.883761"	"2020-03-11 13:07:09.387464"	110	6.40208403333333
"S200311"	"Response_Inhibition"	"LEFT"	"LEFT"	628.231600000049	1016.6666687	""	n/a	n/a	n/a	n/a	n/a	n/a	"2020-03-11 13:07:10.413815"	"2020-03-11 13:07:11.251050"	111	6.40208403333333
"S200311"	"Response_Inhibition"	"RIGHT"	"RIGHT"	492.880799999966	1016.6666687	""	n/a	n/a	n/a	n/a	n/a	n/a	"2020-03-11 13:07:12.277352"	"2020-03-11 13:07:12.978305"	112	6.40208403333333
"S200311"	"Response_Inhibition"	"LEFT"	"LEFT"	802.875400000062	866.6666684	""	n/a	n/a	n/a	n/a	n/a	n/a	"2020-03-11 13:07:13.855188"	"2020-03-11 13:07:14.865280"	113	6.40208403333333
"S200311"	"Response_Inhibition"	"RIGHT"	"Time_Max_Exceeded"	1500.07176680007	1466.6666696	""	n/a	n/a	n/a	n/a	n/a	n/a	"2020-03-11 13:07:16.340078"	"2020-03-11 13:07:17.844150"	114	6.40208403333333
"S200311"	"Response_Inhibition"	"RIGHT"	"Time_Max_Exceeded"	1500.05493369994	850.0000017	""	n/a	n/a	n/a	n/a	n/a	n/a	"2020-03-11 13:07:18.704708"	"2020-03-11 13:07:20.207677"	115	6.40208403333333
"S200311"	"Response_Inhibition"	"RIGHT"	"RIGHT"	747.275400000035	733.3333348	""	n/a	n/a	n/a	n/a	n/a	n/a	"2020-03-11 13:07:20.950930"	"2020-03-11 13:07:21.907644"	116	6.40208403333333
"S200311"	"Response_Inhibition"	"LEFT"	"Time_Max_Exceeded"	1500.07286680004	1466.6666696	""	n/a	n/a	n/a	n/a	n/a	n/a	"2020-03-11 13:07:23.382789"	"2020-03-11 13:07:24.886818"	117	6.40208403333333
"S200311"	"Response_Inhibition"	"LEFT"	"LEFT"	637.066499999946	1316.6666693	""	n/a	n/a	n/a	n/a	n/a	n/a	"2020-03-11 13:07:26.213274"	"2020-03-11 13:07:27.058258"	118	6.40208403333333
"S200311"	"Response_Inhibition"	"RIGHT"	"RIGHT"	790.293599999927	816.6666683	""	n/a	n/a	n/a	n/a	n/a	n/a	"2020-03-11 13:07:27.884071"	"2020-03-11 13:07:28.882919"	119	6.40208403333333
"S200311"	"Response_Inhibition"	"LEFT"	"Time_Max_Exceeded"	1500.07816669999	550.0000011	""	n/a	n/a	n/a	n/a	n/a	n/a	"2020-03-11 13:07:29.442471"	"2020-03-11 13:07:30.947373"	120	6.40208403333333
"S200311"	"Response_Inhibition"	"RIGHT"	"Time_Max_Exceeded"	1500.09160050002	533.3333344	""	n/a	n/a	n/a	n/a	n/a	n/a	"2020-03-11 13:07:31.491513"	"2020-03-11 13:07:32.995173"	121	6.40208403333333
"S200311"	"Response_Inhibition"	"LEFT"	"LEFT"	1162.81270000002	700.0000014	""	n/a	n/a	n/a	n/a	n/a	n/a	"2020-03-11 13:07:33.703281"	"2020-03-11 13:07:35.074802"	122	6.40208403333333
"S200311"	"Response_Inhibition"	"RIGHT"	"RIGHT"	342.287000000056	783.3333349	""	n/a	n/a	n/a	n/a	n/a	n/a	"2020-03-11 13:07:35.867919"	"2020-03-11 13:07:36.420001"	123	6.40208403333333
"S200311"	"Response_Inhibition"	"LEFT"	"LEFT"	720.628000000033	900.0000018	""	n/a	n/a	n/a	n/a	n/a	n/a	"2020-03-11 13:07:37.329598"	"2020-03-11 13:07:38.257329"	124	6.40208403333333
"S200311"	"Response_Inhibition"	"LEFT"	"LEFT"	793.295899999976	950.0000019	""	n/a	n/a	n/a	n/a	n/a	n/a	"2020-03-11 13:07:39.216569"	"2020-03-11 13:07:40.218198"	125	6.40208403333333
"S200311"	"Response_Inhibition"	"RIGHT"	"RIGHT"	690.480600000001	500.000001	""	n/a	n/a	n/a	n/a	n/a	n/a	"2020-03-11 13:07:40.727930"	"2020-03-11 13:07:41.625868"	126	6.40208403333333
"S200311"	"Response_Inhibition"	"RIGHT"	"Time_Max_Exceeded"	1500.05030039995	1133.3333356	""	n/a	n/a	n/a	n/a	n/a	n/a	"2020-03-11 13:07:42.769112"	"2020-03-11 13:07:44.272039"	127	6.40208403333333
"S200311"	"Response_Inhibition"	"RIGHT"	"RIGHT"	418.497400000092	950.0000019	""	n/a	n/a	n/a	n/a	n/a	n/a	"2020-03-11 13:07:45.231118"	"2020-03-11 13:07:45.857344"	128	6.40208403333333
"S200311"	"Response_Inhibition"	"LEFT"	"LEFT"	470.354133999959	716.6666681	""	n/a	n/a	n/a	n/a	n/a	n/a	"2020-03-11 13:07:46.584425"	"2020-03-11 13:07:47.266365"	129	6.40208403333333
"S200311"	"Response_Inhibition"	"RIGHT"	"RIGHT"	709.333799999968	633.3333346	""	n/a	n/a	n/a	n/a	n/a	n/a	"2020-03-11 13:07:47.908630"	"2020-03-11 13:07:48.825080"	130	6.40208403333333
"S200311"	"Response_Inhibition"	"LEFT"	"Time_Max_Exceeded"	1500.09240000009	650.0000013	""	n/a	n/a	n/a	n/a	n/a	n/a	"2020-03-11 13:07:49.483343"	"2020-03-11 13:07:50.983811"	131	6.40208403333333
"S200311"	"Response_Inhibition"	"RIGHT"	"Time_Max_Exceeded"	1500.05883349998	1366.6666694	""	n/a	n/a	n/a	n/a	n/a	n/a	"2020-03-11 13:07:52.362041"	"2020-03-11 13:07:53.865357"	132	6.40208403333333
"S200311"	"Response_Inhibition"	"LEFT"	"Time_Max_Exceeded"	1500.0648002	983.3333353	""	n/a	n/a	n/a	n/a	n/a	n/a	"2020-03-11 13:07:54.858283"	"2020-03-11 13:07:56.361968"	133	6.40208403333333
"S200311"	"Response_Inhibition"	"RIGHT"	"RIGHT"	742.821800000002	783.3333349	""	n/a	n/a	n/a	n/a	n/a	n/a	"2020-03-11 13:07:57.155459"	"2020-03-11 13:07:58.107099"	134	6.40208403333333
"S200311"	"Response_Inhibition"	"RIGHT"	"RIGHT"	796.321000000034	650.0000013	""	n/a	n/a	n/a	n/a	n/a	n/a	"2020-03-11 13:07:58.765532"	"2020-03-11 13:07:59.770172"	135	6.40208403333333
"S200311"	"Response_Inhibition"	"LEFT"	"LEFT"	760.655199999974	766.6666682	""	n/a	n/a	n/a	n/a	n/a	n/a	"2020-03-11 13:08:00.545046"	"2020-03-11 13:08:01.513555"	136	6.40208403333333
"S200311"	"Response_Inhibition"	"RIGHT"	"Time_Max_Exceeded"	1500.05473359996	583.3333345	""	n/a	n/a	n/a	n/a	n/a	n/a	"2020-03-11 13:08:02.106116"	"2020-03-11 13:08:03.609372"	137	6.40208403333333
"S200311"	"Response_Inhibition"	"RIGHT"	"Time_Max_Exceeded"	1500.04746730001	1066.6666688	""	n/a	n/a	n/a	n/a	n/a	n/a	"2020-03-11 13:08:04.686282"	"2020-03-11 13:08:06.189636"	138	6.40208403333333
"S200311"	"Response_Inhibition"	"LEFT"	"LEFT"	593.591299999957	1066.6666688	""	n/a	n/a	n/a	n/a	n/a	n/a	"2020-03-11 13:08:07.264642"	"2020-03-11 13:08:08.067357"	139	6.40208403333333
"S200311"	"Response_Inhibition"	"RIGHT"	"RIGHT"	376.615499999957	533.3333344	""	n/a	n/a	n/a	n/a	n/a	n/a	"2020-03-11 13:08:08.609281"	"2020-03-11 13:08:09.196064"	140	6.40208403333333
"S200311"	"Response_Inhibition"	"RIGHT"	"RIGHT"	768.459099999973	516.6666677	""	n/a	n/a	n/a	n/a	n/a	n/a	"2020-03-11 13:08:09.721293"	"2020-03-11 13:08:10.697284"	141	6.40208403333333
"S200311"	"Response_Inhibition"	"LEFT"	"LEFT"	691.763200000082	1483.3333363	""	n/a	n/a	n/a	n/a	n/a	n/a	"2020-03-11 13:08:12.190403"	"2020-03-11 13:08:13.091455"	142	6.40208403333333
"S200311"	"Response_Inhibition"	"LEFT"	"LEFT"	799.406200000021	966.6666686	""	n/a	n/a	n/a	n/a	n/a	n/a	"2020-03-11 13:08:14.066336"	"2020-03-11 13:08:15.074787"	143	6.40208403333333
"S200311"	"Response_Inhibition"	"RIGHT"	"RIGHT"	520.491400000083	1116.6666689	""	n/a	n/a	n/a	n/a	n/a	n/a	"2020-03-11 13:08:16.201240"	"2020-03-11 13:08:16.929297"	144	6.40208403333333
"S200311"	"Response_Inhibition"	"LEFT"	"Time_Max_Exceeded"	1500.06963339998	950.0000019	""	n/a	n/a	n/a	n/a	n/a	n/a	"2020-03-11 13:08:17.887962"	"2020-03-11 13:08:19.391108"	145	6.40208403333333
"S200311"	"Response_Inhibition"	"LEFT"	"LEFT"	463.077100000078	1250.0000025	""	n/a	n/a	n/a	n/a	n/a	n/a	"2020-03-11 13:08:20.650469"	"2020-03-11 13:08:21.321251"	146	6.40208403333333
"S200311"	"Response_Inhibition"	"LEFT"	"Time_Max_Exceeded"	1500.06380029993	1366.6666694	""	n/a	n/a	n/a	n/a	n/a	n/a	"2020-03-11 13:08:22.696468"	"2020-03-11 13:08:24.200520"	147	6.40208403333333
"S200311"	"Response_Inhibition"	"LEFT"	"Time_Max_Exceeded"	1500.06863339998	583.3333345	""	n/a	n/a	n/a	n/a	n/a	n/a	"2020-03-11 13:08:24.792937"	"2020-03-11 13:08:26.296078"	148	6.40208403333333
"S200311"	"Response_Inhibition"	"RIGHT"	"RIGHT"	664.740100000017	1166.666669	""	n/a	n/a	n/a	n/a	n/a	n/a	"2020-03-11 13:08:27.473211"	"2020-03-11 13:08:28.345755"	149	6.40208403333333
"S200311"	"Response_Inhibition"	"RIGHT"	"RIGHT"	790.834700000005	583.3333345	""	n/a	n/a	n/a	n/a	n/a	n/a	"2020-03-11 13:08:28.939256"	"2020-03-11 13:08:29.938803"	150	6.40208403333333
"S200311"	"Response_Inhibition"	"RIGHT"	"RIGHT"	711.373299999991	900.0000018	""	n/a	n/a	n/a	n/a	n/a	n/a	"2020-03-11 13:08:30.850504"	"2020-03-11 13:08:31.771019"	151	6.40208403333333
"S200311"	"Response_Inhibition"	"RIGHT"	"RIGHT"	862.16550000006	1383.3333361	""	n/a	n/a	n/a	n/a	n/a	n/a	"2020-03-11 13:08:33.163687"	"2020-03-11 13:08:34.234960"	152	6.40208403333333
"S200311"	"Response_Inhibition"	"RIGHT"	"RIGHT"	1412.52929999996	1050.0000021	""	n/a	n/a	n/a	n/a	n/a	n/a	"2020-03-11 13:08:35.293788"	"2020-03-11 13:08:36.913603"	153	6.40208403333333
"S200311"	"Response_Inhibition"	"LEFT"	"LEFT"	790.361899999994	1000.000002	""	n/a	n/a	n/a	n/a	n/a	n/a	"2020-03-11 13:08:37.923411"	"2020-03-11 13:08:38.921655"	154	6.40208403333333
"S200311"	"Response_Inhibition"	"LEFT"	"Time_Max_Exceeded"	1500.05570050008	883.3333351	""	n/a	n/a	n/a	n/a	n/a	n/a	"2020-03-11 13:08:39.813763"	"2020-03-11 13:08:41.316790"	155	6.40208403333333
"S200311"	"Response_Inhibition"	"RIGHT"	"RIGHT"	728.955299999939	866.6666684	""	n/a	n/a	n/a	n/a	n/a	n/a	"2020-03-11 13:08:42.192737"	"2020-03-11 13:08:43.129391"	156	6.40208403333333
"S200311"	"Response_Inhibition"	"RIGHT"	"RIGHT"	832.500399999958	1333.333336	""	n/a	n/a	n/a	n/a	n/a	n/a	"2020-03-11 13:08:44.473012"	"2020-03-11 13:08:45.513833"	157	6.40208403333333
"S200311"	"Response_Inhibition"	"RIGHT"	"RIGHT"	385.387700200001	1266.6666692	""	n/a	n/a	n/a	n/a	n/a	n/a	"2020-03-11 13:08:46.789240"	"2020-03-11 13:08:47.386638"	158	6.40208403333333
"S200311"	"Response_Inhibition"	"LEFT"	"Time_Max_Exceeded"	1500.06386709997	916.6666685	""	n/a	n/a	n/a	n/a	n/a	n/a	"2020-03-11 13:08:48.312305"	"2020-03-11 13:08:49.816580"	159	6.40208403333333
"S200311"	"Response_Inhibition"	"LEFT"	"Time_Max_Exceeded"	1500.05616680009	816.6666683	""	n/a	n/a	n/a	n/a	n/a	n/a	"2020-03-11 13:08:50.642490"	"2020-03-11 13:08:52.146297"	160	6.40208403333333
"S200311"	"Response_Selection"	"LEFT"	"LEFT"	318.150900000006	1200.0000024	n/a	n/a	n/a	n/a	n/a	n/a	n/a	"2020-03-11 13:00:22.516319"	"2020-03-11 13:00:23.041507"	1	2.84850856666667
"S200311"	"Response_Selection"	"RIGHT"	"RIGHT"	278.683000000001	583.3333345	n/a	n/a	n/a	n/a	n/a	n/a	n/a	"2020-03-11 13:00:23.636077"	"2020-03-11 13:00:24.123829"	2	2.84850856666667
"S200311"	"Response_Selection"	"RIGHT"	"RIGHT"	303.016700000001	1366.6666694	n/a	n/a	n/a	n/a	n/a	n/a	n/a	"2020-03-11 13:00:25.499186"	"2020-03-11 13:00:26.012042"	3	2.84850856666667
"S200311"	"Response_Selection"	"LEFT"	"LEFT"	299.728099999982	1250.0000025	n/a	n/a	n/a	n/a	n/a	n/a	n/a	"2020-03-11 13:00:27.270399"	"2020-03-11 13:00:27.779607"	4	2.84850856666667
"S200311"	"Response_Selection"	"RIGHT"	"RIGHT"	324.225500000011	650.0000013	n/a	n/a	n/a	n/a	n/a	n/a	n/a	"2020-03-11 13:00:28.438441"	"2020-03-11 13:00:28.971890"	5	2.84850856666667
"S200311"	"Response_Selection"	"RIGHT"	"RIGHT"	285.300699999993	1216.6666691	n/a	n/a	n/a	n/a	n/a	n/a	n/a	"2020-03-11 13:00:30.197559"	"2020-03-11 13:00:30.690099"	6	2.84850856666667
"S200311"	"Response_Selection"	"LEFT"	"LEFT"	286.58519999999	633.3333346	n/a	n/a	n/a	n/a	n/a	n/a	n/a	"2020-03-11 13:00:31.332155"	"2020-03-11 13:00:31.826831"	7	2.84850856666667
"S200311"	"Response_Selection"	"LEFT"	"LEFT"	347.388699999954	1450.0000029	n/a	n/a	n/a	n/a	n/a	n/a	n/a	"2020-03-11 13:00:33.286749"	"2020-03-11 13:00:33.842816"	8	2.84850856666667
"S200311"	"Response_Selection"	"LEFT"	"LEFT"	417.190800000014	700.0000014	n/a	n/a	n/a	n/a	n/a	n/a	n/a	"2020-03-11 13:00:34.552843"	"2020-03-11 13:00:35.178253"	9	2.84850856666667
"S200311"	"Response_Selection"	"LEFT"	"LEFT"	313.857599999949	550.0000011	n/a	n/a	n/a	n/a	n/a	n/a	n/a	"2020-03-11 13:00:35.736362"	"2020-03-11 13:00:36.258311"	10	2.84850856666667
"S200311"	"Response_Selection"	"RIGHT"	"RIGHT"	441.589599999986	1116.6666689	n/a	n/a	n/a	n/a	n/a	n/a	n/a	"2020-03-11 13:00:37.385233"	"2020-03-11 13:00:38.033194"	11	2.84850856666667
"S200311"	"Response_Selection"	"LEFT"	"LEFT"	278.579400000012	650.0000013	n/a	n/a	n/a	n/a	n/a	n/a	n/a	"2020-03-11 13:00:38.692600"	"2020-03-11 13:00:39.179902"	12	2.84850856666667
"S200311"	"Response_Selection"	"LEFT"	"LEFT"	329.4803	883.3333351	n/a	n/a	n/a	n/a	n/a	n/a	n/a	"2020-03-11 13:00:40.072997"	"2020-03-11 13:00:40.610740"	13	2.84850856666667
"S200311"	"Response_Selection"	"LEFT"	"LEFT"	310.482000000036	1366.6666694	n/a	n/a	n/a	n/a	n/a	n/a	n/a	"2020-03-11 13:00:41.987787"	"2020-03-11 13:00:42.505752"	14	2.84850856666667
"S200311"	"Response_Selection"	"LEFT"	"LEFT"	342.904699999963	583.3333345	n/a	n/a	n/a	n/a	n/a	n/a	n/a	"2020-03-11 13:00:43.098979"	"2020-03-11 13:00:43.651284"	15	2.84850856666667
"S200311"	"Response_Selection"	"RIGHT"	"RIGHT"	302.679000000012	1166.666669	n/a	n/a	n/a	n/a	n/a	n/a	n/a	"2020-03-11 13:00:44.827917"	"2020-03-11 13:00:45.338161"	16	2.84850856666667
"S200311"	"Response_Selection"	"LEFT"	"LEFT"	366.208800000038	1216.6666691	n/a	n/a	n/a	n/a	n/a	n/a	n/a	"2020-03-11 13:00:46.564702"	"2020-03-11 13:00:47.139099"	17	2.84850856666667
"S200311"	"Response_Selection"	"RIGHT"	"RIGHT"	341.175799999974	1416.6666695	n/a	n/a	n/a	n/a	n/a	n/a	n/a	"2020-03-11 13:00:48.565702"	"2020-03-11 13:00:49.114047"	18	2.84850856666667
"S200311"	"Response_Selection"	"LEFT"	"LEFT"	339.352299999973	866.6666684	n/a	n/a	n/a	n/a	n/a	n/a	n/a	"2020-03-11 13:00:49.991131"	"2020-03-11 13:00:50.538878"	19	2.84850856666667
"S200311"	"Response_Selection"	"RIGHT"	"RIGHT"	303.101700000013	600.0000012	n/a	n/a	n/a	n/a	n/a	n/a	n/a	"2020-03-11 13:00:51.147373"	"2020-03-11 13:00:51.658318"	20	2.84850856666667
"S200311"	"Response_Selection"	"LEFT"	"LEFT"	361.954099999991	1116.6666689	n/a	n/a	n/a	n/a	n/a	n/a	n/a	"2020-03-11 13:00:52.784137"	"2020-03-11 13:00:53.354821"	21	2.84850856666667
"S200311"	"Response_Selection"	"RIGHT"	"RIGHT"	272.649100000024	733.3333348	n/a	n/a	n/a	n/a	n/a	n/a	n/a	"2020-03-11 13:00:54.097866"	"2020-03-11 13:00:54.579938"	22	2.84850856666667
"S200311"	"Response_Selection"	"RIGHT"	"RIGHT"	528.487199999972	1133.3333356	n/a	n/a	n/a	n/a	n/a	n/a	n/a	"2020-03-11 13:00:55.721775"	"2020-03-11 13:00:56.459258"	23	2.84850856666667
"S200311"	"Response_Selection"	"LEFT"	"LEFT"	307.066500000019	683.3333347	n/a	n/a	n/a	n/a	n/a	n/a	n/a	"2020-03-11 13:00:57.151005"	"2020-03-11 13:00:57.666445"	24	2.84850856666667
"S200311"	"Response_Selection"	"LEFT"	"LEFT"	379.858900000045	1266.6666692	n/a	n/a	n/a	n/a	n/a	n/a	n/a	"2020-03-11 13:00:58.942490"	"2020-03-11 13:00:59.530711"	25	2.84850856666667
"S200311"	"Response_Selection"	"RIGHT"	"RIGHT"	380.244900000037	1066.6666688	n/a	n/a	n/a	n/a	n/a	n/a	n/a	"2020-03-11 13:01:00.605728"	"2020-03-11 13:01:01.195007"	26	2.84850856666667
"S200311"	"Response_Selection"	"LEFT"	"LEFT"	342.97939999999	783.3333349	n/a	n/a	n/a	n/a	n/a	n/a	n/a	"2020-03-11 13:01:01.987557"	"2020-03-11 13:01:02.539443"	27	2.84850856666667
"S200311"	"Response_Selection"	"LEFT"	"LEFT"	390.445099999965	1400.0000028	n/a	n/a	n/a	n/a	n/a	n/a	n/a	"2020-03-11 13:01:03.947811"	"2020-03-11 13:01:04.546638"	28	2.84850856666667
"S200311"	"Response_Selection"	"LEFT"	"LEFT"	458.519999999965	1300.0000026	n/a	n/a	n/a	n/a	n/a	n/a	n/a	"2020-03-11 13:01:05.855503"	"2020-03-11 13:01:06.523004"	29	2.84850856666667
"S200311"	"Response_Selection"	"RIGHT"	"RIGHT"	424.661600000036	550.0000011	n/a	n/a	n/a	n/a	n/a	n/a	n/a	"2020-03-11 13:01:07.081861"	"2020-03-11 13:01:07.715766"	30	2.84850856666667
"S200311"	"Response_Selection"	"RIGHT"	"RIGHT"	391.713999999979	533.3333344	n/a	n/a	n/a	n/a	n/a	n/a	n/a	"2020-03-11 13:01:08.258758"	"2020-03-11 13:01:08.858153"	31	2.84850856666667
"S200311"	"Response_Selection"	"LEFT"	"LEFT"	380.663900000002	1466.6666696	n/a	n/a	n/a	n/a	n/a	n/a	n/a	"2020-03-11 13:01:10.333714"	"2020-03-11 13:01:10.922660"	32	2.84850856666667
"S200311"	"Response_Selection"	"LEFT"	"LEFT"	414.452799999992	1416.6666695	n/a	n/a	n/a	n/a	n/a	n/a	n/a	"2020-03-11 13:01:12.347833"	"2020-03-11 13:01:12.971208"	33	2.84850856666667
"S200311"	"Response_Selection"	"LEFT"	"LEFT"	402.989900000023	1083.3333355	n/a	n/a	n/a	n/a	n/a	n/a	n/a	"2020-03-11 13:01:14.063397"	"2020-03-11 13:01:14.674337"	34	2.84850856666667
"S200311"	"Response_Selection"	"RIGHT"	"RIGHT"	332.386900000017	833.333335	n/a	n/a	n/a	n/a	n/a	n/a	n/a	"2020-03-11 13:01:15.517837"	"2020-03-11 13:01:16.058486"	35	2.84850856666667
"S200311"	"Response_Selection"	"LEFT"	"LEFT"	394.430899999975	1500.000003	n/a	n/a	n/a	n/a	n/a	n/a	n/a	"2020-03-11 13:01:17.568205"	"2020-03-11 13:01:18.171789"	36	2.84850856666667
"S200311"	"Response_Selection"	"RIGHT"	"RIGHT"	312.473399999988	1316.6666693	n/a	n/a	n/a	n/a	n/a	n/a	n/a	"2020-03-11 13:01:19.497641"	"2020-03-11 13:01:20.019812"	37	2.84850856666667
"S200311"	"Response_Selection"	"RIGHT"	"RIGHT"	356.25379999999	1016.6666687	n/a	n/a	n/a	n/a	n/a	n/a	n/a	"2020-03-11 13:01:21.046284"	"2020-03-11 13:01:21.610441"	38	2.84850856666667
"S200311"	"Response_Selection"	"RIGHT"	"RIGHT"	339.239700000007	1500.000003	n/a	n/a	n/a	n/a	n/a	n/a	n/a	"2020-03-11 13:01:23.119434"	"2020-03-11 13:01:23.667961"	39	2.84850856666667
"S200311"	"Response_Selection"	"LEFT"	"LEFT"	336.589599999968	533.3333344	n/a	n/a	n/a	n/a	n/a	n/a	n/a	"2020-03-11 13:01:24.209456"	"2020-03-11 13:01:24.754312"	40	2.84850856666667
"S200311"	"Response_Selection"	"LEFT"	"LEFT"	473.449700000003	1133.3333356	n/a	n/a	n/a	n/a	n/a	n/a	n/a	"2020-03-11 13:01:25.897322"	"2020-03-11 13:01:26.578969"	41	2.84850856666667
"S200311"	"Response_Selection"	"RIGHT"	"RIGHT"	402.868500000011	1266.6666692	n/a	n/a	n/a	n/a	n/a	n/a	n/a	"2020-03-11 13:01:27.855732"	"2020-03-11 13:01:28.466413"	42	2.84850856666667
"S200311"	"Response_Selection"	"RIGHT"	"RIGHT"	390.218599999969	1200.0000024	n/a	n/a	n/a	n/a	n/a	n/a	n/a	"2020-03-11 13:01:29.675945"	"2020-03-11 13:01:30.275151"	43	2.84850856666667
"S200311"	"Response_Selection"	"RIGHT"	"RIGHT"	342.094000000031	800.0000016	n/a	n/a	n/a	n/a	n/a	n/a	n/a	"2020-03-11 13:01:31.083935"	"2020-03-11 13:01:31.633478"	44	2.84850856666667
"S200311"	"Response_Selection"	"RIGHT"	"RIGHT"	317.122500000039	883.3333351	n/a	n/a	n/a	n/a	n/a	n/a	n/a	"2020-03-11 13:01:32.525345"	"2020-03-11 13:01:33.050986"	45	2.84850856666667
"S200311"	"Response_Selection"	"RIGHT"	"RIGHT"	358.812999999998	966.6666686	n/a	n/a	n/a	n/a	n/a	n/a	n/a	"2020-03-11 13:01:34.027576"	"2020-03-11 13:01:34.594630"	46	2.84850856666667
"S200311"	"Response_Selection"	"RIGHT"	"RIGHT"	352.739799999995	933.3333352	n/a	n/a	n/a	n/a	n/a	n/a	n/a	"2020-03-11 13:01:35.537774"	"2020-03-11 13:01:36.098694"	47	2.84850856666667
"S200311"	"Response_Selection"	"LEFT"	"LEFT"	352.056000000005	966.6666686	n/a	n/a	n/a	n/a	n/a	n/a	n/a	"2020-03-11 13:01:37.073665"	"2020-03-11 13:01:37.637735"	48	2.84850856666667
"S200311"	"Response_Selection"	"RIGHT"	"RIGHT"	351.780500000018	1300.0000026	n/a	n/a	n/a	n/a	n/a	n/a	n/a	"2020-03-11 13:01:38.946667"	"2020-03-11 13:01:39.506780"	49	2.84850856666667
"S200311"	"Response_Selection"	"RIGHT"	"RIGHT"	420.76540000005	633.3333346	n/a	n/a	n/a	n/a	n/a	n/a	n/a	"2020-03-11 13:01:40.149738"	"2020-03-11 13:01:40.779023"	50	2.84850856666667
"S200311"	"Response_Selection"	"LEFT"	"LEFT"	384.821599999952	750.0000015	n/a	n/a	n/a	n/a	n/a	n/a	n/a	"2020-03-11 13:01:41.537300"	"2020-03-11 13:01:42.130732"	51	2.84850856666667
"S200311"	"Response_Selection"	"RIGHT"	"RIGHT"	339.672199999995	1083.3333355	n/a	n/a	n/a	n/a	n/a	n/a	n/a	"2020-03-11 13:01:43.223152"	"2020-03-11 13:01:43.770683"	52	2.84850856666667
"S200311"	"Response_Selection"	"LEFT"	"LEFT"	545.638399999973	933.3333352	n/a	n/a	n/a	n/a	n/a	n/a	n/a	"2020-03-11 13:01:44.712844"	"2020-03-11 13:01:45.466820"	53	2.84850856666667
"S200311"	"Response_Selection"	"RIGHT"	"RIGHT"	357.802900000024	1400.0000028	n/a	n/a	n/a	n/a	n/a	n/a	n/a	"2020-03-11 13:01:46.876449"	"2020-03-11 13:01:47.442912"	54	2.84850856666667
"S200311"	"Response_Selection"	"LEFT"	"LEFT"	306.99229999999	1066.6666688	n/a	n/a	n/a	n/a	n/a	n/a	n/a	"2020-03-11 13:01:48.519469"	"2020-03-11 13:01:49.034259"	55	2.84850856666667
"S200311"	"Response_Selection"	"RIGHT"	"RIGHT"	453.705899999989	1450.0000029	n/a	n/a	n/a	n/a	n/a	n/a	n/a	"2020-03-11 13:01:50.492779"	"2020-03-11 13:01:51.154576"	56	2.84850856666667
"S200311"	"Response_Selection"	"RIGHT"	"RIGHT"	371.055799999965	1250.0000025	n/a	n/a	n/a	n/a	n/a	n/a	n/a	"2020-03-11 13:01:52.415015"	"2020-03-11 13:01:52.993453"	57	2.84850856666667
"S200311"	"Response_Selection"	"RIGHT"	"RIGHT"	337.038199999995	1350.0000027	n/a	n/a	n/a	n/a	n/a	n/a	n/a	"2020-03-11 13:01:54.352881"	"2020-03-11 13:01:54.897424"	58	2.84850856666667
"S200311"	"Response_Selection"	"RIGHT"	"RIGHT"	333.217299999944	1466.6666696	n/a	n/a	n/a	n/a	n/a	n/a	n/a	"2020-03-11 13:01:56.372691"	"2020-03-11 13:01:56.914266"	59	2.84850856666667
"S200311"	"Response_Selection"	"RIGHT"	"RIGHT"	378.019900000027	500.000001	n/a	n/a	n/a	n/a	n/a	n/a	n/a	"2020-03-11 13:01:57.424597"	"2020-03-11 13:01:58.009499"	60	2.84850856666667
"S200311"	"Response_Selection"	"LEFT"	"LEFT"	434.272799999974	916.6666685	n/a	n/a	n/a	n/a	n/a	n/a	n/a	"2020-03-11 13:01:58.935687"	"2020-03-11 13:01:59.578099"	61	2.84850856666667
"S200311"	"Response_Selection"	"RIGHT"	"RIGHT"	360.380899999996	983.3333353	n/a	n/a	n/a	n/a	n/a	n/a	n/a	"2020-03-11 13:02:00.570328"	"2020-03-11 13:02:01.138428"	62	2.84850856666667
"S200311"	"Response_Selection"	"LEFT"	"LEFT"	406.388600000014	600.0000012	n/a	n/a	n/a	n/a	n/a	n/a	n/a	"2020-03-11 13:02:01.747452"	"2020-03-11 13:02:02.362412"	63	2.84850856666667
"S200311"	"Response_Selection"	"LEFT"	"RIGHT"	336.650700000007	1350.0000027	n/a	n/a	n/a	n/a	n/a	n/a	n/a	"2020-03-11 13:02:03.721887"	"2020-03-11 13:02:04.266693"	64	2.84850856666667
"S200311"	"Response_Selection"	"LEFT"	"LEFT"	356.842900000004	833.333335	n/a	n/a	n/a	n/a	n/a	n/a	n/a	"2020-03-11 13:02:05.109137"	"2020-03-11 13:02:05.674622"	65	2.84850856666667
"S200311"	"Response_Selection"	"LEFT"	"LEFT"	377.25660000001	733.3333348	n/a	n/a	n/a	n/a	n/a	n/a	n/a	"2020-03-11 13:02:06.417286"	"2020-03-11 13:02:07.002915"	66	2.84850856666667
"S200311"	"Response_Selection"	"LEFT"	"LEFT"	370.860600000015	500.000001	n/a	n/a	n/a	n/a	n/a	n/a	n/a	"2020-03-11 13:02:07.511038"	"2020-03-11 13:02:08.090394"	67	2.84850856666667
"S200311"	"Response_Selection"	"RIGHT"	"RIGHT"	326.616899999976	783.3333349	n/a	n/a	n/a	n/a	n/a	n/a	n/a	"2020-03-11 13:02:08.883416"	"2020-03-11 13:02:09.418747"	68	2.84850856666667
"S200311"	"Response_Selection"	"RIGHT"	"RIGHT"	362.217100000009	683.3333347	n/a	n/a	n/a	n/a	n/a	n/a	n/a	"2020-03-11 13:02:10.111896"	"2020-03-11 13:02:10.682666"	69	2.84850856666667
"S200311"	"Response_Selection"	"RIGHT"	"RIGHT"	354.399699999988	916.6666685	n/a	n/a	n/a	n/a	n/a	n/a	n/a	"2020-03-11 13:02:11.608285"	"2020-03-11 13:02:12.170873"	70	2.84850856666667
"S200311"	"Response_Selection"	"RIGHT"	"RIGHT"	393.995099999984	700.0000014	n/a	n/a	n/a	n/a	n/a	n/a	n/a	"2020-03-11 13:02:12.879973"	"2020-03-11 13:02:13.481325"	71	2.84850856666667
"S200311"	"Response_Selection"	"RIGHT"	"RIGHT"	425.074299999949	750.0000015	n/a	n/a	n/a	n/a	n/a	n/a	n/a	"2020-03-11 13:02:14.241028"	"2020-03-11 13:02:14.874334"	72	2.84850856666667
"S200311"	"Response_Selection"	"RIGHT"	"RIGHT"	324.65609999997	866.6666684	n/a	n/a	n/a	n/a	n/a	n/a	n/a	"2020-03-11 13:02:15.749705"	"2020-03-11 13:02:16.283278"	73	2.84850856666667
"S200311"	"Response_Selection"	"LEFT"	"LEFT"	358.105600000044	983.3333353	n/a	n/a	n/a	n/a	n/a	n/a	n/a	"2020-03-11 13:02:17.276449"	"2020-03-11 13:02:17.842933"	74	2.84850856666667
"S200311"	"Response_Selection"	"LEFT"	"LEFT"	380.49060000003	1033.3333354	n/a	n/a	n/a	n/a	n/a	n/a	n/a	"2020-03-11 13:02:18.886272"	"2020-03-11 13:02:19.473123"	75	2.84850856666667
"S200311"	"Response_Selection"	"LEFT"	"LEFT"	417.828299999996	1166.666669	n/a	n/a	n/a	n/a	n/a	n/a	n/a	"2020-03-11 13:02:20.648166"	"2020-03-11 13:02:21.273974"	76	2.84850856666667
"S200311"	"Response_Selection"	"LEFT"	"LEFT"	411.121299999991	1316.6666693	n/a	n/a	n/a	n/a	n/a	n/a	n/a	"2020-03-11 13:02:22.599156"	"2020-03-11 13:02:23.218775"	77	2.84850856666667
"S200311"	"Response_Selection"	"RIGHT"	"RIGHT"	348.307200000022	1033.3333354	n/a	n/a	n/a	n/a	n/a	n/a	n/a	"2020-03-11 13:02:24.262273"	"2020-03-11 13:02:24.818587"	78	2.84850856666667
"S200311"	"Response_Selection"	"LEFT"	"LEFT"	366.799900000046	800.0000016	n/a	n/a	n/a	n/a	n/a	n/a	n/a	"2020-03-11 13:02:25.626970"	"2020-03-11 13:02:26.201479"	79	2.84850856666667
"S200311"	"Response_Selection"	"LEFT"	"LEFT"	511.72459999998	1016.6666687	n/a	n/a	n/a	n/a	n/a	n/a	n/a	"2020-03-11 13:02:27.226683"	"2020-03-11 13:02:27.946482"	80	2.84850856666667
