index	Trial_Type	Participant_ID	Trial_Probability	Question_Position_Prediction_Correct	Question_Position_Prediction_Agent	Question_Position_Comparison_Self	Question_Position_Comparison_Irrelevant	Trial_Stake	Trial_Stake_Jitter	Trial_Type_Jitter	Trial_Result_Jitter	Balance_Update_Jitter	Question_Comparison_Condition	Question_Comparison_Type	Question_Comparison_Question	Question_Comparison_Label	Question_Comparison_Item	Question_Comparison_Proportion_Yes	Question_Factual_Condition	Question_Factual_Item	Question_Factual_Question	Question_Factual_Label	Question_Factual_Proportion_DontKnow	Question_Factual_Type	Answer_Prediction_Agent	Answer_Prediction_Agent_RT	Answer_Prediction_Correct	Answer_Prediction_Correct_RT	Answer_Irrelevant	Answer_Irrelevant_RT	Answer_Self	Answer_Self_RT	Trial_Balance	Trial_Balance_Effect	Trial_Condition	Trial_ProbableSide	Prediction_Choice	Prediction_Result	Prediction_RT	Trial_Order	Trial_Datetime
93	Self	S200122	0.8333333333333334	2	1	2	1	0.5	1433.3333362	1000.000002	1933.3333372	2500.000005	Major	Good_deeds	11	You have cheated on a test	C2_11	0.7	Easy	I2_18	27	The current century is 21st	0.0	No	RIGHT	1117.0849999999746	LEFT	943.8883999999916	RIGHT	2663.6470000000827	LEFT	2175.9832000000188	9.5	0.5	Probable_Lie	RIGHT	RIGHT	1	1323.2560999999805	0	2020-01-22 11:21:41.992942
111	Computer	S200122	0.5	2	1	2	1	0.3	1216.6666691	1150.0000023	1500.000003	2066.6666708	Major	Good_deeds	37	You have illegally stayed in a country	C1_34	0.05	Hard	I2_36	53	Singapore has four seasons	0.944444444444444	Yes	LEFT	1070.2944000000798	LEFT	1912.3019999999544	LEFT	1576.2651000000003	LEFT	1720.2444000000696	9.5	0.3	Probable_Lie	LEFT	LEFT	5	900.9473216197888	1	2020-01-22 11:22:07.671613
45	Self	S200122	0.8333333333333334	2	1	2	1	0.1	1000.000002	1150.0000023	1933.3333372	1783.3333369	Minor	Good_deeds	43	You have bribed a police officer	C2_14	0.0	Easy	I2_3	17	Singapore is a poor country	0.888888888888889	Yes	RIGHT	996.9623000000638	RIGHT	720.8874000000378	LEFT	1315.1625000000422	LEFT	1118.938700000058	9.6	0.1	Probable_Lie	LEFT	LEFT	4	1058.1039999999575	2	2020-01-22 11:22:31.320008
90	Self	S200122	0.8333333333333334	2	1	1	2	0.2	1283.3333359	1066.6666688	1650.0000033	1500.000003	Major	Good_deeds	6	You have coveted things that belong to others	C2_54	0.2	Easy	I1_27	43	It sometimes snows in Singapore	0.0	Yes	RIGHT	839.8280000000113	RIGHT	681.1908999999332	LEFT	2095.965500000034	LEFT	2366.9575000000123	9.8	0.2	Probable_Truth	LEFT	LEFT	1	1074.9486999999365	3	2020-01-22 11:22:56.447851
36	Self	S200122	0.8333333333333334	1	2	2	1	0.7	1283.3333359	1433.3333362	2350.0000047	1500.000003	Major	Good_deeds	5	You have stopped using plastics completely	C1_5	1.0	Easy	I2_22	4	A triangle has three sides	0.888888888888889	Yes	RIGHT	1439.874400000008	LEFT	2026.877200000058	RIGHT	1630.670499999951	LEFT	1806.9782000000032	9.1	0.7	Probable_Lie	RIGHT	RIGHT	1	1420.84890000001	4	2020-01-22 11:23:23.913492
141	Computer	S200122	0.8333333333333334	2	1	2	1	0.6	1500.000003	1433.3333362	1933.3333372	2216.6666711000003	Minor	Good_deeds	43	You have bribed a police officer	C2_14	0.0	Easy	I2_3	17	Singapore is a poor country	0.888888888888889	Yes	LEFT	1298.6011000000417	LEFT	1273.409700000002	LEFT	1017.8128000000016	LEFT	823.9541000000372	9.1	0.6	Probable_Lie	RIGHT	RIGHT	1	892.5677643934191	5	2020-01-22 11:23:48.872161
60	Self	S200122	0.5	2	1	2	1	0.6	1350.0000027	1066.6666688	1650.0000033	1933.3333372	Major	Wrong_doings	39	You have helped a friend in need	C1_13	0.7	Easy	I2_59	44	There are 20 bones in the human skull	0.833333333333333	No	RIGHT	807.8156999999919	RIGHT	687.7331000000595	LEFT	1756.1922999999524	RIGHT	1061.995300000035	9.7	0.6	Probable_Truth	LEFT	LEFT	3	1226.2120000000325	6	2020-01-22 11:24:12.984366
136	Computer	S200122	0.8333333333333334	2	1	1	2	0.8	1216.6666691	1000.000002	1500.000003	1650.0000033	Major	Wrong_doings	7	You have donated a pay cheque to charity	C2_43	0.0	Easy	I2_35	40	Lehman Brothers went bankrupt on 20th September	0.833333333333333	No	LEFT	894.4349000000784	RIGHT	919.799600000033	LEFT	2742.979799999944	LEFT	2646.4416999999685	9.7	0.8	Probable_Lie	LEFT	RIGHT	1	995.7759441362828	7	2020-01-22 11:24:39.128683
122	Computer	S200122	0.6666666666666666	2	1	1	2	0.8	1150.0000023	1150.0000023	2066.6666708	1933.3333372	Major	Wrong_doings	23	You have taken part in violent demonstration	C1_23	0.85	Hard	I1_48	28	There are 6 million animal species on Earth	0.888888888888889	No	LEFT	1201.7627999999831	RIGHT	608.7248999999701	LEFT	2719.55539999999	LEFT	1436.9804000000386	9.7	0.8	Probable_Lie	RIGHT	RIGHT	1	736.0972801689475	8	2020-01-22 11:25:04.696667
10	Self	S200122	0.5	2	1	1	2	0.7	1433.3333362	1500.000003	2350.0000047	1933.3333372	Minor	Good_deeds	56	You have switched off appliances when not in use	C1_20	0.55	Easy	I1_19	36	Beer is an alcoholic drink	0.0	No	RIGHT	847.7321999999958	RIGHT	623.9620999999715	RIGHT	1789.494999999988	Time_Max_Exceeded	5000.144300000102	10.4	0.7	Probable_Truth	RIGHT	LEFT	1	1318.71000000001	9	2020-01-22 11:25:34.064070
19	Self	S200122	0.6666666666666666	1	2	1	2	0.2	1433.3333362	1433.3333362	2066.6666708	1933.3333372	Major	Good_deeds	1	You have kidnapped someone	C2_28	0.0	Hard	I2_39	16	Saturn's rings are between 30 and 300 feet thick	0.722222222222222	Yes	RIGHT	1096.8163000000004	RIGHT	734.7121999999899	LEFT	1895.924199999968	LEFT	949.7941999999284	10.599999999999998	0.2	Probable_Truth	LEFT	LEFT	2	1095.7125000001042	10	2020-01-22 11:25:59.273269
143	Computer	S200122	0.8333333333333334	2	1	2	1	0.5	1066.6666688	1066.6666688	2216.6666711000003	1933.3333372	Major	Wrong_doings	12	You have let a homeless man into your house	C2_35	0.95	Hard	I1_40	43	Mozambique is the world's poorest country	0.0555555555555556	No	RIGHT	938.7115000000676	RIGHT	1088.294200000064	LEFT	2174.4458000000577	LEFT	2007.3588999999856	11.099999999999998	0.5	Probable_Lie	RIGHT	LEFT	6	504.8405422329414	11	2020-01-22 11:26:24.832693
43	Self	S200122	0.8333333333333334	2	1	1	2	0.5	1150.0000023	1216.6666691	1650.0000033	1650.0000033	Minor	Wrong_doings	14	You have held the elevator doors for others	C1_11	0.65	Hard	I2_53	35	The first Olympic Games was held in the 5th century B.C	0.0	Yes	RIGHT	1679.4274999999743	LEFT	727.9749000000493	LEFT	1528.537099999994	RIGHT	2174.548299999969	10.599999999999998	0.5	Probable_Lie	RIGHT	LEFT	6	1538.1903999999622	12	2020-01-22 11:26:50.720260
85	Self	S200122	0.8333333333333334	1	2	2	1	0.5	1500.000003	1433.3333362	2066.6666708	2066.6666708	Major	Wrong_doings	18	You have adopted a zero-waste lifestyle	C1_30	0.0	Hard	I2_1	24	Chickens lay eggs	0.0	Yes	RIGHT	704.3188999999757	RIGHT	654.8360000000457	RIGHT	1085.856700000022	LEFT	1695.7691999999724	11.099999999999998	0.5	Probable_Truth	LEFT	LEFT	1	891.7741000000206	13	2020-01-22 11:27:15.392715
108	Computer	S200122	0.5	2	1	2	1	0.7	1433.3333362	1000.000002	2216.6666711000003	2216.6666711000003	Minor	Wrong_doings	2	You have gossiped about your best friend	C2_27	0.85	Hard	I1_53	38	China is a part of Asia	0.111111111111111	Yes	LEFT	764.9794999999813	LEFT	863.687999999911	RIGHT	1440.8862999999883	RIGHT	1758.5572000000411	11.099999999999998	0.7	Probable_Lie	LEFT	LEFT	5	747.4487309576698	14	2020-01-22 11:27:40.409247
87	Self	S200122	0.8333333333333334	1	2	2	1	0.6	1283.3333359	1000.000002	1783.3333369	2500.000005	Major	Good_deeds	46	You have lied to your parents	C1_50	1.0	Hard	I2_24	4	Kangaroos live in Africa	0.722222222222222	No	RIGHT	480.84510000001046	RIGHT	906.6397999999936	LEFT	1949.6736999999484	LEFT	1192.165799999998	11.699999999999998	0.6	Probable_Truth	LEFT	LEFT	1	1005.9703000000582	15	2020-01-22 11:28:05.080579
110	Computer	S200122	0.5	2	1	2	1	0.1	1000.000002	1283.3333359	1650.0000033	2350.0000047	Major	Good_deeds	34	You have signed up as a bone marrow donor	C1_24	0.1	Hard	I1_36	6	Cheese is an Asian staple	0.0	No	LEFT	695.9795999999869	LEFT	537.0935000000827	LEFT	1626.592999999957	LEFT	1495.2163000000382	11.699999999999998	0.1	Probable_Truth	RIGHT	RIGHT	4	605.2381340416739	16	2020-01-22 11:28:28.888373
52	Self	S200122	0.5	1	2	2	1	0.6	1433.3333362	1000.000002	1783.3333369	2066.6666708	Minor	Wrong_doings	25	You have sheltered others from disasters	C2_42	1.0	Hard	I1_46	21	The Moon orbits around the Earth	0.666666666666667	Yes	LEFT	832.945499999937	LEFT	1162.5951000000896	RIGHT	2951.204500000017	LEFT	2063.448499999936	11.699999999999998	0.6	Probable_Lie	RIGHT	LEFT	4	951.851300000044	17	2020-01-22 11:28:55.705160
51	Self	S200122	0.5	1	2	1	2	0.5	1150.0000023	1500.000003	2350.0000047	1650.0000033	Major	Good_deeds	28	You have eaten something in the MRT train	C2_25	0.15	Easy	I1_1	31	Today is Sunday	0.0	No	RIGHT	639.3663999999717	LEFT	1115.7316000000037	LEFT	1607.6815000000124	RIGHT	2087.455399999953	11.199999999999998	0.5	Probable_Lie	LEFT	LEFT	5	1085.9815000000026	18	2020-01-22 11:29:21.464194
14	Self	S200122	0.5	2	1	2	1	0.3	1350.0000027	1000.000002	1783.3333369	2350.0000047	Major	Good_deeds	34	You have signed up as a bone marrow donor	C1_24	0.1	Hard	I1_36	6	Cheese is an Asian staple	0.0	No	RIGHT	1050.6995999999162	RIGHT	736.2611000000925	LEFT	1575.9001999999782	LEFT	976.1363999998592	11.499999999999998	0.3	Probable_Truth	RIGHT	LEFT	3	822.5751999999602	19	2020-01-22 11:29:45.680718
109	Computer	S200122	0.5	2	1	2	1	0.5	1500.000003	1066.6666688	2350.0000047	1783.3333369	Major	Wrong_doings	52	You have donated blood every 6 months for many years	C2_56	0.0	Easy	I1_6	49	Africa is the continent with the least rainfall	0.611111111111111	No	LEFT	1729.2777000000117	LEFT	751.7104000000927	LEFT	2642.712600000096	LEFT	2007.454800000005	11.499999999999998	0.5	Probable_Truth	RIGHT	RIGHT	5	912.2019373268654	20	2020-01-22 11:30:13.000600
29	Self	S200122	0.6666666666666666	2	1	2	1	0.6	1000.000002	1150.0000023	1933.3333372	1500.000003	Minor	Wrong_doings	6	You have risked your life to save another person's life	C1_47	0.05	Hard	I2_30	25	The human's inner ear is larger than a pencil eraser	0.0	Yes	RIGHT	1068.2985000000826	LEFT	550.0403000000915	LEFT	2623.280600000044	RIGHT	1560.0440999999137	10.9	0.6	Probable_Lie	RIGHT	RIGHT	2	1539.3741000000318	21	2020-01-22 11:30:38.498409
59	Self	S200122	0.5	2	1	1	2	0.3	1066.6666688	1350.0000027	1933.3333372	2500.000005	Minor	Good_deeds	36	You have started a movement to support a cause	C2_16	1.0	Hard	I2_52	50	A dog has four legs	0.764705882352941	Yes	RIGHT	1467.894599999909	LEFT	1008.1195999998728	RIGHT	952.1597999998904	LEFT	2766.05799999993	10.599999999999998	0.3	Probable_Lie	LEFT	LEFT	4	950.9176999999908	22	2020-01-22 11:31:05.066149
135	Computer	S200122	0.8333333333333334	1	2	2	1	0.2	1500.000003	1150.0000023	1500.000003	2066.6666708	Major	Good_deeds	60	You have taken months off to volunteer	C1_49	0.05	Hard	I2_51	14	A square has 3 corners	0.0	No	LEFT	568.9540999999281	RIGHT	1053.5667999999987	LEFT	1503.2375000000684	RIGHT	1392.193700000007	10.599999999999998	0.2	Probable_Lie	RIGHT	LEFT	2	709.8779622005803	23	2020-01-22 11:31:29.088606
81	Self	S200122	0.8333333333333334	1	2	1	2	0.1	1216.6666691	1283.3333359	2350.0000047	1500.000003	Minor	Wrong_doings	30	You have participated in a scamming business	C1_40	0.05	Easy	I2_58	58	Cleopatra was born in Greece	0.888888888888889	No	RIGHT	456.8848000001253	RIGHT	650.8923999999752	LEFT	1375.5978000001503	LEFT	2126.036799999838	10.699999999999998	0.1	Probable_Truth	LEFT	LEFT	1	1126.609099999996	24	2020-01-22 11:31:53.745572
100	Computer	S200122	0.5	1	2	2	1	0.1	1350.0000027	1000.000002	2350.0000047	1650.0000033	Minor	Good_deeds	19	You have fabricated facts about yourself	C1_60	0.5	Easy	I2_23	42	Cernan was the second last man to walk on the Moon	0.833333333333333	Yes	LEFT	615.92399999995	RIGHT	731.2938999998551	LEFT	2038.8209999998708	LEFT	1327.905699999974	10.699999999999998	0.1	Probable_Lie	LEFT	RIGHT	2	790.1428255806126	25	2020-01-22 11:32:18.160935
47	Self	S200122	0.8333333333333334	2	1	2	1	0.8	1216.6666691	1433.3333362	2500.000005	2216.6666711000003	Major	Wrong_doings	12	You have let a homeless man into your house	C2_35	0.95	Hard	I1_40	43	Mozambique is the world's poorest country	0.0555555555555556	No	RIGHT	773.048000000017	RIGHT	504.7669000000497	LEFT	1713.567699999885	LEFT	1377.0373999998355	11.499999999999998	0.8	Probable_Truth	LEFT	LEFT	1	951.766500000076	26	2020-01-22 11:32:43.418043
49	Self	S200122	0.5	1	2	1	2	0.3	1000.000002	1066.6666688	1650.0000033	2500.000005	Major	Wrong_doings	53	You have said thank you when you have received help	C2_33	0.0	Hard	I2_21	40	Bears have the biggest eyes among mammals	0.944444444444444	Yes	RIGHT	1265.4351999999562	LEFT	1886.5713000000144	RIGHT	2551.6176000001	RIGHT	1853.159900000037	11.199999999999998	0.3	Probable_Lie	RIGHT	LEFT	5	790.0656000001618	27	2020-01-22 11:33:10.553178
27	Self	S200122	0.6666666666666666	2	1	1	2	0.1	1150.0000023	1500.000003	2500.000005	2066.6666708	Major	Good_deeds	44	You have thrown your trash into the bin	C1_44	0.0	Easy	I1_28	42	North Korea is more developed than South Korea	0.0555555555555556	No	RIGHT	685.245200000054	RIGHT	481.0328999999456	LEFT	1983.3636000000752	RIGHT	1407.4582000000646	11.299999999999995	0.1	Probable_Truth	RIGHT	RIGHT	4	1528.7496000000829	28	2020-01-22 11:33:36.424552
112	Computer	S200122	0.6666666666666666	1	2	1	2	0.3	1433.3333362	1216.6666691	1650.0000033	2350.0000047	Major	Wrong_doings	58	You have volunteered for a disaster-related humanitarian mission	C2_57	0.05	Hard	I1_12	26	Most plants emit oxygen in the day	1.0	No	LEFT	776.5727000000879	RIGHT	764.7193000000243	RIGHT	1366.5315999999166	LEFT	3172.7163999998997	11.299999999999995	0.3	Probable_Lie	RIGHT	RIGHT	1	770.8407826182583	29	2020-01-22 11:34:02.489140
34	Self	S200122	0.8333333333333334	1	2	1	2	0.8	1000.000002	1150.0000023	1933.3333372	2350.0000047	Minor	Wrong_doings	24	You have queued to enter the MRT train	C2_60	0.0	Easy	I1_41	41	The Earth turns the closest to the sun in May	0.0	Yes	RIGHT	600.2083000000766	RIGHT	733.5689999999886	LEFT	2287.639899999931	RIGHT	1226.8421999999646	12.099999999999998	0.8	Probable_Truth	RIGHT	RIGHT	5	915.7864000001156	30	2020-01-22 11:34:27.257436
13	Self	S200122	0.5	2	1	2	1	0.1	1066.6666688	1066.6666688	1650.0000033	1783.3333369	Major	Wrong_doings	52	You have donated blood every 6 months for many years	C2_56	0.0	Easy	I1_6	49	Africa is the continent with the least rainfall	0.611111111111111	No	RIGHT	1127.4446999998418	LEFT	681.6100999999435	LEFT	2251.5144999999848	LEFT	1062.7448999998703	11.999999999999998	0.1	Probable_Lie	LEFT	LEFT	5	962.9358000001956	31	2020-01-22 11:34:51.481534
92	Self	S200122	0.8333333333333334	2	1	2	1	0.1	1066.6666688	1216.6666691	2216.6666711000003	1933.3333372	Minor	Good_deeds	4	You have been convicted in court	C1_6	0.65	Hard	I2_60	25	Summer is hotter than winter	0.888888888888889	No	RIGHT	701.9391999999698	RIGHT	616.6315000000395	RIGHT	1461.7361000000528	LEFT	1128.3436999999594	12.099999999999998	0.1	Probable_Truth	LEFT	LEFT	1	724.5840000000499	32	2020-01-22 11:35:15.121121
142	Computer	S200122	0.8333333333333334	2	1	2	1	0.3	1350.0000027	1216.6666691	1783.3333369	1783.3333369	Minor	Good_deeds	33	You have stolen something	C1_33	0.0	Hard	I1_5	5	Animals are living things	0.888888888888889	Yes	LEFT	1625.0076999999692	LEFT	1641.509000000042	RIGHT	1130.006099999946	LEFT	799.2314000000533	12.099999999999998	0.3	Probable_Truth	LEFT	RIGHT	2	715.9958978256493	33	2020-01-22 11:35:39.738226
119	Computer	S200122	0.6666666666666666	1	2	2	1	0.2	1350.0000027	1000.000002	1933.3333372	1783.3333369	Minor	Good_deeds	29	You have helped with household chores	C2_29	0.0	Hard	I2_16	47	It is 20th Century now	0.0	No	LEFT	648.4293999999409	RIGHT	616.4536999999655	LEFT	1641.1176000001433	RIGHT	1135.3852999998253	12.099999999999998	0.2	Probable_Lie	LEFT	LEFT	4	666.1600701306597	34	2020-01-22 11:36:03.081043
83	Self	S200122	0.8333333333333334	1	2	1	2	0.4	1000.000002	1500.000003	1650.0000033	2350.0000047	Major	Wrong_doings	50	You have helped others to pick up their belongings	C2_46	1.0	Hard	I1_38	57	Singapore is in Africa	0.944444444444444	Yes	RIGHT	455.3814000000784	RIGHT	791.4404000000559	LEFT	945.6440000001294	RIGHT	1195.556599999918	12.499999999999998	0.4	Probable_Truth	RIGHT	RIGHT	3	1052.286299999878	35	2020-01-22 11:36:26.593563
131	Computer	S200122	0.8333333333333334	1	2	1	2	0.5	1350.0000027	1000.000002	2500.000005	1933.3333372	Minor	Wrong_doings	17	You have been sued	C1_17	0.95	Easy	I1_14	41	Milwaukee Art Museum is located in California	0.888888888888889	Yes	LEFT	512.0843999998215	RIGHT	669.5296000000326	LEFT	1896.002299999964	LEFT	1139.451400000098	12.499999999999998	0.5	Probable_Truth	RIGHT	LEFT	1	628.7666779937747	36	2020-01-22 11:36:50.793882
102	Computer	S200122	0.5	1	2	2	1	0.6	1216.6666691	1433.3333362	2216.6666711000003	1933.3333372	Major	Wrong_doings	29	You have shown your appreciation to your teachers	C2_34	0.55	Easy	I2_42	45	There is typically 0.6 grams of mercury in glass thermometer	0.0	Yes	LEFT	375.2367999998114	LEFT	708.776799999896	LEFT	1238.6079000000336	RIGHT	1144.3213000000014	12.499999999999998	0.6	Probable_Lie	RIGHT	RIGHT	2	989.4324013845746	37	2020-01-22 11:37:14.609358
42	Self	S200122	0.8333333333333334	2	1	1	2	0.2	1500.000003	1000.000002	2066.6666708	1500.000003	Major	Good_deeds	35	You have sold illegal drugs	C1_12	0.2	Easy	I2_5	53	There are 9 rings in the Olympic flag	0.0	No	RIGHT	1151.6409999999269	LEFT	785.2124999999432	LEFT	1534.3835000001036	LEFT	1014.2977000000428	12.3	0.2	Probable_Lie	RIGHT	RIGHT	1	827.1177000001444	38	2020-01-22 11:37:38.561974
97	Computer	S200122	0.5	1	2	1	2	0.8	1066.6666688	1283.3333359	1650.0000033	2350.0000047	Minor	Wrong_doings	14	You have organized a violent protest	C2_19	1.0	Hard	I2_55	23	It is night time now	0.944444444444444	No	LEFT	440.181000000166	RIGHT	1280.0161000000116	LEFT	1335.2672000000894	LEFT	1498.015000000123	12.3	0.8	Probable_Truth	RIGHT	RIGHT	6	526.5136478962307	39	2020-01-22 11:38:02.569117
24	Self	S200122	0.6666666666666666	2	1	1	2	0.7	1350.0000027	1283.3333359	1783.3333369	1650.0000033	Minor	Wrong_doings	15	You have sign up to sponsor a needy child	C2_6	1.0	Hard	I1_3	45	Feijoa is a type of grape	0.666666666666667	No	RIGHT	682.0619000000079	RIGHT	448.0255999999372	LEFT	1471.0218999998688	LEFT	2126.509599999963	12.999999999999998	0.7	Probable_Truth	LEFT	LEFT	2	922.5641000000452	40	2020-01-22 11:38:26.858217
4	Self	S200122	0.5	1	2	2	1	0.6	1500.000003	1500.000003	1783.3333369	1933.3333372	Minor	Good_deeds	19	You have fabricated facts about yourself	C1_60	0.5	Easy	I2_23	42	Cernan was the second last man to walk on the Moon	0.833333333333333	Yes	RIGHT	984.2929999999797	LEFT	1896.0316999998668	LEFT	1333.43479999985	LEFT	1471.3014999999814	12.4	0.6	Probable_Lie	RIGHT	LEFT	6	986.6253000000142	41	2020-01-22 11:38:52.817804
9	Self	S200122	0.5	2	1	1	2	0.6	1150.0000023	1216.6666691	2066.6666708	2066.6666708	Minor	Wrong_doings	24	You have bought cigarettes for a minor	C1_37	0.9	Easy	I2_6	36	Pyramid of Giza is 468 feet tall	0.888888888888889	Yes	RIGHT	831.5495000001647	RIGHT	759.2563999999129	LEFT	1103.7169999999603	LEFT	1559.2200999999477	12.999999999999998	0.6	Probable_Truth	RIGHT	LEFT	2	841.7472999999518	42	2020-01-22 11:39:16.986423
25	Self	S200122	0.6666666666666666	2	1	1	2	0.3	1433.3333362	1216.6666691	1500.000003	1933.3333372	Major	Good_deeds	23	You have cursed at others	C2_23	0.05	Easy	I2_11	48	Airbags in cars are filled with sodium azide	0.0	Yes	RIGHT	686.1068000000614	RIGHT	232.4327999999696	LEFT	2104.2559999998502	LEFT	2428.59089999979	13.3	0.3	Probable_Truth	LEFT	RIGHT	6	1317.4310000001697	43	2020-01-22 11:39:42.409889
68	Self	S200122	0.6666666666666666	1	2	2	1	0.7	1150.0000023	1433.3333362	2500.000005	1783.3333369	Minor	Good_deeds	8	You have bought cocaine	C2_13	0.05	Hard	I2_56	33	A caterpillar has more muscle than a human	0.722222222222222	Yes	RIGHT	1136.2563999998656	RIGHT	701.5630999999303	LEFT	1483.8401000001795	LEFT	1176.890100000037	13.999999999999998	0.7	Probable_Truth	RIGHT	RIGHT	6	624.5656000000963	44	2020-01-22 11:40:06.969362
40	Self	S200122	0.8333333333333334	2	1	1	2	0.4	1283.3333359	1500.000003	1783.3333369	2500.000005	Major	Wrong_doings	7	You have donated a pay cheque to charity	C2_43	0.0	Easy	I2_35	40	Lehman Brothers went bankrupt on 20th September	0.833333333333333	No	RIGHT	466.896399999996	RIGHT	400.1256000001376	LEFT	1119.8420000000624	LEFT	1972.5196000001688	14.4	0.4	Probable_Truth	LEFT	LEFT	1	778.789000000188	45	2020-01-22 11:40:31.346263
44	Self	S200122	0.8333333333333334	2	1	2	1	0.7	1433.3333362	1283.3333359	2350.0000047	2350.0000047	Minor	Good_deeds	11	You have given directions to a lost tourist	C2_7	1.0	Hard	I1_17	5	The hyoid bone is the only jointless bone	0.0555555555555556	No	RIGHT	467.4139000001105	RIGHT	391.43399999989015	LEFT	1315.4136000000562	RIGHT	1638.7256000000434	15.099999999999998	0.7	Probable_Truth	LEFT	LEFT	1	762.9775000000336	46	2020-01-22 11:40:55.914917
126	Computer	S200122	0.6666666666666666	2	1	2	1	0.5	1066.6666688	1350.0000027	2350.0000047	2350.0000047	Minor	Good_deeds	47	You have engaged in drink-driving	C2_31	0.65	Hard	I2_25	3	It is snowing outside now	0.833333333333333	Yes	LEFT	1130.8238000001438	LEFT	593.427199999951	LEFT	1051.9813000000795	LEFT	1232.6178999999229	15.099999999999998	0.5	Probable_Lie	LEFT	RIGHT	2	810.910520262398	47	2020-01-22 11:41:20.425856
117	Computer	S200122	0.6666666666666666	1	2	2	1	0.6	1066.6666688	1500.000003	2500.000005	2500.000005	Minor	Wrong_doings	40	You have offered a listening ear to a friend	C1_1	1.0	Hard	I1_26	12	Singapore is a country	0.0555555555555556	No	LEFT	792.3376000001099	LEFT	843.5680000000048	RIGHT	1132.9152999999224	RIGHT	1446.7968000001292	15.099999999999998	0.6	Probable_Lie	RIGHT	RIGHT	1	552.4382889643482	48	2020-01-22 11:42:22.273619
56	Self	S200122	0.5	2	1	1	2	0.7	1000.000002	1500.000003	2066.6666708	2066.6666708	Minor	Good_deeds	9	You have volunteered every week for many years	C2_9	0.0	Hard	I1_44	31	Penguin can fly with their wings	0.0	Yes	RIGHT	719.4766999998592	RIGHT	296.0605000000669	LEFT	1135.4770000000372	LEFT	1696.1397000000034	15.799999999999995	0.7	Probable_Truth	RIGHT	LEFT	2	739.745800000037	49	2020-01-22 11:42:46.066257
62	Self	S200122	0.5	2	1	2	1	0.8	1500.000003	1150.0000023	2350.0000047	1500.000003	Major	Wrong_doings	16	You have done something against your values	C2_53	0.95	Easy	I1_10	24	Septicemia is a lung infection condition	0.0	Yes	RIGHT	715.3461999998854	RIGHT	208.01600000004328	LEFT	1247.1524999998564	LEFT	1525.3191000001607	16.599999999999998	0.8	Probable_Truth	RIGHT	LEFT	1	781.4775000001646	50	2020-01-22 11:43:09.617694
67	Self	S200122	0.6666666666666666	1	2	1	2	0.1	1433.3333362	1500.000003	2350.0000047	2500.000005	Major	Wrong_doings	22	You have rescued others from a catastrophe	C2_8	1.0	Easy	I2_48	8	South East Asia is currently free from polio	0.777777777777778	No	RIGHT	560.0154999999631	RIGHT	610.0458999999319	LEFT	1285.4332000001705	LEFT	1347.0088000001397	16.7	0.1	Probable_Truth	LEFT	LEFT	2	726.4419000000544	51	2020-01-22 11:43:34.505852
8	Self	S200122	0.5	2	1	1	2	0.2	1500.000003	1433.3333362	2500.000005	2216.6666711000003	Minor	Wrong_doings	27	You have sorted your trash into recycling bin	C2_2	0.1	Hard	I2_49	6	Slavery was abolished in Cuba in 1886	0.0	No	RIGHT	1284.8241000001508	LEFT	927.833899999996	LEFT	1622.8095999999823	RIGHT	2110.5069000000185	16.5	0.2	Probable_Lie	RIGHT	LEFT	5	713.7190999999348	52	2020-01-22 11:44:01.394292
26	Self	S200122	0.6666666666666666	2	1	1	2	0.8	1500.000003	1000.000002	1650.0000033	1783.3333369	Major	Wrong_doings	23	You have taken part in violent demonstration	C1_23	0.85	Hard	I1_48	28	There are 6 million animal species on Earth	0.888888888888889	No	RIGHT	740.8792999999605	RIGHT	169.19670000015685	LEFT	969.769000000042	LEFT	1090.1734999999917	17.3	0.8	Probable_Lie	LEFT	LEFT	3	915.7725000000028	53	2020-01-22 11:44:23.787465
12	Self	S200122	0.5	2	1	2	1	0.8	1283.3333359	1150.0000023	1500.000003	1650.0000033	Minor	Wrong_doings	2	You have gossiped about your best friend	C2_27	0.85	Hard	I1_53	38	China is a part of Asia	0.111111111111111	Yes	RIGHT	836.4050000000134	LEFT	448.3866999999009	RIGHT	1318.6414000001605	RIGHT	983.5797999999158	16.5	0.8	Probable_Lie	RIGHT	LEFT	5	687.0787000000291	54	2020-01-22 11:44:46.218298
120	Computer	S200122	0.6666666666666666	2	1	1	2	0.7	1283.3333359	1216.6666691	1500.000003	1650.0000033	Minor	Wrong_doings	15	You have sign up to sponsor a needy child	C2_6	1.0	Hard	I1_3	45	Feijoa is a type of grape	0.666666666666667	No	LEFT	1043.6937999998008	LEFT	1264.1512000000148	LEFT	1080.5511999999453	RIGHT	2504.354400000011	16.5	0.7	Probable_Lie	LEFT	RIGHT	2	796.2427721111593	55	2020-01-22 11:45:11.129997
130	Computer	S200122	0.8333333333333334	1	2	1	2	0.1	1000.000002	1283.3333359	1783.3333369	1783.3333369	Minor	Wrong_doings	24	You have queued to enter the MRT train	C2_60	0.0	Easy	I1_41	41	The Earth turns the closest to the sun in May	0.0	Yes	LEFT	464.5748000000367	LEFT	929.922900000065	LEFT	1526.411800000005	RIGHT	1019.3695000000388	16.5	0.1	Probable_Lie	LEFT	RIGHT	1	672.2942495182701	56	2020-01-22 11:45:34.154018
88	Self	S200122	0.8333333333333334	2	1	1	2	0.7	1216.6666691	1150.0000023	2350.0000047	1783.3333369	Minor	Wrong_doings	46	You have attended all lectures as a student	C1_59	0.85	Hard	I1_39	54	Hot chocolate was created by the Mayan culture	0.111111111111111	Yes	RIGHT	754.3492000002061	RIGHT	376.0865000001559	LEFT	1552.5786999999127	RIGHT	1492.4259000001712	17.2	0.7	Probable_Truth	LEFT	LEFT	1	721.5511000001698	57	2020-01-22 11:45:58.122120
3	Self	S200122	0.5	1	2	1	2	0.3	1066.6666688	1066.6666688	1500.000003	2500.000005	Minor	Good_deeds	60	You have helped your parents when asked to	C2_39	0.45	Hard	I1_32	32	Brazil is in South America	1.0	No	RIGHT	101.28499999996166	RIGHT	540.9528000000137	LEFT	847.867400000041	RIGHT	1429.7731999999996	17.5	0.3	Probable_Truth	LEFT	LEFT	3	717.2577999999703	58	2020-01-22 11:46:20.465719
96	Computer	S200122	0.5	1	2	1	2	0.7	1283.3333359	1350.0000027	2500.000005	2066.6666708	Major	Good_deeds	30	You have been physically hurt to protect others	C2_30	0.45	Hard	I1_45	13	The first Grammy awards was held in 1959	0.0	Yes	LEFT	640.0568999999905	LEFT	647.9309000001194	LEFT	1375.564899999972	LEFT	2127.7577000000747	17.5	0.7	Probable_Lie	RIGHT	RIGHT	2	823.4953985219422	59	2020-01-22 11:46:45.841610
32	Self	S200122	0.8333333333333334	1	2	1	2	0.4	1350.0000027	1500.000003	2216.6666711000003	1783.3333369	Major	Good_deeds	26	You have held the door open for a stranger	C2_26	0.0	Hard	I1_37	51	Arabi is the oldest surviving breed of horse	0.0	No	RIGHT	73.27540000005683	RIGHT	677.480899999864	LEFT	990.7899999998336	RIGHT	866.8600000000879	17.9	0.4	Probable_Truth	RIGHT	RIGHT	2	1175.640100000237	60	2020-01-22 11:47:09.051290
53	Self	S200122	0.5	1	2	2	1	0.4	1500.000003	1150.0000023	1933.3333372	2216.6666711000003	Minor	Good_deeds	7	You have been donating all your excess food to a food bank	C1_28	1.0	Hard	I1_9	26	There are 7 days in a week	0.0555555555555556	No	RIGHT	575.5705999999918	LEFT	652.1938000000773	RIGHT	1047.9098999999223	LEFT	1632.5342000000092	17.5	0.4	Probable_Lie	RIGHT	LEFT	4	678.5593999998127	61	2020-01-22 11:47:33.010653
75	Self	S200122	0.6666666666666666	2	1	1	2	0.2	1216.6666691	1433.3333362	1783.3333369	2500.000005	Major	Wrong_doings	45	You have claimed doing things that you never did	C1_9	0.05	Easy	I1_60	12	Dutch is the 6th Europe's most widely spoken language	0.833333333333333	No	RIGHT	738.3198000002267	RIGHT	65.15749999971376	LEFT	896.3146999999481	LEFT	1820.9506000002875	17.7	0.2	Probable_Truth	LEFT	LEFT	2	616.4173000001938	62	2020-01-22 11:47:56.651187
73	Self	S200122	0.6666666666666666	2	1	1	2	0.3	1433.3333362	1000.000002	2500.000005	2216.6666711000003	Major	Wrong_doings	10	You have returned your trays in food courts	C2_17	0.0	Hard	I1_29	33	The Eiffel Tower is in Paris	0.888888888888889	No	RIGHT	509.5870000000105	RIGHT	368.12979999967865	LEFT	1111.818100000164	RIGHT	1281.4816000000064	18.0	0.3	Probable_Truth	LEFT	LEFT	1	935.6864999999744	63	2020-01-22 11:48:20.578319
95	Self	S200122	0.8333333333333334	2	1	2	1	0.4	1000.000002	1350.0000027	1783.3333369	2216.6666711000003	Major	Wrong_doings	58	You have started an NGO using your savings	C1_46	0.0	Hard	I2_43	60	Polish is 20th most spoken language in the World	0.0555555555555556	No	RIGHT	675.235100000009	LEFT	465.0229999997464	LEFT	2016.133500000251	LEFT	2159.863100000166	17.6	0.4	Probable_Lie	RIGHT	RIGHT	1	643.2789999998931	64	2020-01-22 11:48:45.457952
98	Computer	S200122	0.5	1	2	1	2	0.5	1150.0000023	1150.0000023	2066.6666708	1783.3333369	Minor	Wrong_doings	35	You have drunk alcohol when you were underage	C1_29	0.0	Easy	I1_13	55	It takes 112 years to build the Pisa Tower	0.0	No	LEFT	673.1967999999142	LEFT	656.5943000000516	LEFT	1272.5860000000466	LEFT	1459.8771999999371	17.6	0.5	Probable_Lie	RIGHT	RIGHT	2	787.1703439974117	65	2020-01-22 11:49:09.017755
55	Self	S200122	0.5	1	2	2	1	0.2	1350.0000027	1350.0000027	2216.6666711000003	1933.3333372	Major	Good_deeds	42	You have deceived a loved one	C1_53	0.85	Easy	I2_40	46	The hardest bone in human body is the jawbone	0.0	No	RIGHT	568.6774999999216	RIGHT	400.2496999996765	LEFT	1747.9128999998466	LEFT	1383.7467000003016	17.8	0.2	Probable_Truth	RIGHT	LEFT	1	805.2155999998831	66	2020-01-22 11:49:33.346781
127	Computer	S200122	0.6666666666666666	2	1	2	1	0.1	1433.3333362	1000.000002	1933.3333372	2216.6666711000003	Major	Good_deeds	31	You have watched an M18 movie when you were underage	C2_48	0.05	Easy	I1_42	11	Beef comes from cows	0.0	Yes	LEFT	810.9555999999429	LEFT	649.0271000002394	RIGHT	1658.4044999999603	LEFT	1542.637400000331	17.8	0.1	Probable_Lie	RIGHT	RIGHT	2	711.7073098441324	67	2020-01-22 11:49:57.875296
57	Self	S200122	0.5	2	1	1	2	0.2	1433.3333362	1216.6666691	2500.000005	2216.6666711000003	Major	Wrong_doings	36	You have given up your seat in the MRT	C1_16	0.0	Hard	I2_31	44	Afghan Hound is the first cloned cat	0.0	Yes	RIGHT	678.3159000001433	LEFT	233.05829999981145	LEFT	1056.579399999919	RIGHT	1097.6737999999386	17.6	0.2	Probable_Lie	LEFT	LEFT	5	838.5731000003034	68	2020-01-22 11:50:21.714977
121	Computer	S200122	0.6666666666666666	2	1	1	2	0.6	1350.0000027	1500.000003	1650.0000033	1500.000003	Major	Good_deeds	23	You have cursed at others	C2_23	0.05	Easy	I2_11	48	Airbags in cars are filled with sodium azide	0.0	Yes	LEFT	954.9363000000994	LEFT	799.5409000000109	LEFT	1423.3558999999332	LEFT	1495.548900000358	17.6	0.6	Probable_Lie	RIGHT	LEFT	5	611.2203383193067	69	2020-01-22 11:50:45.571404
71	Self	S200122	0.6666666666666666	1	2	2	1	0.4	1000.000002	1150.0000023	2066.6666708	1933.3333372	Major	Wrong_doings	13	You have followed instructions	C2_38	0.0	Easy	I2_27	15	The Earth is round	0.611111111111111	Yes	RIGHT	1152.2212999998374	LEFT	894.2081999998663	RIGHT	1904.3022999999264	RIGHT	727.3165999999947	17.200000000000003	0.4	Probable_Lie	RIGHT	RIGHT	1	411.472700000104	70	2020-01-22 11:51:09.378773
28	Self	S200122	0.6666666666666666	2	1	2	1	0.2	1283.3333359	1066.6666688	2216.6666711000003	2350.0000047	Minor	Wrong_doings	48	You have said sorry when you were rude	C1_15	0.95	Easy	I2_45	30	Carnivore refers to meat-eater	0.777777777777778	No	RIGHT	752.4988000000121	RIGHT	328.43229999980394	RIGHT	1748.2769000002918	RIGHT	1566.3488999998665	17.400000000000002	0.2	Probable_Truth	LEFT	LEFT	1	673.0763000000479	71	2020-01-22 11:51:33.939385
69	Self	S200122	0.6666666666666666	1	2	2	1	0.6	1350.0000027	1000.000002	1783.3333369	2350.0000047	Minor	Good_deeds	57	You have made counterfeit money	C1_22	0.95	Easy	I1_58	27	Fibers in oranges can be used to make fabric	0.0	Yes	RIGHT	112.73209999990286	RIGHT	668.1773000000248	LEFT	1869.8749000000132	LEFT	1222.9293000000323	18.000000000000004	0.6	Probable_Truth	RIGHT	LEFT	2	1382.6652000002468	72	2020-01-22 11:51:58.258571
94	Self	S200122	0.8333333333333334	2	1	2	1	0.6	1500.000003	1283.3333359	2500.000005	2350.0000047	Minor	Wrong_doings	54	You have taken responsibility for your actions	C1_4	0.0	Easy	I1_25	39	Astatine is the rarest element in the Earth's crust	1.0	Yes	RIGHT	581.2519999999495	RIGHT	32.20889999965948	LEFT	1115.019299999858	RIGHT	855.7369000000108	18.600000000000005	0.6	Probable_Lie	LEFT	LEFT	3	831.7368000002716	73	2020-01-22 11:52:21.882875
101	Computer	S200122	0.5	1	2	2	1	0.2	1000.000002	1216.6666691	1783.3333369	1500.000003	Major	Wrong_doings	39	You have assisted in a crime	C1_35	1.0	Hard	I2_54	2	Today is a weekday	0.0555555555555556	Yes	LEFT	311.89690000019255	LEFT	851.0388999998213	RIGHT	1445.3512999998566	LEFT	959.1723000003184	18.600000000000005	0.2	Probable_Truth	LEFT	LEFT	1	657.125255733031	74	2020-01-22 11:52:44.178735
76	Self	S200122	0.6666666666666666	2	1	2	1	0.1	1283.3333359	1350.0000027	1500.000003	1500.000003	Major	Good_deeds	9	You have provided shelter for stray animals	C2_45	1.0	Easy	I1_52	52	December is the last month of the year	0.0	No	RIGHT	389.8090000002412	RIGHT	135.46390000010433	RIGHT	1812.3798999999965	LEFT	1497.0790000002123	18.700000000000006	0.1	Probable_Lie	LEFT	LEFT	4	711.8172000000413	75	2020-01-22 11:53:06.930697
50	Self	S200122	0.5	1	2	1	2	0.7	1283.3333359	1216.6666691	2500.000005	2350.0000047	Minor	Good_deeds	38	You have given way to the handicapped	C1_38	0.65	Hard	I2_17	1	The sun rises at night	0.944444444444444	Yes	RIGHT	303.54490000036094	RIGHT	398.3335999996598	LEFT	1215.1872999997977	RIGHT	1035.3491999999278	19.40000000000001	0.7	Probable_Truth	RIGHT	LEFT	2	828.9127999996708	76	2020-01-22 11:53:30.634556
37	Self	S200122	0.8333333333333334	1	2	2	1	0.1	1433.3333362	1216.6666691	2066.6666708	1650.0000033	Minor	Good_deeds	37	You have used a fake name online	C2_24	0.7	Hard	I1_11	37	Obama is the USA president now	0.666666666666667	Yes	RIGHT	647.4278000000595	RIGHT	365.0698999999804	LEFT	1455.61379999981	RIGHT	1951.9289999998364	19.500000000000007	0.1	Probable_Truth	LEFT	LEFT	1	806.4302999996471	77	2020-01-22 11:53:54.801932
22	Self	S200122	0.6666666666666666	1	2	2	1	0.4	1283.3333359	1216.6666691	1650.0000033	1500.000003	Minor	Good_deeds	57	You have borrowed things and never returned	C1_48	0.85	Easy	I2_8	2	Earth's atmosphere extends up to 10,000km into space	0.666666666666667	No	RIGHT	311.80380000023433	LEFT	1398.4943999998904	LEFT	1353.0383000002075	LEFT	1246.6004999996585	19.10000000000001	0.4	Probable_Lie	LEFT	LEFT	5	806.4143000001422	78	2020-01-22 11:54:18.139144
128	Computer	S200122	0.8333333333333334	1	2	1	2	0.6	1150.0000023	1066.6666688	1933.3333372	1500.000003	Major	Good_deeds	26	You have held the door open for a stranger	C2_26	0.0	Hard	I1_37	51	Arabi is the oldest surviving breed of horse	0.0	No	LEFT	424.42129999972167	LEFT	694.369800000004	LEFT	919.1546000001836	RIGHT	974.6064000000842	19.10000000000001	0.6	Probable_Lie	RIGHT	LEFT	6	799.8631629885174	79	2020-01-22 11:54:40.170393
64	Self	S200122	0.6666666666666666	1	2	1	2	0.3	1216.6666691	1350.0000027	1500.000003	2066.6666708	Major	Wrong_doings	43	You have violated a traffic law	C1_57	0.0	Hard	I1_15	56	Statute of Liberty is in New York	0.0	Yes	RIGHT	297.6090999995904	RIGHT	389.7125000003143	RIGHT	1232.2955999998155	LEFT	888.0113000000165	19.40000000000001	0.3	Probable_Truth	LEFT	LEFT	1	703.9479000000028	80	2020-01-22 11:55:02.386774
107	Computer	S200122	0.5	2	1	1	2	0.6	1350.0000027	1433.3333362	1783.3333369	1650.0000033	Major	Good_deeds	20	You have told someone's secret to others	C2_52	0.8	Easy	I2_38	19	The Franco-Prussian War occurred in the 19th century	1.0	Yes	RIGHT	338.61320000005435	RIGHT	303.172700000232	LEFT	1375.6972000001042	LEFT	1863.6821000000052	20.00000000000001	0.6	Probable_Truth	LEFT	LEFT	1	985.9290621159616	81	2020-01-22 11:55:26.034594
33	Self	S200122	0.8333333333333334	1	2	1	2	0.2	1500.000003	1283.3333359	2500.000005	2066.6666708	Major	Wrong_doings	49	You have pretended to be busy to avoid a social situation	C1_45	0.95	Hard	I2_4	22	Fishes can swim in water	0.777777777777778	No	RIGHT	86.49090000017168	RIGHT	589.5386000001963	RIGHT	1112.246900000173	RIGHT	2014.1504000002897	20.20000000000001	0.2	Probable_Truth	RIGHT	RIGHT	5	794.3640000003143	82	2020-01-22 11:55:50.554872
118	Computer	S200122	0.6666666666666666	1	2	2	1	0.4	1500.000003	1066.6666688	2066.6666708	2216.6666711000003	Minor	Good_deeds	57	You have borrowed things and never returned	C1_48	0.85	Easy	I2_8	2	Earth's atmosphere extends up to 10,000km into space	0.666666666666667	No	LEFT	360.44700000002194	RIGHT	774.2221999997128	LEFT	1225.0028999997085	LEFT	911.238400000002	20.20000000000001	0.4	Probable_Truth	LEFT	LEFT	2	712.1115561212778	83	2020-01-22 11:56:13.962905
70	Self	S200122	0.6666666666666666	1	2	2	1	0.2	1500.000003	1066.6666688	1933.3333372	2216.6666711000003	Major	Good_deeds	38	You have complimented others for good work	C1_43	0.75	Hard	I2_50	50	Nanyang Technological University is in Australia	0.0	No	RIGHT	489.49499999980617	RIGHT	298.2990000000427	LEFT	1753.610899999785	RIGHT	1000.1405000002704	20.40000000000001	0.2	Probable_Truth	LEFT	LEFT	1	769.114300000183	84	2020-01-22 11:56:37.562859
61	Self	S200122	0.5	2	1	2	1	0.1	1150.0000023	1000.000002	1783.3333369	1650.0000033	Minor	Good_deeds	53	You have engaged in money laundering	C2_36	0.05	Hard	I1_24	52	French is Singapore's official language	0.0555555555555556	No	RIGHT	538.4429000000637	RIGHT	327.5361000000885	LEFT	1656.0071000003518	LEFT	966.8384999999944	20.50000000000001	0.1	Probable_Truth	RIGHT	LEFT	3	751.408800000263	85	2020-01-22 11:56:59.971266
7	Self	S200122	0.5	1	2	2	1	0.1	1150.0000023	1283.3333359	2066.6666708	1783.3333369	Major	Good_deeds	34	You have been restricting your electricity consumption	C1_14	0.0	Easy	I1_2	54	February has 30 days	1.0	No	RIGHT	272.21449999979086	RIGHT	405.6009000000813	LEFT	1602.8968999999051	LEFT	1854.4799999999668	20.60000000000001	0.1	Probable_Truth	LEFT	RIGHT	6	574.900599999637	86	2020-01-22 11:57:23.540501
106	Computer	S200122	0.5	2	1	1	2	0.2	1150.0000023	1216.6666691	2500.000005	1933.3333372	Minor	Good_deeds	56	You have switched off appliances when not in use	C1_20	0.55	Easy	I1_19	36	Beer is an alcoholic drink	0.0	No	LEFT	1213.420799999767	RIGHT	1000.9589999999662	RIGHT	904.280700000072	RIGHT	1571.6118999998798	20.60000000000001	0.2	Probable_Truth	RIGHT	LEFT	3	668.4853412478471	87	2020-01-22 11:57:48.266793
89	Self	S200122	0.8333333333333334	2	1	1	2	0.8	1150.0000023	1500.000003	1500.000003	1650.0000033	Major	Wrong_doings	59	You have been arrested	C2_20	0.95	Hard	I1_54	18	There are 10 continents in the World	0.888888888888889	Yes	RIGHT	332.1412000000237	RIGHT	160.79220000028727	LEFT	927.3775000001478	LEFT	831.7009999996117	21.400000000000013	0.8	Probable_Truth	LEFT	LEFT	1	1093.667899999673	88	2020-01-22 11:58:09.986628
124	Computer	S200122	0.6666666666666666	2	1	2	1	0.3	1000.000002	1433.3333362	2500.000005	2066.6666708	Minor	Wrong_doings	48	You have said sorry when you were rude	C1_15	0.95	Easy	I2_45	30	Carnivore refers to meat-eater	0.777777777777778	No	LEFT	940.726899999845	LEFT	542.5487000002249	RIGHT	1359.654899999896	RIGHT	800.3501000002871	21.400000000000013	0.3	Probable_Lie	RIGHT	LEFT	4	613.097435623805	89	2020-01-22 11:58:33.826709
138	Computer	S200122	0.8333333333333334	2	1	1	2	0.2	1283.3333359	1350.0000027	1650.0000033	2066.6666708	Major	Good_deeds	35	You have sold illegal drugs	C1_12	0.2	Easy	I2_5	53	There are 9 rings in the Olympic flag	0.0	No	LEFT	1329.9259999998867	LEFT	536.0207999997328	LEFT	878.8902999999664	LEFT	878.2694999999876	21.400000000000013	0.2	Probable_Truth	LEFT	LEFT	1	599.4296014411393	90	2020-01-22 11:58:56.971271
103	Computer	S200122	0.5	1	2	2	1	0.3	1500.000003	1066.6666688	1933.3333372	2500.000005	Major	Good_deeds	34	You have been restricting your electricity consumption	C1_14	0.0	Easy	I1_2	54	February has 30 days	1.0	No	LEFT	687.997600000017	RIGHT	673.6479999999574	LEFT	2024.2285999997875	LEFT	1734.8268000000644	21.400000000000013	0.3	Probable_Truth	LEFT	RIGHT	6	992.4558793026456	91	2020-01-22 11:59:22.658663
113	Computer	S200122	0.6666666666666666	1	2	1	2	0.7	1000.000002	1350.0000027	2216.6666711000003	2066.6666708	Major	Wrong_doings	48	You have failed to keep promises	C1_58	1.0	Easy	I1_47	39	Mexico's National Day is September 16	0.0	Yes	LEFT	446.20480000003226	LEFT	836.302600000181	LEFT	1374.8505999997178	LEFT	1767.499499999758	21.400000000000013	0.7	Probable_Lie	RIGHT	RIGHT	1	843.6406251796284	92	2020-01-22 11:59:47.146680
30	Self	S200122	0.6666666666666666	2	1	2	1	0.4	1216.6666691	1350.0000027	2350.0000047	2500.000005	Minor	Good_deeds	47	You have engaged in drink-driving	C2_31	0.65	Hard	I2_25	3	It is snowing outside now	0.833333333333333	Yes	RIGHT	971.5519999999742	RIGHT	544.7012999998151	LEFT	941.928899999766	LEFT	1008.5540999998556	21.80000000000001	0.4	Probable_Truth	RIGHT	RIGHT	5	1144.4570999997268	93	2020-01-22 12:00:11.747105
125	Computer	S200122	0.6666666666666666	2	1	2	1	0.2	1500.000003	1283.3333359	1783.3333369	1783.3333369	Minor	Wrong_doings	6	You have risked your life to save another person's life	C1_47	0.05	Hard	I2_30	25	The human's inner ear is larger than a pencil eraser	0.0	Yes	LEFT	966.4889000000584	LEFT	440.4594000002362	LEFT	1170.3292000001966	RIGHT	1359.1362000001936	21.80000000000001	0.2	Probable_Lie	RIGHT	LEFT	4	660.4672093277944	94	2020-01-22 12:00:35.282876
114	Computer	S200122	0.6666666666666666	1	2	1	2	0.8	1216.6666691	1150.0000023	1500.000003	1500.000003	Minor	Wrong_doings	19	You have lost everything just to help others	C2_40	0.8	Easy	I2_2	8	It takes 500 days to travel from Earth to Mars	0.0	Yes	LEFT	360.8337999999094	LEFT	746.7630000001009	LEFT	1271.548900000198	LEFT	1661.08099999974	21.80000000000001	0.8	Probable_Lie	RIGHT	LEFT	5	792.7622887855268	95	2020-01-22 12:00:58.059679
23	Self	S200122	0.6666666666666666	1	2	2	1	0.1	1000.000002	1350.0000027	1933.3333372	2216.6666711000003	Minor	Good_deeds	29	You have helped with household chores	C2_29	0.0	Hard	I2_16	47	It is 20th Century now	0.0	No	RIGHT	319.90929999983564	RIGHT	564.8215999999593	LEFT	992.763300000206	RIGHT	839.1410999997788	21.900000000000013	0.1	Probable_Truth	LEFT	LEFT	1	616.2644999999429	96	2020-01-22 12:03:13.292092
104	Computer	S200122	0.5	2	1	1	2	0.8	1066.6666688	1350.0000027	1933.3333372	2500.000005	Minor	Wrong_doings	27	You have sorted your trash into recycling bin	C2_2	0.1	Hard	I2_49	6	Slavery was abolished in Cuba in 1886	0.0	No	LEFT	1111.6213000000243	RIGHT	386.3999999998669	LEFT	1287.481000000298	RIGHT	1085.494400000243	21.900000000000013	0.8	Probable_Truth	LEFT	RIGHT	6	607.2730280000972	97	2020-01-22 12:03:37.180223
72	Self	S200122	0.6666666666666666	2	1	1	2	0.6	1500.000003	1216.6666691	2350.0000047	1933.3333372	Minor	Wrong_doings	17	You have engaged in underage smoking	C1_42	0.0	Easy	I2_34	21	Some owl species hunt fish	0.0	Yes	LEFT	603.5142000000633	LEFT	1352.8040999999575	RIGHT	2089.533500000016	LEFT	1269.7393000003103	21.900000000000013	0.6	Probable_Lie	RIGHT	RIGHT	1	969.6716000003108	98	2020-01-22 12:04:03.036456
21	Self	S200122	0.6666666666666666	1	2	2	1	0.3	1066.6666688	1500.000003	2216.6666711000003	2500.000005	Minor	Wrong_doings	40	You have offered a listening ear to a friend	C1_1	1.0	Hard	I1_26	12	Singapore is a country	0.0555555555555556	No	RIGHT	87.36580000004324	RIGHT	263.2765000003019	RIGHT	646.8343999999888	RIGHT	847.2575000000688	22.200000000000014	0.3	Probable_Lie	LEFT	LEFT	3	785.4904000000715	99	2020-01-22 12:04:25.530790
11	Self	S200122	0.5	2	1	1	2	0.4	1000.000002	1350.0000027	2216.6666711000003	2500.000005	Major	Good_deeds	20	You have told someone's secret to others	C2_52	0.8	Easy	I2_38	19	The Franco-Prussian War occurred in the 19th century	1.0	Yes	RIGHT	344.6377999998731	RIGHT	151.7284000001382	RIGHT	992.3334999998588	LEFT	1869.7708999998213	22.60000000000001	0.4	Probable_Truth	LEFT	RIGHT	4	704.7035000000506	100	2020-01-22 12:04:49.235015
123	Computer	S200122	0.6666666666666666	2	1	1	2	0.4	1216.6666691	1066.6666688	2216.6666711000003	2500.000005	Major	Good_deeds	44	You have thrown your trash into the bin	C1_44	0.0	Easy	I1_28	42	North Korea is more developed than South Korea	0.0555555555555556	No	LEFT	1221.0939000001415	RIGHT	160.2364000000307	LEFT	1511.211000000003	RIGHT	975.4127999999582	22.60000000000001	0.4	Probable_Truth	RIGHT	LEFT	1	636.7330112820141	101	2020-01-22 12:05:13.306564
38	Self	S200122	0.8333333333333334	1	2	2	1	0.6	1066.6666688	1350.0000027	1783.3333369	2216.6666711000003	Minor	Wrong_doings	45	You have bribed someone to improve a grade	C2_37	0.0	Easy	I2_41	11	There are 6000 spoken languages in the World	0.0	No	RIGHT	134.95999999986452	RIGHT	273.86380000007193	RIGHT	2193.655999999919	LEFT	822.9758000002221	23.200000000000014	0.6	Probable_Truth	LEFT	LEFT	1	704.8537000000579	102	2020-01-22 12:05:36.426685
134	Computer	S200122	0.8333333333333334	1	2	2	1	0.3	1283.3333359	1433.3333362	2066.6666708	1650.0000033	Minor	Wrong_doings	45	You have bribed someone to improve a grade	C2_37	0.0	Easy	I2_41	11	There are 6000 spoken languages in the World	0.0	No	LEFT	503.8006999998288	LEFT	638.0275000001348	RIGHT	1150.546999999733	LEFT	697.1284000001106	23.200000000000014	0.3	Probable_Truth	LEFT	RIGHT	2	762.2773353230303	103	2020-01-22 12:05:59.188214
140	Computer	S200122	0.8333333333333334	2	1	2	1	0.1	1433.3333362	1283.3333359	2500.000005	2350.0000047	Minor	Good_deeds	11	You have given directions to a lost tourist	C2_7	1.0	Hard	I1_17	5	The hyoid bone is the only jointless bone	0.0555555555555556	No	LEFT	789.9658000001182	RIGHT	277.8594000001249	LEFT	1364.3701000000874	RIGHT	1240.027199999986	23.200000000000014	0.1	Probable_Truth	LEFT	LEFT	1	526.9073798341174	104	2020-01-22 12:06:23.531758
35	Self	S200122	0.8333333333333334	1	2	1	2	0.5	1150.0000023	1000.000002	1650.0000033	2500.000005	Minor	Wrong_doings	17	You have been sued	C1_17	0.95	Easy	I1_14	41	Milwaukee Art Museum is located in California	0.888888888888889	Yes	RIGHT	415.2933000000303	RIGHT	263.91289999992296	RIGHT	977.3033000001304	LEFT	830.5800999996791	23.700000000000014	0.5	Probable_Truth	RIGHT	RIGHT	3	736.7870000002767	105	2020-01-22 12:06:45.628077
99	Computer	S200122	0.5	1	2	1	2	0.4	1433.3333362	1500.000003	1500.000003	2216.6666711000003	Minor	Good_deeds	60	You have helped your parents when asked to	C2_39	0.45	Hard	I1_32	32	Brazil is in South America	1.0	No	LEFT	791.9495000001007	LEFT	629.5439000000442	RIGHT	1312.1486000000004	RIGHT	952.0846999998868	23.700000000000014	0.4	Probable_Lie	RIGHT	RIGHT	3	524.000515813048	106	2020-01-22 12:07:09.051908
1	Self	S200122	0.5	1	2	1	2	0.4	1283.3333359	1000.000002	1933.3333372	1650.0000033	Minor	Wrong_doings	14	You have organized a violent protest	C2_19	1.0	Hard	I2_55	23	It is night time now	0.944444444444444	No	RIGHT	120.8016000000498	RIGHT	284.32299999985844	LEFT	1033.112699999947	LEFT	998.7091000002692	24.10000000000001	0.4	Probable_Truth	LEFT	LEFT	1	789.278899999772	107	2020-01-22 12:07:30.724505
132	Computer	S200122	0.8333333333333334	1	2	2	1	0.8	1066.6666688	1350.0000027	1650.0000033	2216.6666711000003	Major	Good_deeds	5	You have stopped using plastics completely	C1_5	1.0	Easy	I2_22	4	A triangle has three sides	0.888888888888889	Yes	LEFT	408.0195000001368	RIGHT	767.1492999998009	RIGHT	1231.740599999739	LEFT	1097.2943000001578	24.10000000000001	0.8	Probable_Truth	RIGHT	LEFT	1	815.7313177908754	108	2020-01-22 12:07:53.899600
86	Self	S200122	0.8333333333333334	1	2	2	1	0.8	1150.0000023	1150.0000023	2216.6666711000003	2216.6666711000003	Minor	Good_deeds	40	You have blackmailed others for money	C1_27	0.1	Hard	I1_23	46	Vegetarians can eat vegetable products	0.0	Yes	RIGHT	351.5403999999762	RIGHT	889.6371999999246	RIGHT	2194.434099999853	LEFT	1047.481400000379	24.900000000000013	0.8	Probable_Truth	RIGHT	RIGHT	6	876.2280000000828	109	2020-01-22 12:08:18.564029
63	Self	S200122	0.5	2	1	2	1	0.4	1216.6666691	1433.3333362	1500.000003	1783.3333369	Major	Wrong_doings	16	You have extorted money from anyone	C1_39	0.15	Easy	I1_50	10	Teddy Roosevelt was the youngest US President	0.833333333333333	No	RIGHT	1149.2702000000463	RIGHT	632.9999999998108	RIGHT	1586.2818000000516	LEFT	815.9771000000546	25.30000000000001	0.4	Probable_Lie	RIGHT	LEFT	5	560.4046000003109	110	2020-01-22 12:08:41.812170
84	Self	S200122	0.8333333333333334	1	2	2	1	0.2	1066.6666688	1216.6666691	1500.000003	1650.0000033	Minor	Good_deeds	1	You have kept your promises	C2_1	0.7	Easy	I1_57	23	Singapore ranked 8th in World's smallest countries	0.0	Yes	RIGHT	63.33219999987705	RIGHT	204.6805999998469	LEFT	1760.768200000257	RIGHT	920.1374999997824	25.50000000000001	0.2	Probable_Truth	RIGHT	RIGHT	4	635.3573999999753	111	2020-01-22 12:09:03.404282
48	Self	S200122	0.5	1	2	1	2	0.1	1216.6666691	1433.3333362	1500.000003	1783.3333369	Minor	Wrong_doings	33	You have taken part in burglary	C2_3	0.0	Easy	I2_26	9	Nomophobia is the fear of being without a phone or computer	0.0	Yes	RIGHT	25.057400000150665	RIGHT	332.97650000031354	LEFT	2815.3769999998985	LEFT	1167.8210000000036	25.60000000000001	0.1	Probable_Truth	RIGHT	RIGHT	6	663.5830000000169	112	2020-01-22 12:09:26.923828
54	Self	S200122	0.5	1	2	2	1	0.8	1066.6666688	1283.3333359	2066.6666708	1500.000003	Major	Wrong_doings	3	You have cheated on a national exam	C1_7	0.05	Easy	I1_31	17	Mageirocophobia is a fear of deathly disease	0.611111111111111	No	RIGHT	431.6866999997728	RIGHT	534.4718000001194	LEFT	1836.0662000000048	LEFT	1312.2240999996393	26.400000000000013	0.8	Probable_Lie	RIGHT	RIGHT	3	1123.6487999999554	113	2020-01-22 12:09:50.652084
2	Self	S200122	0.5	1	2	1	2	0.8	1216.6666691	1216.6666691	2216.6666711000003	2216.6666711000003	Minor	Wrong_doings	35	You have drunk alcohol when you were underage	C1_29	0.0	Easy	I1_13	55	It takes 112 years to build the Pisa Tower	0.0	No	RIGHT	336.74199999995835	LEFT	904.366299999765	RIGHT	1295.728699999927	LEFT	1014.7996000000604	25.60000000000001	0.8	Probable_Lie	RIGHT	RIGHT	2	836.665499999981	114	2020-01-22 12:10:14.483540
17	Self	S200122	0.6666666666666666	1	2	1	2	0.5	1500.000003	1283.3333359	2500.000005	1783.3333369	Major	Wrong_doings	48	You have failed to keep promises	C1_58	1.0	Easy	I1_47	39	Mexico's National Day is September 16	0.0	Yes	RIGHT	160.23760000007314	RIGHT	852.6713000001109	LEFT	1016.2454999999682	LEFT	899.6612999999343	26.10000000000001	0.5	Probable_Lie	RIGHT	RIGHT	1	832.608899999741	115	2020-01-22 12:10:37.884469
74	Self	S200122	0.6666666666666666	2	1	1	2	0.5	1150.0000023	1150.0000023	1650.0000033	1783.3333369	Major	Good_deeds	3	You have made someone cry	C2_10	0.55	Hard	I1_21	60	Christmas Day is in March	0.0	Yes	RIGHT	95.6810000002406	RIGHT	216.71329999981023	LEFT	1088.0505999998604	RIGHT	1275.2728999998908	26.60000000000001	0.5	Probable_Truth	LEFT	LEFT	1	675.4702000002908	116	2020-01-22 12:10:59.540949
18	Self	S200122	0.6666666666666666	1	2	1	2	0.8	1150.0000023	1150.0000023	1783.3333369	2066.6666708	Minor	Wrong_doings	19	You have lost everything just to help others	C2_40	0.8	Easy	I2_2	8	It takes 500 days to travel from Earth to Mars	0.0	Yes	RIGHT	64.5380999999361	RIGHT	162.56440000006478	LEFT	1103.241700000126	LEFT	997.7272999999514	27.400000000000013	0.8	Probable_Truth	RIGHT	RIGHT	5	384.3369000001076	117	2020-01-22 12:11:20.979992
41	Self	S200122	0.8333333333333334	2	1	1	2	0.6	1066.6666688	1350.0000027	1500.000003	2066.6666708	Major	Wrong_doings	31	You have faked an illness	C1_31	0.9	Easy	I1_43	3	Red is a color	0.944444444444444	Yes	RIGHT	354.67900000003283	RIGHT	110.98969999966356	RIGHT	792.9377999998906	LEFT	1116.1412000001292	28.00000000000001	0.6	Probable_Truth	LEFT	LEFT	1	520.0706000000537	118	2020-01-22 12:11:42.435721
66	Self	S200122	0.6666666666666666	1	2	1	2	0.8	1283.3333359	1216.6666691	1650.0000033	1500.000003	Minor	Good_deeds	47	You have a non-judgmental attitude towards everyone	C2_47	0.25	Easy	I1_33	48	There are 30 hours in a day	0.0	No	RIGHT	48.488600000382576	RIGHT	128.0624999999418	LEFT	1055.457199999637	RIGHT	2245.559299999968	28.80000000000001	0.8	Probable_Lie	LEFT	LEFT	3	469.69120000039766	119	2020-01-22 12:12:04.603768
0	Self	S200122	0.5	1	2	1	2	0.7	1350.0000027	1350.0000027	2500.000005	2350.0000047	Major	Good_deeds	30	You have been physically hurt to protect others	C2_30	0.45	Hard	I1_45	13	The first Grammy awards was held in 1959	0.0	Yes	RIGHT	473.75990000000456	LEFT	1021.5373999999427	LEFT	1167.3670999998649	LEFT	1753.61010000006	28.100000000000016	0.7	Probable_Lie	RIGHT	LEFT	4	499.63709999974526	120	2020-01-22 12:12:29.643710
77	Self	S200122	0.6666666666666666	2	1	2	1	0.4	1000.000002	1500.000003	1933.3333372	2350.0000047	Minor	Good_deeds	51	You have confessed to your mistake	C2_59	0.2	Hard	I2_33	28	The Amazon forest covers an area of 1 billion acres	0.0555555555555556	Yes	RIGHT	155.63569999994797	RIGHT	319.2258999997648	RIGHT	1435.0945999999567	RIGHT	1047.9999999997744	28.50000000000001	0.4	Probable_Truth	RIGHT	RIGHT	6	748.4242999998969	121	2020-01-22 12:12:52.708295
115	Computer	S200122	0.6666666666666666	1	2	1	2	0.1	1283.3333359	1433.3333362	2350.0000047	1933.3333372	Major	Good_deeds	1	You have kidnapped someone	C2_28	0.0	Hard	I2_39	16	Saturn's rings are between 30 and 300 feet thick	0.722222222222222	Yes	LEFT	503.9848000001257	RIGHT	611.2930000003871	LEFT	1078.7215000000288	LEFT	1636.1555000003136	28.50000000000001	0.1	Probable_Lie	LEFT	LEFT	3	848.7224769313077	122	2020-01-22 12:13:16.956312
91	Self	S200122	0.8333333333333334	2	1	1	2	0.3	1350.0000027	1433.3333362	2066.6666708	2066.6666708	Minor	Good_deeds	20	You have intentionally let others cut in line	C2_58	0.0	Easy	I2_13	13	R. Amundsen discovered the South Pole	0.666666666666667	No	RIGHT	352.2639000002528	RIGHT	464.9343000000954	LEFT	2016.5304000001925	RIGHT	2262.587600000188	28.80000000000001	0.3	Probable_Truth	LEFT	LEFT	1	224.426300000232	123	2020-01-22 12:13:41.763643
116	Computer	S200122	0.6666666666666666	1	2	2	1	0.5	1150.0000023	1283.3333359	1783.3333369	1650.0000033	Major	Good_deeds	28	You have used heroin	C1_19	0.0	Easy	I1_35	35	Marijuana is legal in Singapore	0.777777777777778	Yes	LEFT	400.5748999998104	LEFT	1062.9730999999083	RIGHT	1177.3415000002387	LEFT	999.2824999999356	28.80000000000001	0.5	Probable_Lie	LEFT	RIGHT	2	942.4937467723804	124	2020-01-22 12:14:04.796401
20	Self	S200122	0.6666666666666666	1	2	2	1	0.6	1216.6666691	1000.000002	1500.000003	1650.0000033	Major	Good_deeds	28	You have used heroin	C1_19	0.0	Easy	I1_35	35	Marijuana is legal in Singapore	0.777777777777778	Yes	RIGHT	152.90709999999308	RIGHT	293.8794000001508	LEFT	2223.1955000002017	LEFT	896.6232999996464	29.400000000000016	0.6	Probable_Truth	LEFT	LEFT	1	740.0400000001355	125	2020-01-22 12:14:27.044370
82	Self	S200122	0.8333333333333334	1	2	1	2	0.3	1350.0000027	1066.6666688	2500.000005	1933.3333372	Major	Wrong_doings	50	You have downloaded pirated movies	C2_50	0.85	Easy	I1_4	38	"Statue of Liberty is 151 feet tall"	0.166666666666667	No	RIGHT	81.39540000001944	RIGHT	254.16099999984	LEFT	1174.637999999959	LEFT	1635.803499999838	29.700000000000017	0.3	Probable_Truth	RIGHT	RIGHT	4	812.9646999996112	126	2020-01-22 12:14:50.429513
139	Computer	S200122	0.8333333333333334	2	1	1	2	0.7	1000.000002	1500.000003	2350.0000047	1500.000003	Minor	Wrong_doings	14	You have held the elevator doors for others	C1_11	0.65	Hard	I2_53	35	The first Olympic Games was held in the 5th century B.C	0.0	Yes	RIGHT	1039.5316999997704	RIGHT	456.0410999997657	RIGHT	1126.6331000001628	RIGHT	1075.673899999856	30.400000000000016	0.7	Probable_Lie	RIGHT	RIGHT	1	934.7229242650636	127	2020-01-22 12:15:13.980729
16	Self	S200122	0.6666666666666666	1	2	1	2	0.7	1350.0000027	1066.6666688	2350.0000047	2350.0000047	Major	Wrong_doings	58	You have volunteered for a disaster-related humanitarian mission	C2_57	0.05	Hard	I1_12	26	Most plants emit oxygen in the day	1.0	No	RIGHT	401.58510000037495	RIGHT	475.45780000018567	RIGHT	1342.8742000000966	LEFT	1866.9567999995704	31.100000000000016	0.7	Probable_Lie	LEFT	LEFT	3	524.3552000001728	128	2020-01-22 12:15:38.284135
80	Self	S200122	0.8333333333333334	1	2	1	2	0.7	1433.3333362	1350.0000027	1933.3333372	1783.3333369	Minor	Good_deeds	27	You have stopped using products tested on animals	C2_18	0.0	Easy	I2_46	1	The Seine river is 50 feet above sea level	0.833333333333333	No	RIGHT	440.8238000000893	RIGHT	395.5031999998937	LEFT	1632.6914999999644	RIGHT	2019.1640999996707	31.80000000000001	0.7	Probable_Lie	LEFT	LEFT	3	381.2232000000222	129	2020-01-22 12:16:02.229195
137	Computer	S200122	0.8333333333333334	2	1	1	2	0.4	1150.0000023	1150.0000023	2066.6666708	2500.000005	Major	Wrong_doings	31	You have faked an illness	C1_31	0.9	Easy	I1_43	3	Red is a color	0.944444444444444	Yes	RIGHT	562.7325000000383	RIGHT	256.5364000001864	RIGHT	696.1369999999079	LEFT	1341.9274000002588	32.20000000000002	0.4	Probable_Truth	RIGHT	RIGHT	6	632.0697259141152	130	2020-01-22 12:16:25.157220
15	Self	S200122	0.5	2	1	2	1	0.5	1216.6666691	1283.3333359	1933.3333372	1500.000003	Major	Good_deeds	37	You have illegally stayed in a country	C1_34	0.05	Hard	I2_36	53	Singapore has four seasons	0.944444444444444	Yes	RIGHT	388.1648000001405	RIGHT	241.1449000001085	LEFT	1279.4330000001537	LEFT	919.859500000257	32.70000000000002	0.5	Probable_Truth	RIGHT	LEFT	1	595.3776999999718	131	2020-01-22 12:16:47.083818
78	Self	S200122	0.6666666666666666	2	1	2	1	0.7	1350.0000027	1283.3333359	2066.6666708	1650.0000033	Minor	Wrong_doings	59	You have started a hotline for victims of bully	C1_51	1.0	Hard	I2_28	34	Last day of the year is 30th December	0.777777777777778	Yes	RIGHT	38.32650000003923	RIGHT	288.0316999999195	RIGHT	1654.2616000001544	RIGHT	1774.9288999998498	33.40000000000002	0.7	Probable_Truth	RIGHT	RIGHT	5	774.5534000000589	132	2020-01-22 12:17:10.541322
65	Self	S200122	0.6666666666666666	1	2	1	2	0.5	1066.6666688	1283.3333359	2216.6666711000003	1650.0000033	Minor	Wrong_doings	8	You have watched a pirated movie	C1_8	0.95	Hard	I1_8	58	Acoustic Kitty refers to cat with implants	0.722222222222222	No	RIGHT	144.41100000021834	RIGHT	303.61679999987246	LEFT	2702.739599999859	LEFT	1271.5736999998626	33.90000000000002	0.5	Probable_Truth	LEFT	LEFT	1	674.0298999998231	133	2020-01-22 12:17:34.428180
46	Self	S200122	0.8333333333333334	2	1	2	1	0.3	1350.0000027	1066.6666688	2216.6666711000003	1933.3333372	Minor	Good_deeds	33	You have stolen something	C1_33	0.0	Hard	I1_5	5	Animals are living things	0.888888888888889	Yes	RIGHT	536.0808000000361	RIGHT	216.759799999636	RIGHT	844.1090000001168	LEFT	791.7333999998846	34.20000000000002	0.3	Probable_Lie	RIGHT	RIGHT	1	725.699799999802	134	2020-01-22 12:17:56.683748
39	Self	S200122	0.8333333333333334	1	2	2	1	0.3	1216.6666691	1066.6666688	1500.000003	1933.3333372	Major	Good_deeds	60	You have taken months off to volunteer	C1_49	0.05	Hard	I2_51	14	A square has 3 corners	0.0	No	RIGHT	119.97340000016266	RIGHT	365.2792999996564	LEFT	1419.3417000001318	RIGHT	2023.3455999996293	34.500000000000014	0.3	Probable_Lie	RIGHT	RIGHT	1	707.8298999999788	135	2020-01-22 12:18:19.612952
58	Self	S200122	0.5	2	1	1	2	0.5	1283.3333359	1283.3333359	2216.6666711000003	2350.0000047	Minor	Good_deeds	13	You have cursed at your loved ones	C1_36	0.9	Easy	I2_44	59	Malay is one of the races in Singapore	0.944444444444444	No	RIGHT	288.6332999996739	RIGHT	152.4239000000307	RIGHT	1464.0898999996352	LEFT	1422.4640999996154	35.000000000000014	0.5	Probable_Truth	LEFT	LEFT	2	896.1127999996279	136	2020-01-22 12:18:43.548046
5	Self	S200122	0.5	1	2	2	1	0.2	1433.3333362	1150.0000023	1650.0000033	2066.6666708	Major	Wrong_doings	39	You have assisted in a crime	C1_35	1.0	Hard	I2_54	2	Today is a weekday	0.0555555555555556	Yes	RIGHT	63.76449999970646	RIGHT	559.3317000002571	RIGHT	1284.8641000000498	LEFT	1639.3975999999384	35.20000000000002	0.2	Probable_Lie	LEFT	LEFT	6	673.7044999999853	137	2020-01-22 12:19:06.645384
133	Computer	S200122	0.8333333333333334	1	2	2	1	0.7	1433.3333362	1216.6666691	2216.6666711000003	2500.000005	Minor	Good_deeds	37	You have used a fake name online	C2_24	0.7	Hard	I1_11	37	Obama is the USA president now	0.666666666666667	Yes	RIGHT	223.5489999998208	RIGHT	887.0843999998215	LEFT	1111.812199999804	RIGHT	1191.357400000015	35.90000000000002	0.7	Probable_Lie	RIGHT	RIGHT	1	634.4058449535053	138	2020-01-22 12:19:30.629400
6	Self	S200122	0.5	1	2	2	1	0.5	1000.000002	1433.3333362	2350.0000047	1500.000003	Major	Wrong_doings	29	You have shown your appreciation to your teachers	C2_34	0.55	Easy	I2_42	45	There is typically 0.6 grams of mercury in glass thermometer	0.0	Yes	RIGHT	88.87229999982083	RIGHT	363.3396000000175	LEFT	1429.4564000001628	RIGHT	1215.0661000000582	36.40000000000002	0.5	Probable_Lie	RIGHT	RIGHT	3	668.5012000002644	139	2020-01-22 12:19:53.252217
79	Self	S200122	0.6666666666666666	2	1	2	1	0.8	1066.6666688	1066.6666688	2216.6666711000003	2066.6666708	Minor	Good_deeds	42	You have engaged in arson	C1_3	0.95	Easy	I2_12	29	Algeria is Africa's second largest country	0.944444444444444	No	RIGHT	567.899899999702	RIGHT	39.762099999734346	LEFT	1326.4626999998654	LEFT	1039.7265999999945	37.20000000000002	0.8	Probable_Lie	RIGHT	RIGHT	2	472.9108000001361	140	2020-01-22 12:20:15.692352
31	Self	S200122	0.6666666666666666	2	1	2	1	0.5	1066.6666688	1433.3333362	2066.6666708	2216.6666711000003	Major	Good_deeds	31	You have watched an M18 movie when you were underage	C2_48	0.05	Easy	I1_42	11	Beef comes from cows	0.0	Yes	RIGHT	300.995900000089	RIGHT	200.29220000014905	RIGHT	1057.059499999923	LEFT	1079.2796000000635	37.70000000000002	0.5	Probable_Lie	LEFT	LEFT	5	821.5541000004123	141	2020-01-22 12:20:38.509247
129	Computer	S200122	0.8333333333333334	1	2	1	2	0.4	1216.6666691	1500.000003	2350.0000047	2350.0000047	Major	Wrong_doings	49	You have pretended to be busy to avoid a social situation	C1_45	0.95	Hard	I2_4	22	Fishes can swim in water	0.777777777777778	No	RIGHT	64.62540000029549	RIGHT	601.9500000002154	RIGHT	752.3615000000063	RIGHT	1819.1305999998804	38.100000000000016	0.4	Probable_Lie	RIGHT	RIGHT	1	968.620679569096	142	2020-01-22 12:21:02.701201
105	Computer	S200122	0.5	2	1	1	2	0.4	1283.3333359	1500.000003	2066.6666708	1500.000003	Minor	Wrong_doings	24	You have bought cigarettes for a minor	C1_37	0.9	Easy	I2_6	36	Pyramid of Giza is 468 feet tall	0.888888888888889	Yes	RIGHT	303.3390000000509	RIGHT	39.792900000065856	LEFT	1047.864500000287	LEFT	1726.2024000001477	38.500000000000014	0.4	Probable_Truth	RIGHT	LEFT	2	640.517449250904	143	2020-01-22 12:21:25.373033
