index	Trial_Type	Participant_ID	Trial_Probability	Question_Position_Prediction_Correct	Question_Position_Prediction_Agent	Question_Position_Comparison_Self	Question_Position_Comparison_Irrelevant	Trial_Stake	Trial_Stake_Jitter	Trial_Type_Jitter	Trial_Result_Jitter	Balance_Update_Jitter	Question_Comparison_Condition	Question_Comparison_Type	Question_Comparison_Question	Question_Comparison_Label	Question_Comparison_Item	Question_Comparison_Proportion_Yes	Question_Factual_Condition	Question_Factual_Item	Question_Factual_Question	Question_Factual_Label	Question_Factual_Proportion_DontKnow	Question_Factual_Type	Answer_Prediction_Agent	Answer_Prediction_Agent_RT	Answer_Prediction_Correct	Answer_Prediction_Correct_RT	Answer_Self	Answer_Self_RT	Answer_Irrelevant	Answer_Irrelevant_RT	Trial_Balance	Trial_Balance_Effect	Trial_Condition	Trial_ProbableSide	Prediction_Choice	Prediction_Result	Prediction_RT	Trial_Order	Trial_Datetime
91	Self	S210120B	0.8333333333333334	2	1	1	2	0.8	1350.0000027	1066.6666688	2066.6666708	2500.000005	Major	Good_deeds	60	You have deceived a loved one	C2_52	0.85	Easy	I2_11	26	The human's inner ear is larger than a pencil eraser	0.888888888888889	No	RIGHT	853.9145000000303	RIGHT	950.9284000000092	LEFT	2171.2217999999552	LEFT	3766.436899999974	10.8	0.8	Probable_Truth	LEFT	LEFT	1	1142.91639999999	0	2021-01-20 14:45:51.783936
61	Self	S210120B	0.5	2	1	2	1	0.1	1500.000003	1066.6666688	1650.0000033	2216.6666711000003	Major	Good_deeds	37	You have claimed doing things that you never did	C1_48	0.95	Hard	I1_23	37	Polish is 20th most spoken language in the World	0.888888888888889	Yes	RIGHT	1152.5060999999823	LEFT	1080.402900000024	LEFT	2976.0312999999883	RIGHT	2273.6046999999644	10.7	0.1	Probable_Lie	LEFT	LEFT	6	2714.695899999981	1	2021-01-20 14:46:20.985055
72	Self	S210120B	0.6666666666666666	2	1	1	2	0.7	1500.000003	1216.6666691	2066.6666708	2216.6666711000003	Minor	Wrong_doings	16	You have helped others to pick up their belongings	C2_16	0.0	Hard	I2_38	36	Beef comes from cows	0.0	No	RIGHT	870.5223000000046	RIGHT	697.0213999999828	RIGHT	2048.813800000005	RIGHT	1600.4826000000207	11.4	0.7	Probable_Truth	LEFT	LEFT	2	2426.3004000000024	2	2021-01-20 14:46:48.199898
21	Self	S210120B	0.6666666666666666	1	2	2	1	0.2	1350.0000027	1500.000003	1933.3333372	1650.0000033	Major	Good_deeds	1	You have helped your parents when asked to	C2_27	0.95	Hard	I2_52	51	Astatine is the rarest element in the Earth's crust	0.0555555555555556	Yes	RIGHT	710.4888000000074	RIGHT	684.679200000005	RIGHT	2295.7265999999663	RIGHT	4503.714300000012	11.6	0.2	Probable_Lie	LEFT	LEFT	4	3542.225799999983	3	2021-01-20 14:47:18.944292
32	Self	S210120B	0.8333333333333334	1	2	1	2	0.7	1433.3333362	1066.6666688	2066.6666708	1933.3333372	Minor	Good_deeds	22	You have been physically hurt to protect others	C1_7	0.0	Hard	I1_53	47	Singapore is a poor country	0.0555555555555556	No	RIGHT	1391.793899999982	LEFT	1198.03619999999	RIGHT	2381.2672999999904	LEFT	1199.8037999999838	10.9	0.7	Probable_Lie	RIGHT	RIGHT	1	2475.738100000001	4	2021-01-20 14:47:46.664007
31	Self	S210120B	0.6666666666666666	2	1	2	1	0.3	1283.3333359	1000.000002	1500.000003	2216.6666711000003	Minor	Good_deeds	6	You have volunteered every week for many years	C2_9	1.0	Easy	I2_43	27	Hot chocolate was created by the Mayan culture	0.722222222222222	Yes	RIGHT	1389.7486999999842	RIGHT	592.0856999999842	RIGHT	3204.518900000039	RIGHT	2119.855199999961	11.2	0.3	Probable_Truth	LEFT	LEFT	2	3382.872399999997	5	2021-01-20 14:48:15.928178
97	Computer	S210120B	0.5	1	2	1	2	0.6	1433.3333362	1500.000003	1500.000003	1650.0000033	Major	Good_deeds	11	You have returned your trays in food courts	C1_29	1.0	Hard	I2_46	31	Algeria is Africa's second largest country	0.777777777777778	Yes	LEFT	1136.6767999999183	LEFT	939.5205999999234	RIGHT	1976.9440000000031	RIGHT	1999.0477000000053	11.2	0.6	Probable_Lie	LEFT	RIGHT	2	624.5468440590802	6	2021-01-20 14:48:41.248109
25	Self	S210120B	0.6666666666666666	2	1	1	2	0.1	1150.0000023	1216.6666691	2066.6666708	1650.0000033	Major	Wrong_doings	19	You have extorted money from anyone	C1_37	0.85	Hard	I1_27	43	A caterpillar has more muscle than a human	0.111111111111111	Yes	RIGHT	1143.191799999954	RIGHT	511.87740000000304	LEFT	1512.825199999952	RIGHT	2279.27509999995	11.3	0.1	Probable_Truth	RIGHT	RIGHT	3	2185.6963999999834	7	2021-01-20 14:49:07.536148
17	Self	S210120B	0.6666666666666666	1	2	1	2	0.3	1283.3333359	1350.0000027	2350.0000047	1783.3333369	Minor	Good_deeds	34	You have stopped using plastics completely	C1_49	0.0	Hard	I1_28	60	The Earth turns the closest to the sun in May	0.0	No	RIGHT	808.3692000000156	LEFT	1227.9545999999757	LEFT	2865.9215999999788	RIGHT	2207.9023000000007	11.0	0.3	Probable_Lie	LEFT	RIGHT	2	1959.489299999973	8	2021-01-20 14:49:35.944686
138	Computer	S210120B	0.8333333333333334	2	1	1	2	0.4	1000.000002	1500.000003	1500.000003	2066.6666708	Minor	Good_deeds	26	You have been sued	C1_53	0.05	Easy	I1_6	1	Today is Sunday	0.944444444444444	No	LEFT	1272.457700000018	RIGHT	1279.9038000000564	LEFT	1400.645499999996	LEFT	1056.321500000081	11.0	0.4	Probable_Lie	LEFT	LEFT	4	940.7133252927184	9	2021-01-20 14:50:00.520611
23	Self	S210120B	0.6666666666666666	1	2	2	1	0.7	1216.6666691	1283.3333359	2500.000005	1500.000003	Minor	Wrong_doings	27	You have complimented others for good work	C2_38	0.0	Easy	I2_12	50	North Korea is more developed than South Korea	0.0	No	RIGHT	1136.0169000000724	LEFT	1020.3065999999126	RIGHT	1413.8876999999184	Time_Max_Exceeded	5000.158499999998	10.3	0.7	Probable_Lie	RIGHT	RIGHT	1	1955.9191000000735	10	2021-01-20 14:50:30.119786
51	Self	S210120B	0.5	1	2	1	2	0.6	1066.6666688	1433.3333362	2066.6666708	2350.0000047	Minor	Good_deeds	19	You have a non-judgmental attitude towards everyone	C2_53	0.55	Hard	I2_54	54	A square has 3 corners	0.0	Yes	RIGHT	439.9923999999373	RIGHT	901.5438000000132	RIGHT	1824.6123000000125	LEFT	1343.0835000000343	10.9	0.6	Probable_Truth	RIGHT	RIGHT	5	2458.675700000072	11	2021-01-20 14:50:56.584124
12	Self	S210120B	0.5	2	1	2	1	0.7	1500.000003	1000.000002	1783.3333369	2216.6666711000003	Major	Good_deeds	35	You have participated in a scamming business	C1_20	0.05	Easy	I2_35	39	Summer is hotter than winter	0.0	Yes	RIGHT	762.6439999999093	LEFT	1384.3860000000632	LEFT	1623.8592000000835	RIGHT	2145.679800000039	10.2	0.7	Probable_Lie	RIGHT	RIGHT	2	2621.7484000000013	12	2021-01-20 14:51:24.191673
123	Computer	S210120B	0.6666666666666666	2	1	1	2	0.4	1350.0000027	1283.3333359	1783.3333369	2500.000005	Major	Wrong_doings	39	You have done something against your values	C2_43	1.0	Easy	I2_27	27	Airbags in cars are filled with sodium azide	0.666666666666667	No	LEFT	2055.19419999996	RIGHT	799.7808000000077	LEFT	2004.917300000102	RIGHT	3565.7489999999825	10.2	0.4	Probable_Lie	LEFT	RIGHT	1	835.0498582848619	13	2021-01-20 14:51:52.936886
130	Computer	S210120B	0.8333333333333334	1	2	1	2	0.5	1066.6666688	1066.6666688	2500.000005	1783.3333369	Major	Wrong_doings	58	You have borrowed things and never returned	C2_33	0.65	Hard	I2_44	17	Most plants emit oxygen in the day	0.0555555555555556	No	LEFT	728.16320000004	LEFT	1008.0540999999812	LEFT	4049.368700000059	RIGHT	1663.7223000000176	10.2	0.5	Probable_Lie	LEFT	RIGHT	1	812.1792442136151	14	2021-01-20 14:52:20.191954
127	Computer	S210120B	0.6666666666666666	2	1	2	1	0.8	1000.000002	1500.000003	2500.000005	2350.0000047	Minor	Good_deeds	6	You have volunteered every week for many years	C2_9	1.0	Easy	I2_43	27	Hot chocolate was created by the Mayan culture	0.722222222222222	Yes	LEFT	1413.8218999999026	LEFT	784.0228000000025	RIGHT	1878.133999999932	RIGHT	1780.5649000000583	10.2	0.8	Probable_Lie	RIGHT	RIGHT	2	612.414740008489	15	2021-01-20 14:52:46.584859
53	Self	S210120B	0.5	1	2	2	1	0.7	1283.3333359	1150.0000023	2500.000005	1500.000003	Major	Wrong_doings	53	You have helped a friend in need	C1_57	0.0	Easy	I1_15	34	Acoustic Kitty refers to cat with implants	0.833333333333333	Yes	LEFT	1336.6888000000472	LEFT	1602.671600000008	RIGHT	1151.1015000000953	LEFT	4795.749999999998	10.2	0.7	Probable_Lie	RIGHT	LEFT	4	2541.421200000059	16	2021-01-20 14:53:17.024677
48	Self	S210120B	0.5	1	2	1	2	0.1	1350.0000027	1066.6666688	1500.000003	1650.0000033	Minor	Good_deeds	34	You have signed up as a bone marrow donor	C2_19	0.1	Easy	I2_56	11	The first Grammy awards was held in 1959	0.0	No	RIGHT	607.596199999989	RIGHT	732.9485999999861	RIGHT	1399.3406000000732	RIGHT	2086.910499999931	10.3	0.1	Probable_Truth	RIGHT	LEFT	2	2757.3218999999654	17	2021-01-20 14:53:42.751206
64	Self	S210120B	0.6666666666666666	1	2	1	2	0.8	1000.000002	1500.000003	2500.000005	2350.0000047	Major	Wrong_doings	14	You have rescued others from a catastrophe	C1_15	0.0	Easy	I2_58	40	Obama is the USA president now	0.0	Yes	RIGHT	591.2990000000491	RIGHT	570.9132999999156	RIGHT	1363.7208999999757	LEFT	1487.5509999999394	11.1	0.8	Probable_Truth	LEFT	LEFT	2	1882.1247999999289	18	2021-01-20 14:54:08.574920
71	Self	S210120B	0.6666666666666666	1	2	2	1	0.3	1216.6666691	1283.3333359	2216.6666711000003	1783.3333369	Major	Good_deeds	15	You have offered a listening ear to a friend	C2_40	0.95	Hard	I2_33	9	There are 6000 spoken languages in the World	0.777777777777778	Yes	RIGHT	647.2524000000703	RIGHT	647.6187999999183	RIGHT	1614.6298999999544	RIGHT	2268.20680000003	11.400000000000002	0.3	Probable_Truth	RIGHT	RIGHT	3	1414.8087000000942	19	2021-01-20 14:54:34.239524
47	Self	S210120B	0.8333333333333334	2	1	2	1	0.4	1066.6666688	1433.3333362	2350.0000047	1933.3333372	Minor	Wrong_doings	36	You have used a fake name online	C2_31	0.55	Hard	I2_23	17	Nomophobia is the fear of being without a phone or computer	1.0	Yes	RIGHT	852.0948000000317	RIGHT	385.4012000000466	LEFT	1064.3037999999478	RIGHT	3668.278200000032	11.800000000000002	0.4	Probable_Truth	LEFT	LEFT	1	971.4654000000564	20	2021-01-20 14:55:00.535992
115	Computer	S210120B	0.6666666666666666	1	2	1	2	0.5	1066.6666688	1150.0000023	2350.0000047	2066.6666708	Minor	Wrong_doings	31	You have bought cocaine	C2_34	1.0	Easy	I2_60	12	The Eiffel Tower is in Paris	0.777777777777778	No	LEFT	640.3937000000042	LEFT	1517.7578999999923	LEFT	1230.14969999997	RIGHT	1240.5719999999292	11.800000000000002	0.5	Probable_Lie	LEFT	RIGHT	2	858.3663824522648	21	2021-01-20 14:55:25.223923
100	Computer	S210120B	0.5	1	2	2	1	0.5	1350.0000027	1000.000002	2216.6666711000003	2500.000005	Major	Good_deeds	18	You have started an NGO using your savings	C2_11	0.0	Hard	I2_8	52	It is night time now	0.0	No	LEFT	752.2507000001042	RIGHT	2058.6463999999296	RIGHT	1470.620999999937	LEFT	1481.4609999999675	11.800000000000002	0.5	Probable_Truth	RIGHT	RIGHT	6	715.1890659933252	22	2021-01-20 14:55:51.335452
117	Computer	S210120B	0.6666666666666666	1	2	2	1	0.8	1283.3333359	1433.3333362	1650.0000033	1783.3333369	Major	Good_deeds	1	You have helped your parents when asked to	C2_27	0.95	Hard	I2_52	51	Astatine is the rarest element in the Earth's crust	0.0555555555555556	Yes	LEFT	927.3646999999984	RIGHT	608.4926999999425	RIGHT	1831.6206000000648	LEFT	2883.4196000000247	11.800000000000002	0.8	Probable_Truth	RIGHT	LEFT	2	564.4735470442057	23	2021-01-20 14:56:16.872842
83	Self	S210120B	0.8333333333333334	1	2	1	2	0.4	1216.6666691	1066.6666688	1650.0000033	2216.6666711000003	Major	Wrong_doings	33	You have failed to keep promises	C2_57	1.0	Easy	I1_29	29	Earth's atmosphere extends up to 10,000km into space	0.0	Yes	LEFT	968.3317000000216	LEFT	2398.7211999999545	LEFT	2026.095299999952	RIGHT	1647.3849999999857	11.800000000000002	0.4	Probable_Lie	RIGHT	RIGHT	1	1405.9780999999705	24	2021-01-20 14:56:44.041826
68	Self	S210120B	0.6666666666666666	1	2	2	1	0.7	1150.0000023	1150.0000023	1500.000003	1500.000003	Major	Wrong_doings	43	You have taken part in violent demonstration	C1_43	0.0	Hard	I2_40	41	The Amazon forest covers an area of 1 billion acres	0.0	Yes	RIGHT	343.61199999989367	RIGHT	741.1790999999539	LEFT	1951.0697999999136	RIGHT	2318.480500000078	12.500000000000002	0.7	Probable_Truth	RIGHT	RIGHT	3	1946.3975999999548	25	2021-01-20 14:57:09.215719
128	Computer	S210120B	0.8333333333333334	1	2	1	2	0.2	1000.000002	1283.3333359	2216.6666711000003	2350.0000047	Minor	Good_deeds	22	You have been physically hurt to protect others	C1_7	0.0	Hard	I1_53	47	Singapore is a poor country	0.0555555555555556	No	LEFT	424.6381000000383	LEFT	1944.316099999924	RIGHT	2259.302800000114	LEFT	960.0523000001432	12.500000000000002	0.2	Probable_Lie	RIGHT	LEFT	5	633.2940723320023	26	2021-01-20 14:57:34.855860
14	Self	S210120B	0.5	2	1	2	1	0.2	1433.3333362	1216.6666691	2350.0000047	2500.000005	Major	Good_deeds	51	You have violated a traffic law	C1_27	0.0	Easy	I1_44	25	A dog has four legs	0.0	No	RIGHT	1955.3650000000289	RIGHT	1744.1115000001446	LEFT	1152.3655999999391	RIGHT	998.0269999998654	12.7	0.2	Probable_Lie	LEFT	LEFT	6	2717.330299999958	27	2021-01-20 14:58:03.495205
44	Self	S210120B	0.8333333333333334	2	1	2	1	0.6	1433.3333362	1350.0000027	1933.3333372	1783.3333369	Major	Good_deeds	56	You have engaged in drink-driving	C1_23	0.7	Hard	I2_21	35	Singapore is a country	0.0	Yes	RIGHT	3617.19549999998	LEFT	2300.3797999999733	LEFT	888.3043000000725	RIGHT	1250.8445000000847	12.1	0.6	Probable_Lie	RIGHT	RIGHT	1	880.3213999999571	28	2021-01-20 14:58:31.511304
99	Computer	S210120B	0.5	1	2	1	2	0.1	1000.000002	1216.6666691	2500.000005	2350.0000047	Major	Wrong_doings	1	You have organized a violent protest	C1_46	0.65	Easy	I2_28	22	Saturn's rings are between 30 and 300 feet thick	0.944444444444444	No	LEFT	1200.602900000149	RIGHT	1659.1009999999642	LEFT	1593.4890999999425	RIGHT	1926.2599999999568	12.1	0.1	Probable_Truth	LEFT	LEFT	3	935.9882396171045	29	2021-01-20 14:58:58.463638
74	Self	S210120B	0.6666666666666666	2	1	1	2	0.6	1216.6666691	1283.3333359	2500.000005	1783.3333369	Minor	Good_deeds	40	You have eaten something in the MRT train	C2_25	1.0	Easy	I2_36	38	Red is a color	0.888888888888889	No	RIGHT	1699.9842000000172	RIGHT	616.2822999999662	LEFT	2009.1466999999736	RIGHT	1000.7554999999684	12.7	0.6	Probable_Lie	RIGHT	RIGHT	1	997.9558999998516	30	2021-01-20 14:59:24.143727
106	Computer	S210120B	0.5	2	1	1	2	0.3	1500.000003	1283.3333359	2350.0000047	1933.3333372	Minor	Wrong_doings	45	You have started a hotline for victims of bully	C2_30	0.95	Hard	I1_39	41	Lehman Brothers went bankrupt on 20th September	0.833333333333333	Yes	LEFT	2001.771599999984	LEFT	976.3605000000553	RIGHT	2868.8842999999906	RIGHT	3102.9395999999	12.7	0.3	Probable_Lie	RIGHT	LEFT	5	588.0504631150962	31	2021-01-20 14:59:53.311635
114	Computer	S210120B	0.6666666666666666	1	2	1	2	0.3	1350.0000027	1283.3333359	2216.6666711000003	2500.000005	Major	Good_deeds	49	You have lied to your parents	C2_1	1.0	Hard	I2_51	52	Dutch is the 6th Europe's most widely spoken language	0.888888888888889	No	LEFT	760.4409000000487	RIGHT	1033.659899999975	LEFT	1156.5214000002015	RIGHT	1912.0358000000124	12.7	0.3	Probable_Lie	LEFT	LEFT	3	633.1208374937122	32	2021-01-20 15:00:18.727302
84	Self	S210120B	0.8333333333333334	1	2	2	1	0.6	1066.6666688	1283.3333359	1500.000003	2066.6666708	Minor	Good_deeds	24	You have bought cigarettes for a minor	C2_8	0.85	Easy	I2_50	46	It is 20th Century now	0.0	Yes	LEFT	449.9846999999591	LEFT	3261.29119999996	LEFT	1366.7892000000847	LEFT	2684.758999999985	12.7	0.6	Probable_Lie	LEFT	LEFT	6	1104.928100000052	33	2021-01-20 15:00:46.087150
87	Self	S210120B	0.8333333333333334	1	2	2	1	0.8	1433.3333362	1216.6666691	1783.3333369	1783.3333369	Major	Wrong_doings	57	You have kept your promises	C1_59	1.0	Hard	I1_46	12	Christmas Day is in March	0.833333333333333	No	RIGHT	879.9398999999539	RIGHT	650.3629999999703	RIGHT	1047.4850999999037	LEFT	1721.2471000000278	13.500000000000002	0.8	Probable_Truth	LEFT	LEFT	1	1278.8734999999178	34	2021-01-20 15:01:10.455659
50	Self	S210120B	0.5	1	2	1	2	0.4	1433.3333362	1216.6666691	2216.6666711000003	2216.6666711000003	Major	Wrong_doings	6	You have been arrested	C1_34	0.25	Easy	I1_11	15	Some owl species hunt fish	0.722222222222222	No	LEFT	1040.085999999974	LEFT	1265.0729000001777	LEFT	935.955100000001	RIGHT	2360.148900000013	13.500000000000002	0.4	Probable_Lie	RIGHT	LEFT	6	2043.7181999998304	35	2021-01-20 15:01:37.758938
77	Self	S210120B	0.6666666666666666	2	1	2	1	0.1	1066.6666688	1500.000003	2216.6666711000003	1933.3333372	Minor	Wrong_doings	50	You have sign up to sponsor a needy child	C2_60	0.7	Hard	I1_3	2	Africa is the continent with the least rainfall	0.0	Yes	LEFT	646.7952000000423	LEFT	1336.710499999981	RIGHT	2158.8343999999324	RIGHT	3149.092200000041	13.500000000000002	0.1	Probable_Lie	LEFT	LEFT	5	1473.943699999836	36	2021-01-20 15:02:05.815679
120	Computer	S210120B	0.6666666666666666	2	1	1	2	0.6	1150.0000023	1216.6666691	2350.0000047	1933.3333372	Major	Good_deeds	43	You have kidnapped someone	C1_39	0.15	Hard	I1_32	32	Today is a weekday	0.833333333333333	No	LEFT	1209.2832000000726	LEFT	553.3096999999998	LEFT	835.2049000000079	RIGHT	1160.0012000001243	13.500000000000002	0.6	Probable_Lie	RIGHT	RIGHT	1	575.0203679218323	37	2021-01-20 15:02:29.359346
39	Self	S210120B	0.8333333333333334	1	2	2	1	0.4	1283.3333359	1500.000003	1500.000003	1650.0000033	Minor	Wrong_doings	29	You have volunteered for a disaster-related humanitarian mission	C1_22	0.05	Easy	I1_47	55	Beer is an alcoholic drink	0.0	Yes	RIGHT	392.6401999999598	RIGHT	821.4253999999528	RIGHT	1713.1901999998718	RIGHT	1150.8126999999604	13.900000000000002	0.4	Probable_Truth	RIGHT	RIGHT	2	2089.32179999988	38	2021-01-20 15:02:54.031479
2	Self	S210120B	0.5	1	2	1	2	0.3	1500.000003	1433.3333362	2350.0000047	1933.3333372	Minor	Good_deeds	29	You have stopped using products tested on animals	C1_50	1.0	Easy	I2_22	4	December is the last month of the year	0.833333333333333	No	LEFT	840.1496999999836	LEFT	1491.480700000011	RIGHT	1589.2868000000817	RIGHT	1175.5981999999676	13.900000000000002	0.3	Probable_Lie	RIGHT	RIGHT	2	1795.2013999999965	39	2021-01-20 15:03:20.711443
81	Self	S210120B	0.8333333333333334	1	2	1	2	0.2	1150.0000023	1150.0000023	1933.3333372	1500.000003	Major	Good_deeds	46	You have attended all lectures as a student	C1_9	0.85	Hard	I2_3	50	The Moon orbits around the Earth	0.777777777777778	No	RIGHT	488.27840000012657	RIGHT	2980.295000000069	RIGHT	1644.8643000001084	RIGHT	2975.347000000056	14.1	0.2	Probable_Lie	RIGHT	RIGHT	1	959.4130000000404	40	2021-01-20 15:03:48.071241
121	Computer	S210120B	0.6666666666666666	2	1	1	2	0.2	1066.6666688	1350.0000027	1500.000003	1783.3333369	Major	Wrong_doings	19	You have extorted money from anyone	C1_37	0.85	Hard	I1_27	43	A caterpillar has more muscle than a human	0.111111111111111	Yes	LEFT	972.441500000059	LEFT	624.344100000144	LEFT	1228.9024000001518	RIGHT	1007.9163999998856	14.1	0.2	Probable_Lie	LEFT	RIGHT	2	557.1817901013918	41	2021-01-20 15:04:10.727880
108	Computer	S210120B	0.5	2	1	2	1	0.2	1066.6666688	1150.0000023	2066.6666708	1500.000003	Major	Good_deeds	35	You have participated in a scamming business	C1_20	0.05	Easy	I2_35	39	Summer is hotter than winter	0.0	Yes	LEFT	774.4548999999097	RIGHT	872.7682999999615	LEFT	1280.0900999998248	RIGHT	1319.2619999999806	14.1	0.2	Probable_Truth	RIGHT	RIGHT	6	865.8031669102063	42	2021-01-20 15:04:34.191659
89	Self	S210120B	0.8333333333333334	2	1	1	2	0.7	1150.0000023	1216.6666691	2216.6666711000003	2350.0000047	Major	Wrong_doings	3	You have sorted your trash into recycling bin	C1_11	0.65	Hard	I2_26	48	The Seine river is 50 feet above sea level	0.0	Yes	RIGHT	584.7985000000335	RIGHT	558.1772000000456	RIGHT	1315.291600000137	RIGHT	1951.5317000000323	14.8	0.7	Probable_Truth	LEFT	LEFT	1	1135.9840000000077	43	2021-01-20 15:04:59.246957
49	Self	S210120B	0.5	1	2	1	2	0.8	1000.000002	1350.0000027	1783.3333369	2066.6666708	Minor	Wrong_doings	54	You have intentionally let others cut in line	C2_24	1.0	Easy	I2_34	57	Nanyang Technological University is in Australia	0.944444444444444	No	RIGHT	864.2918000000464	RIGHT	2089.0826999998358	LEFT	3543.404200000168	LEFT	1536.1167000000933	15.6	0.8	Probable_Lie	LEFT	LEFT	5	4027.960499999836	44	2021-01-20 15:05:30.078821
98	Computer	S210120B	0.5	1	2	1	2	0.3	1216.6666691	1350.0000027	2066.6666708	2066.6666708	Minor	Good_deeds	29	You have stopped using products tested on animals	C1_50	1.0	Easy	I2_22	4	December is the last month of the year	0.833333333333333	No	LEFT	640.1235999999244	LEFT	608.732400000008	RIGHT	1351.3393999999153	RIGHT	1496.5071000001444	15.6	0.3	Probable_Lie	RIGHT	LEFT	5	868.1973653384136	45	2021-01-20 15:05:54.310373
70	Self	S210120B	0.6666666666666666	1	2	2	1	0.1	1500.000003	1000.000002	1783.3333369	1650.0000033	Major	Good_deeds	42	You have stolen something	C2_7	0.05	Hard	I1_33	33	A triangle has three sides	0.666666666666667	No	LEFT	672.8038000001106	LEFT	1178.71080000009	LEFT	1153.6164000001463	RIGHT	1231.3232999999857	15.6	0.1	Probable_Lie	RIGHT	RIGHT	1	801.3498000000254	46	2021-01-20 15:06:17.854599
1	Self	S210120B	0.5	1	2	1	2	0.8	1216.6666691	1283.3333359	1783.3333369	1783.3333369	Major	Good_deeds	11	You have returned your trays in food courts	C1_29	1.0	Hard	I2_46	31	Algeria is Africa's second largest country	0.777777777777778	Yes	RIGHT	441.116299999976	RIGHT	1635.152699999935	RIGHT	1459.2462000000523	RIGHT	1576.149500000156	16.400000000000002	0.8	Probable_Lie	RIGHT	LEFT	4	2173.741599999857	47	2021-01-20 15:06:43.774890
55	Self	S210120B	0.5	1	2	2	1	0.5	1150.0000023	1500.000003	1933.3333372	1933.3333372	Major	Good_deeds	24	You have engaged in money laundering	C1_16	0.0	Hard	I2_49	54	Vegetarians can eat vegetable products	0.0	Yes	RIGHT	489.099699999997	RIGHT	1268.4289999999692	LEFT	1120.1462000001357	RIGHT	3643.778099999963	16.900000000000002	0.5	Probable_Lie	LEFT	RIGHT	2	1107.9359000000295	48	2021-01-20 15:08:05.007502
11	Self	S210120B	0.5	2	1	1	2	0.8	1066.6666688	1283.3333359	1933.3333372	2066.6666708	Minor	Wrong_doings	13	You have taken months off to volunteer	C1_51	0.75	Hard	I1_25	44	Arabi is the oldest surviving breed of horse	0.888888888888889	Yes	RIGHT	811.9156000000203	RIGHT	392.92090000003554	RIGHT	2024.4822999998175	RIGHT	2920.182700000169	17.700000000000003	0.8	Probable_Truth	RIGHT	LEFT	2	1305.14119999998	49	2021-01-20 15:08:31.382847
0	Self	S210120B	0.5	1	2	1	2	0.1	1350.0000027	1500.000003	2216.6666711000003	2066.6666708	Minor	Good_deeds	46	You have cheated on a test	C2_59	0.1	Hard	I1_52	2	There are 7 days in a week	0.666666666666667	Yes	RIGHT	1448.2454000001326	RIGHT	2631.524899999931	LEFT	1000.0107000000752	RIGHT	982.6388999999836	17.800000000000004	0.1	Probable_Lie	LEFT	LEFT	4	2678.4662000000026	50	2021-01-20 15:08:59.830435
43	Self	S210120B	0.8333333333333334	2	1	1	2	0.8	1216.6666691	1216.6666691	2066.6666708	2216.6666711000003	Major	Wrong_doings	23	You have started a movement to support a cause	C1_36	0.0	Easy	I2_17	6	It takes 112 years to build the Pisa Tower	0.944444444444444	No	RIGHT	567.0444999998381	RIGHT	432.21779999998944	RIGHT	1595.573700000159	RIGHT	2062.8229999999803	18.600000000000005	0.8	Probable_Truth	RIGHT	RIGHT	6	1597.6035999999567	51	2021-01-20 15:09:25.374499
9	Self	S210120B	0.5	2	1	1	2	0.5	1150.0000023	1150.0000023	2500.000005	1500.000003	Major	Wrong_doings	20	You have held the elevator doors for others	C2_13	0.0	Easy	I2_41	31	The hyoid bone is the only jointless bone	0.0555555555555556	No	RIGHT	1925.327699999798	RIGHT	320.4160000000229	RIGHT	1295.9860999999364	RIGHT	2487.90310000004	19.100000000000005	0.5	Probable_Lie	RIGHT	LEFT	4	2121.690499999886	52	2021-01-20 15:09:52.398195
62	Self	S210120B	0.5	2	1	2	1	0.3	1150.0000023	1500.000003	2066.6666708	1650.0000033	Minor	Good_deeds	17	You have bribed a police officer	C2_48	0.7	Easy	I1_37	10	There is typically 0.6 grams of mercury in glass thermometer	0.833333333333333	Yes	RIGHT	1607.1179999999003	RIGHT	544.859200000019	LEFT	840.7847000000856	RIGHT	3742.9829999998674	19.40000000000001	0.3	Probable_Lie	RIGHT	RIGHT	1	1589.148699999896	53	2021-01-20 15:10:19.662892
132	Computer	S210120B	0.8333333333333334	1	2	2	1	0.7	1500.000003	1433.3333362	1500.000003	2500.000005	Minor	Good_deeds	47	You have made counterfeit money	C2_47	0.05	Hard	I1_26	53	Marijuana is legal in Singapore	0.944444444444444	Yes	LEFT	1071.5371000001142	RIGHT	1479.2954000001828	LEFT	1022.9672000000392	LEFT	1357.9162999999426	19.40000000000001	0.7	Probable_Truth	RIGHT	RIGHT	5	575.8934686569298	54	2021-01-20 15:10:44.662669
5	Self	S210120B	0.5	1	2	2	1	0.2	1000.000002	1350.0000027	2066.6666708	2500.000005	Major	Wrong_doings	59	You have downloaded pirated movies	C2_45	0.7	Easy	I1_4	8	Singapore ranked 8th in World's smallest countries	0.0	No	RIGHT	328.6577999999736	RIGHT	580.7138000000123	LEFT	840.3381999999056	RIGHT	2702.674300000126	19.600000000000005	0.2	Probable_Truth	RIGHT	RIGHT	4	3195.004900000185	55	2021-01-20 15:11:11.798402
34	Self	S210120B	0.8333333333333334	1	2	1	2	0.5	1500.000003	1000.000002	2216.6666711000003	2350.0000047	Major	Wrong_doings	58	You have borrowed things and never returned	C2_33	0.65	Hard	I2_44	17	Most plants emit oxygen in the day	0.0555555555555556	No	RIGHT	408.7555000000975	RIGHT	1161.430500000051	LEFT	1977.6816000000963	RIGHT	1392.736399999876	20.100000000000005	0.5	Probable_Lie	LEFT	LEFT	2	931.9267999999284	56	2021-01-20 15:11:37.309944
124	Computer	S210120B	0.6666666666666666	2	1	2	1	0.5	1283.3333359	1000.000002	2066.6666708	1500.000003	Minor	Wrong_doings	9	You have given directions to a lost tourist	C1_19	0.9	Easy	I1_19	30	R. Amundsen discovered the South Pole	1.0	No	LEFT	937.9381999999624	RIGHT	817.4993000000086	RIGHT	1592.1754000000874	RIGHT	2563.2170999999744	20.100000000000005	0.5	Probable_Truth	LEFT	LEFT	1	783.0538433279653	57	2021-01-20 15:12:02.422720
22	Self	S210120B	0.6666666666666666	1	2	2	1	0.1	1433.3333362	1000.000002	2066.6666708	2066.6666708	Major	Good_deeds	38	You have donated a pay cheque to charity	C1_8	0.2	Hard	I1_50	28	There are 9 rings in the Olympic flag	0.833333333333333	Yes	RIGHT	600.480300000072	RIGHT	1149.040100000093	RIGHT	1696.0077999999612	LEFT	1798.183999999992	20.200000000000006	0.1	Probable_Truth	RIGHT	RIGHT	5	870.0988000000507	58	2021-01-20 15:12:27.678683
78	Self	S210120B	0.6666666666666666	2	1	2	1	0.2	1350.0000027	1066.6666688	1783.3333369	1650.0000033	Major	Good_deeds	60	You have adopted a zero-waste lifestyle	C2_50	0.0	Easy	I2_1	43	Slavery was abolished in Cuba in 1886	1.0	Yes	RIGHT	1690.4029000002083	RIGHT	471.5616999999384	RIGHT	1616.1878000000345	LEFT	4616.870999999946	20.40000000000001	0.2	Probable_Lie	RIGHT	RIGHT	1	829.8423000001094	59	2021-01-20 15:12:55.326154
58	Self	S210120B	0.5	2	1	1	2	0.4	1066.6666688	1350.0000027	2350.0000047	2500.000005	Minor	Good_deeds	38	You have sheltered others from disasters	C1_38	0.95	Easy	I1_40	23	Animals are living things	0.166666666666667	No	RIGHT	667.5084000000879	RIGHT	433.1135999998424	RIGHT	1661.5293000002112	RIGHT	1024.662799999987	20.800000000000004	0.4	Probable_Truth	LEFT	RIGHT	5	3397.17799999994	60	2021-01-20 15:13:22.351458
141	Computer	S210120B	0.8333333333333334	2	1	2	1	0.1	1216.6666691	1433.3333362	1783.3333369	1933.3333372	Minor	Wrong_doings	31	You have switched off appliances when not in use	C2_56	0.9	Easy	I1_45	6	Mageirocophobia is a fear of deathly disease	0.0555555555555556	Yes	LEFT	1317.0562000000243	LEFT	934.1159999999036	RIGHT	1431.7928999998912	RIGHT	3132.615199999691	20.800000000000004	0.1	Probable_Lie	RIGHT	LEFT	3	959.2292972114128	61	2021-01-20 15:13:49.070084
103	Computer	S210120B	0.5	1	2	2	1	0.2	1066.6666688	1433.3333362	1933.3333372	2216.6666711000003	Minor	Wrong_doings	45	You have used heroin	C2_18	0.0	Hard	I1_2	46	Milwaukee Art Museum is located in California	0.0	Yes	RIGHT	720.828900000015	RIGHT	1220.519299999978	LEFT	1023.9624999999252	RIGHT	2360.454300000129	21.000000000000004	0.2	Probable_Truth	LEFT	LEFT	2	590.338760975827	62	2021-01-20 15:14:14.198839
96	Computer	S210120B	0.5	1	2	1	2	0.7	1283.3333359	1283.3333359	1783.3333369	1783.3333369	Minor	Good_deeds	46	You have cheated on a test	C2_59	0.1	Hard	I1_52	2	There are 7 days in a week	0.666666666666667	Yes	RIGHT	743.2321999999658	RIGHT	680.518199999824	LEFT	1002.614999999878	RIGHT	896.3447999999516	21.700000000000003	0.7	Probable_Truth	LEFT	RIGHT	4	982.4284149435772	63	2021-01-20 15:14:37.206699
28	Self	S210120B	0.6666666666666666	2	1	2	1	0.5	1500.000003	1350.0000027	2350.0000047	2350.0000047	Minor	Wrong_doings	9	You have given directions to a lost tourist	C1_19	0.9	Easy	I1_19	30	R. Amundsen discovered the South Pole	1.0	No	RIGHT	1381.0051000000385	RIGHT	568.253200000072	RIGHT	1336.2434000000576	RIGHT	1313.9980000000833	22.200000000000003	0.5	Probable_Lie	RIGHT	RIGHT	2	894.4004999998469	64	2021-01-20 15:15:02.822615
101	Computer	S210120B	0.5	1	2	2	1	0.4	1150.0000023	1150.0000023	1650.0000033	1500.000003	Major	Wrong_doings	59	You have downloaded pirated movies	C2_45	0.7	Easy	I1_4	8	Singapore ranked 8th in World's smallest countries	0.0	No	LEFT	856.9118999998864	RIGHT	1008.9845000002242	LEFT	807.9957999998442	RIGHT	1448.5365000000456	22.200000000000003	0.4	Probable_Truth	RIGHT	LEFT	1	931.220479978742	65	2021-01-20 15:15:25.894605
15	Self	S210120B	0.5	2	1	2	1	0.3	1216.6666691	1350.0000027	2066.6666708	1933.3333372	Minor	Wrong_doings	58	You have taken responsibility for your actions	C2_35	0.0	Easy	I2_5	13	Teddy Roosevelt was the youngest US President	0.888888888888889	No	LEFT	1581.951300000128	LEFT	1087.416200000007	LEFT	1007.8217000000222	RIGHT	1885.0972000000183	22.200000000000003	0.3	Probable_Lie	RIGHT	LEFT	6	1144.0403999999944	66	2021-01-20 15:15:51.742170
139	Computer	S210120B	0.8333333333333334	2	1	1	2	0.7	1433.3333362	1000.000002	1933.3333372	2350.0000047	Major	Wrong_doings	23	You have started a movement to support a cause	C1_36	0.0	Easy	I2_17	6	It takes 112 years to build the Pisa Tower	0.944444444444444	No	RIGHT	980.1815000000717	RIGHT	678.5879000003661	RIGHT	2066.968199999792	RIGHT	1198.984399999972	22.9	0.7	Probable_Truth	LEFT	RIGHT	2	668.191125112546	67	2021-01-20 15:16:16.622651
6	Self	S210120B	0.5	1	2	2	1	0.5	1150.0000023	1000.000002	1500.000003	2350.0000047	Minor	Wrong_doings	50	You have confessed to your mistake	C1_1	0.0	Easy	I1_31	28	Singapore is in Africa	0.0	Yes	RIGHT	646.6206999998576	RIGHT	630.622200000289	RIGHT	1592.005099999824	LEFT	1420.9983000000648	23.4	0.5	Probable_Truth	RIGHT	RIGHT	5	2222.283099999913	68	2021-01-20 15:16:41.710344
67	Self	S210120B	0.6666666666666666	1	2	1	2	0.2	1066.6666688	1433.3333362	1650.0000033	2066.6666708	Minor	Wrong_doings	36	You have provided shelter for stray animals	C1_14	1.0	Easy	I1_41	58	Bears have the biggest eyes among mammals	0.722222222222222	No	RIGHT	592.7130000000034	RIGHT	846.8120000002273	RIGHT	1573.9902000000257	LEFT	3960.653399999956	23.6	0.2	Probable_Truth	LEFT	LEFT	1	1161.4156000000548	69	2021-01-20 15:17:08.638447
26	Self	S210120B	0.6666666666666666	2	1	1	2	0.2	1066.6666688	1500.000003	1783.3333369	1933.3333372	Minor	Good_deeds	37	You have cursed at others	C2_39	0.05	Hard	I2_30	19	Chickens lay eggs	0.111111111111111	Yes	RIGHT	538.1466999997429	RIGHT	416.1588000001757	LEFT	2326.980900000308	RIGHT	928.7782000001243	23.8	0.2	Probable_Truth	RIGHT	RIGHT	4	1166.9310000002042	70	2021-01-20 15:17:32.870300
52	Self	S210120B	0.5	1	2	2	1	0.3	1500.000003	1283.3333359	2350.0000047	1783.3333369	Major	Wrong_doings	57	You have pretended to be busy to avoid a social situation	C1_6	0.95	Hard	I1_57	49	The current century is 21st	0.888888888888889	Yes	RIGHT	352.7186999999685	RIGHT	714.920599999914	LEFT	3240.881300000183	RIGHT	2243.6548000000585	24.1	0.3	Probable_Truth	LEFT	LEFT	3	1072.1548000001349	71	2021-01-20 15:17:59.982203
66	Self	S210120B	0.6666666666666666	1	2	1	2	0.4	1350.0000027	1066.6666688	2350.0000047	2216.6666711000003	Minor	Good_deeds	7	You have faked an illness	C2_14	0.9	Easy	I1_14	4	The Earth is round	0.0	Yes	RIGHT	400.3590000002077	RIGHT	979.0711999999075	LEFT	1590.8210000002327	RIGHT	928.1381000000692	24.5	0.4	Probable_Lie	LEFT	RIGHT	2	2740.0729000000865	72	2021-01-20 15:18:26.182552
10	Self	S210120B	0.5	2	1	1	2	0.4	1283.3333359	1066.6666688	1650.0000033	1783.3333369	Minor	Wrong_doings	45	You have started a hotline for victims of bully	C2_30	0.95	Hard	I1_39	41	Lehman Brothers went bankrupt on 20th September	0.833333333333333	Yes	RIGHT	534.8833999996714	RIGHT	584.224699999595	RIGHT	1394.497499999943	RIGHT	2783.225000000129	24.9	0.4	Probable_Truth	RIGHT	LEFT	3	2649.863900000128	73	2021-01-20 15:18:52.486825
143	Computer	S210120B	0.8333333333333334	2	1	2	1	0.8	1500.000003	1150.0000023	2066.6666708	2216.6666711000003	Minor	Wrong_doings	36	You have used a fake name online	C2_31	0.55	Hard	I2_23	17	Nomophobia is the fear of being without a phone or computer	1.0	Yes	RIGHT	760.8809999996993	RIGHT	400.771099999929	LEFT	855.4705000001377	RIGHT	4217.224500000157	25.7	0.8	Probable_Truth	LEFT	LEFT	1	765.1762242384276	74	2021-01-20 15:19:18.989733
135	Computer	S210120B	0.8333333333333334	1	2	2	1	0.1	1150.0000023	1000.000002	1650.0000033	2216.6666711000003	Minor	Wrong_doings	29	You have volunteered for a disaster-related humanitarian mission	C1_22	0.05	Easy	I1_47	55	Beer is an alcoholic drink	0.0	Yes	LEFT	431.579900000088	LEFT	1225.906600000144	RIGHT	1302.6942000001327	RIGHT	1105.6045000000267	25.7	0.1	Probable_Lie	LEFT	RIGHT	1	558.2275072630949	75	2021-01-20 15:19:42.190146
18	Self	S210120B	0.6666666666666666	1	2	1	2	0.8	1000.000002	1433.3333362	1500.000003	2500.000005	Major	Good_deeds	49	You have lied to your parents	C2_1	1.0	Hard	I2_51	52	Dutch is the 6th Europe's most widely spoken language	0.888888888888889	No	RIGHT	376.1360000003151	RIGHT	746.9005999996625	LEFT	1285.4569000000993	RIGHT	1095.5693999999312	26.5	0.8	Probable_Truth	RIGHT	LEFT	1	3567.048800000066	76	2021-01-20 15:20:08.270599
85	Self	S210120B	0.8333333333333334	1	2	2	1	0.1	1000.000002	1500.000003	2500.000005	2350.0000047	Minor	Wrong_doings	59	You have engaged in underage smoking	C2_28	0.2	Hard	I2_16	45	Feijoa is a type of grape	0.0	Yes	RIGHT	1015.332099999796	RIGHT	622.1421999998711	LEFT	1152.983899999981	RIGHT	1996.810900000128	26.6	0.1	Probable_Truth	LEFT	LEFT	1	1525.6820000004154	77	2021-01-20 15:20:34.511805
142	Computer	S210120B	0.8333333333333334	2	1	2	1	0.2	1283.3333359	1216.6666691	2216.6666711000003	1783.3333369	Minor	Wrong_doings	53	You have been donating all your excess food to a food bank	C2_26	1.0	Easy	I1_35	21	Brazil is in South America	0.0	Yes	RIGHT	1572.2475000002305	RIGHT	552.8945999999451	RIGHT	2239.2447000001994	RIGHT	1434.3503999998577	26.8	0.2	Probable_Truth	RIGHT	RIGHT	4	670.4854689276299	78	2021-01-20 15:21:00.045981
41	Self	S210120B	0.8333333333333334	2	1	1	2	0.3	1283.3333359	1066.6666688	2216.6666711000003	2350.0000047	Major	Good_deeds	2	You have gossiped about your best friend	C2_2	0.0	Hard	I2_6	23	Pyramid of Giza is 468 feet tall	0.944444444444444	No	RIGHT	800.4134000002523	RIGHT	302.94610000009925	LEFT	1587.7645999999004	RIGHT	1288.1047999999282	27.1	0.3	Probable_Truth	RIGHT	RIGHT	5	841.0405999998147	79	2021-01-20 15:21:24.358289
7	Self	S210120B	0.5	1	2	2	1	0.4	1066.6666688	1066.6666688	1933.3333372	1650.0000033	Minor	Wrong_doings	45	You have used heroin	C2_18	0.0	Hard	I1_2	46	Milwaukee Art Museum is located in California	0.0	Yes	RIGHT	343.91050000022005	RIGHT	1010.479999999916	LEFT	704.1858999996293	RIGHT	1200.6510000001072	27.5	0.4	Probable_Lie	LEFT	LEFT	6	1482.1240999999643	80	2021-01-20 15:21:47.389398
88	Self	S210120B	0.8333333333333334	2	1	1	2	0.4	1433.3333362	1433.3333362	1650.0000033	2066.6666708	Minor	Wrong_doings	44	You have given way to the handicapped	C1_4	0.95	Easy	I1_48	25	There are 6 million animal species on Earth	0.944444444444444	No	RIGHT	440.491800000018	RIGHT	832.2089999996933	RIGHT	1654.7163000000182	RIGHT	2432.320699999764	27.9	0.4	Probable_Lie	LEFT	LEFT	4	1947.2547000000304	81	2021-01-20 15:22:13.854752
129	Computer	S210120B	0.8333333333333334	1	2	1	2	0.6	1216.6666691	1150.0000023	1783.3333369	1500.000003	Minor	Wrong_doings	7	You have watched an M18 movie when you were underage	C2_29	0.8	Easy	I2_59	59	There are 20 bones in the human skull	0.888888888888889	Yes	RIGHT	311.9459999998071	RIGHT	1503.599000000122	LEFT	2575.311399999918	LEFT	2375.8953000001384	28.5	0.6	Probable_Truth	RIGHT	RIGHT	5	982.2977172553556	82	2021-01-20 15:22:39.821443
56	Self	S210120B	0.5	2	1	1	2	0.7	1350.0000027	1150.0000023	2216.6666711000003	1500.000003	Major	Good_deeds	17	You have held the door open for a stranger	C2_17	0.0	Easy	I1_10	39	French is Singapore's official language	0.0	No	RIGHT	673.1257000001278	RIGHT	352.7320999996846	RIGHT	2046.6072000003803	LEFT	1247.0391000001655	29.2	0.7	Probable_Truth	LEFT	RIGHT	4	2453.229800000372	83	2021-01-20 15:23:05.381027
65	Self	S210120B	0.6666666666666666	1	2	1	2	0.6	1433.3333362	1216.6666691	1933.3333372	2500.000005	Minor	Good_deeds	14	You have given up your seat in the MRT	C2_36	0.65	Hard	I1_9	14	The sun rises at night	0.0	No	RIGHT	918.4144999999262	RIGHT	501.813900000343	RIGHT	1053.961099999924	LEFT	1174.5608000001084	29.8	0.6	Probable_Truth	RIGHT	RIGHT	5	1182.9099999999926	84	2021-01-20 15:23:29.870567
125	Computer	S210120B	0.6666666666666666	2	1	2	1	0.3	1216.6666691	1066.6666688	1650.0000033	1650.0000033	Major	Good_deeds	39	You have shown your appreciation to your teachers	C2_6	0.0	Easy	I1_38	18	There are 10 continents in the World	0.0	Yes	LEFT	879.7577000000274	LEFT	1056.2739000001784	RIGHT	1088.7274000001526	LEFT	1417.1612000000096	29.8	0.3	Probable_Lie	RIGHT	RIGHT	2	752.388050087322	85	2021-01-20 15:23:53.214423
35	Self	S210120B	0.8333333333333334	1	2	1	2	0.8	1216.6666691	1433.3333362	2500.000005	2216.6666711000003	Major	Good_deeds	23	You have followed instructions	C1_58	0.45	Easy	I1_17	53	The first Olympic Games was held in the 5th century B.C	1.0	Yes	RIGHT	376.02270000024873	RIGHT	1021.2361000003511	RIGHT	1335.5802999999469	RIGHT	2967.7520000000186	30.6	0.8	Probable_Lie	RIGHT	RIGHT	1	2165.262900000016	86	2021-01-20 15:24:21.021683
136	Computer	S210120B	0.8333333333333334	2	1	1	2	0.5	1350.0000027	1350.0000027	1650.0000033	1650.0000033	Major	Good_deeds	5	You have thrown your trash into the bin	C1_5	0.0	Hard	I1_1	45	Singapore has four seasons	0.0	No	LEFT	735.7407999998031	LEFT	887.8841000000648	RIGHT	1560.0784999996904	LEFT	1312.1212999999443	30.6	0.5	Probable_Lie	LEFT	RIGHT	1	564.0525661828899	87	2021-01-20 15:24:44.654857
82	Self	S210120B	0.8333333333333334	1	2	1	2	0.7	1500.000003	1433.3333362	2350.0000047	1933.3333372	Major	Good_deeds	9	You have helped with household chores	C1_33	0.0	Easy	I1_12	16	South East Asia is currently free from polio	0.666666666666667	Yes	RIGHT	400.99869999994553	RIGHT	940.0929000003088	RIGHT	988.8006000001042	LEFT	2360.3761999997914	31.3	0.7	Probable_Truth	LEFT	LEFT	1	2496.601800000008	88	2021-01-20 15:25:11.629395
19	Self	S210120B	0.6666666666666666	1	2	1	2	0.6	1066.6666688	1150.0000023	1650.0000033	2350.0000047	Minor	Wrong_doings	31	You have bought cocaine	C2_34	1.0	Easy	I2_60	12	The Eiffel Tower is in Paris	0.777777777777778	No	RIGHT	345.1018999999178	RIGHT	582.7667000003203	LEFT	994.0283000000818	RIGHT	1072.2780999999486	31.9	0.6	Probable_Lie	LEFT	LEFT	3	1212.6847999998065	89	2021-01-20 15:25:34.629359
38	Self	S210120B	0.8333333333333334	1	2	2	1	0.3	1000.000002	1216.6666691	1783.3333369	1500.000003	Major	Good_deeds	35	You have cheated on a national exam	C2_23	1.0	Hard	I2_53	26	Septicemia is a lung infection condition	0.0	No	RIGHT	361.3516999998865	RIGHT	906.836199999816	LEFT	1024.576199999956	RIGHT	2853.986200000236	32.2	0.3	Probable_Truth	RIGHT	RIGHT	3	1190.9727000002022	90	2021-01-20 15:25:59.036926
75	Self	S210120B	0.6666666666666666	2	1	1	2	0.8	1433.3333362	1000.000002	1650.0000033	2350.0000047	Minor	Good_deeds	3	You have queued to enter the MRT train	C1_3	0.05	Easy	I2_2	42	There are 30 hours in a day	0.0	Yes	RIGHT	1166.54410000001	RIGHT	359.8262999998951	RIGHT	1417.697599999883	LEFT	1336.5229000000909	33.0	0.8	Probable_Lie	RIGHT	LEFT	5	2958.2209999998668	91	2021-01-20 15:26:25.285265
111	Computer	S210120B	0.5	2	1	2	1	0.8	1216.6666691	1433.3333362	1500.000003	1650.0000033	Minor	Wrong_doings	58	You have taken responsibility for your actions	C2_35	0.0	Easy	I2_5	13	Teddy Roosevelt was the youngest US President	0.888888888888889	No	RIGHT	1253.1220999999275	RIGHT	408.51000000020576	RIGHT	1527.1379999999226	RIGHT	1407.9835000002277	33.8	0.8	Probable_Lie	LEFT	LEFT	6	862.6551902890719	92	2021-01-20 15:26:49.118311
60	Self	S210120B	0.5	2	1	2	1	0.2	1283.3333359	1433.3333362	1933.3333372	2066.6666708	Minor	Wrong_doings	48	You have lost everything just to help others	C1_17	0.0	Hard	I2_42	48	It takes 500 days to travel from Earth to Mars	0.611111111111111	Yes	RIGHT	619.6468000002824	RIGHT	512.6664999997956	RIGHT	1968.279100000018	LEFT	3790.535999999975	34.0	0.2	Probable_Truth	LEFT	LEFT	3	864.89389999997	93	2021-01-20 15:27:16.165201
29	Self	S210120B	0.6666666666666666	2	1	2	1	0.4	1350.0000027	1433.3333362	2500.000005	2066.6666708	Major	Good_deeds	39	You have shown your appreciation to your teachers	C2_6	0.0	Easy	I1_38	18	There are 10 continents in the World	0.0	Yes	RIGHT	1301.536599999963	RIGHT	392.3005000001467	RIGHT	871.4380999999776	LEFT	904.1422999998758	34.4	0.4	Probable_Lie	LEFT	LEFT	6	1032.5545000000602	94	2021-01-20 15:27:40.589097
118	Computer	S210120B	0.6666666666666666	1	2	2	1	0.6	1500.000003	1066.6666688	1933.3333372	1933.3333372	Major	Good_deeds	38	You have donated a pay cheque to charity	C1_8	0.2	Hard	I1_50	28	There are 9 rings in the Olympic flag	0.833333333333333	Yes	RIGHT	368.0186000001413	RIGHT	1805.436900000132	RIGHT	1151.6952000001766	LEFT	1220.4020999997738	35.0	0.6	Probable_Lie	LEFT	RIGHT	1	629.8653942883893	95	2021-01-20 15:28:04.773858
140	Computer	S210120B	0.8333333333333334	2	1	2	1	0.3	1150.0000023	1283.3333359	2350.0000047	2500.000005	Major	Good_deeds	56	You have engaged in drink-driving	C1_23	0.7	Hard	I2_21	35	Singapore is a country	0.0	Yes	RIGHT	1088.6528999999427	RIGHT	839.4985999998426	LEFT	918.481900000188	RIGHT	967.7754999997888	35.3	0.3	Probable_Lie	LEFT	RIGHT	1	682.150685663187	96	2021-01-20 15:29:01.437809
16	Self	S210120B	0.6666666666666666	1	2	1	2	0.5	1150.0000023	1216.6666691	2216.6666711000003	1933.3333372	Minor	Wrong_doings	30	You have told someone's secret to others	C1_31	0.0	Easy	I1_60	60	Malay is one of the races in Singapore	0.888888888888889	Yes	RIGHT	383.5584000003109	RIGHT	583.4675000000971	LEFT	1197.3472999998194	RIGHT	1328.0289999997876	35.8	0.5	Probable_Truth	LEFT	LEFT	1	1491.4481000000706	97	2021-01-20 15:29:25.517104
42	Self	S210120B	0.8333333333333334	2	1	1	2	0.2	1500.000003	1283.3333359	1650.0000033	1650.0000033	Minor	Good_deeds	26	You have been sued	C1_53	0.05	Easy	I1_6	1	Today is Sunday	0.944444444444444	No	LEFT	1694.649500000196	RIGHT	1416.8055000000095	LEFT	1057.666799999879	LEFT	1080.69740000019	35.8	0.2	Probable_Lie	RIGHT	RIGHT	1	896.7711000000236	98	2021-01-20 15:29:50.317014
63	Self	S210120B	0.5	2	1	2	1	0.6	1433.3333362	1216.6666691	1500.000003	2350.0000047	Major	Wrong_doings	48	You have bribed someone to improve a grade	C1_12	0.0	Easy	I2_13	42	Fishes can swim in water	0.0	No	RIGHT	939.4849999998768	RIGHT	672.9270999999244	LEFT	1271.2644999996885	RIGHT	1997.732400000132	36.4	0.6	Probable_Lie	LEFT	RIGHT	2	2132.2696000002	99	2021-01-20 15:30:16.405156
122	Computer	S210120B	0.6666666666666666	2	1	1	2	0.1	1433.3333362	1150.0000023	1933.3333372	2216.6666711000003	Minor	Good_deeds	37	You have cursed at others	C2_39	0.05	Hard	I2_30	19	Chickens lay eggs	0.111111111111111	Yes	RIGHT	2564.0411999997923	RIGHT	414.41930000019056	LEFT	1064.909600000192	RIGHT	1032.7692999999272	36.5	0.1	Probable_Lie	LEFT	LEFT	6	896.833507899996	100	2021-01-20 15:30:41.685414
107	Computer	S210120B	0.5	2	1	1	2	0.5	1283.3333359	1216.6666691	1933.3333372	2066.6666708	Minor	Wrong_doings	13	You have taken months off to volunteer	C1_51	0.75	Hard	I1_25	44	Arabi is the oldest surviving breed of horse	0.888888888888889	Yes	RIGHT	958.040600000004	RIGHT	312.4017999998614	RIGHT	1430.8943999999428	RIGHT	2431.5772999998444	37.0	0.5	Probable_Lie	RIGHT	LEFT	4	503.414983228764	101	2021-01-20 15:31:06.389584
76	Self	S210120B	0.6666666666666666	2	1	2	1	0.5	1150.0000023	1350.0000027	1500.000003	1500.000003	Major	Good_deeds	47	You have engaged in arson	C1_47	1.0	Hard	I1_8	8	Mexico's National Day is September 16	0.611111111111111	No	RIGHT	1068.333300000177	RIGHT	328.94100000021353	LEFT	944.688000000042	LEFT	3901.78509999987	37.5	0.5	Probable_Lie	RIGHT	RIGHT	2	1035.7438000000911	102	2021-01-20 15:31:31.741152
104	Computer	S210120B	0.5	2	1	1	2	0.1	1433.3333362	1350.0000027	1783.3333369	1783.3333369	Minor	Good_deeds	30	You have fabricated facts about yourself	C1_45	0.5	Hard	I2_31	35	February has 30 days	0.944444444444444	No	LEFT	1089.5338999998785	LEFT	361.029900000176	LEFT	1954.0099999999256	LEFT	3751.9343999997545	37.5	0.1	Probable_Lie	LEFT	LEFT	5	540.9675115372806	103	2021-01-20 15:31:58.357068
80	Self	S210120B	0.8333333333333334	1	2	1	2	0.3	1283.3333359	1000.000002	2216.6666711000003	2500.000005	Minor	Good_deeds	8	You have watched a pirated movie	C1_24	0.05	Easy	I1_58	58	Statute of Liberty is in New York	0.0555555555555556	No	RIGHT	344.4846000002144	RIGHT	1376.7626999997449	LEFT	1046.903200000088	RIGHT	2104.470400000082	37.8	0.3	Probable_Truth	LEFT	LEFT	1	1080.201400000078	104	2021-01-20 15:32:23.885500
113	Computer	S210120B	0.6666666666666666	1	2	1	2	0.1	1150.0000023	1216.6666691	2066.6666708	1650.0000033	Minor	Good_deeds	34	You have stopped using plastics completely	C1_49	0.0	Hard	I1_28	60	The Earth turns the closest to the sun in May	0.0	No	RIGHT	344.48680000014065	RIGHT	1056.8187999997465	LEFT	1800.6617999999437	RIGHT	1711.3674000001993	37.9	0.1	Probable_Lie	LEFT	LEFT	3	824.2678872900452	105	2021-01-20 15:32:48.268969
93	Self	S210120B	0.8333333333333334	2	1	2	1	0.2	1283.3333359	1350.0000027	1500.000003	1500.000003	Major	Good_deeds	4	You have made someone cry	C1_44	1.0	Easy	I1_21	21	Penguin can fly with their wings	0.0555555555555556	No	RIGHT	1124.3562999998176	RIGHT	289.28869999981544	LEFT	1318.856500000038	LEFT	1318.5814999997092	38.1	0.2	Probable_Lie	RIGHT	RIGHT	1	767.4481999997624	106	2021-01-20 15:33:11.293007
95	Self	S210120B	0.8333333333333334	2	1	2	1	0.6	1000.000002	1000.000002	2500.000005	1933.3333372	Minor	Good_deeds	42	You have risked your life to save another person's life	C2_10	0.05	Easy	I2_25	24	Carnivore refers to meat-eater	0.0	Yes	RIGHT	445.6583999999566	RIGHT	344.49529999983497	RIGHT	1391.3665999998557	RIGHT	1172.7659999996831	38.7	0.6	Probable_Truth	LEFT	LEFT	1	868.6447000000044	107	2021-01-20 15:33:34.524976
36	Self	S210120B	0.8333333333333334	1	2	2	1	0.1	1350.0000027	1350.0000027	2350.0000047	2500.000005	Minor	Good_deeds	47	You have made counterfeit money	C2_47	0.05	Hard	I1_26	53	Marijuana is legal in Singapore	0.944444444444444	Yes	RIGHT	312.17259999993985	RIGHT	651.111299999684	LEFT	1415.8246000001782	RIGHT	1798.0330000000322	38.8	0.1	Probable_Truth	LEFT	LEFT	1	667.3917000002803	108	2021-01-20 15:33:59.493808
45	Self	S210120B	0.8333333333333334	2	1	2	1	0.7	1150.0000023	1500.000003	2500.000005	2500.000005	Minor	Wrong_doings	31	You have switched off appliances when not in use	C2_56	0.9	Easy	I1_45	6	Mageirocophobia is a fear of deathly disease	0.0555555555555556	Yes	RIGHT	588.8608999998723	RIGHT	344.7486000000026	RIGHT	1054.4345000002977	RIGHT	2365.7130000001416	39.50000000000001	0.7	Probable_Truth	RIGHT	RIGHT	3	2616.6814000002887	109	2021-01-20 15:34:26.692968
13	Self	S210120B	0.5	2	1	2	1	0.6	1350.0000027	1500.000003	1500.000003	1650.0000033	Major	Good_deeds	27	You have illegally stayed in a country	C2_58	0.95	Hard	I1_13	5	It sometimes snows in Singapore	0.0	Yes	RIGHT	474.4795999999951	RIGHT	415.355499999805	LEFT	1582.2259999999917	LEFT	1127.000599999974	40.10000000000001	0.6	Probable_Truth	LEFT	LEFT	2	1182.0542000000387	110	2021-01-20 15:34:50.053448
3	Self	S210120B	0.5	1	2	1	2	0.6	1283.3333359	1216.6666691	1650.0000033	2216.6666711000003	Major	Wrong_doings	1	You have organized a violent protest	C1_46	0.65	Easy	I2_28	22	Saturn's rings are between 30 and 300 feet thick	0.944444444444444	No	RIGHT	390.4394000001048	RIGHT	934.787900000174	LEFT	1034.451400000307	RIGHT	1552.687800000058	40.70000000000001	0.6	Probable_Lie	RIGHT	RIGHT	2	737.7604999996947	111	2021-01-20 15:35:13.644964
33	Self	S210120B	0.8333333333333334	1	2	1	2	0.2	1066.6666688	1283.3333359	1650.0000033	2066.6666708	Minor	Wrong_doings	7	You have watched an M18 movie when you were underage	C2_29	0.8	Easy	I2_59	59	There are 20 bones in the human skull	0.888888888888889	Yes	RIGHT	336.20550000023286	RIGHT	461.58779999996113	LEFT	3439.05309999991	LEFT	1391.4233999998942	40.90000000000001	0.2	Probable_Truth	LEFT	LEFT	1	1632.6880999999958	112	2021-01-20 15:35:39.549708
57	Self	S210120B	0.5	2	1	1	2	0.8	1000.000002	1283.3333359	2500.000005	1783.3333369	Major	Wrong_doings	12	You have said sorry when you were rude	C2_20	0.15	Hard	I2_39	13	Kangaroos live in Africa	0.0	Yes	RIGHT	1963.0795000002763	RIGHT	480.087999999796	RIGHT	1368.419200000062	RIGHT	2647.9418999997506	41.70000000000001	0.8	Probable_Lie	RIGHT	LEFT	6	1585.8212999996797	113	2021-01-20 15:36:06.741515
112	Computer	S210120B	0.6666666666666666	1	2	1	2	0.2	1433.3333362	1500.000003	2500.000005	2350.0000047	Minor	Wrong_doings	30	You have told someone's secret to others	C1_31	0.0	Easy	I1_60	60	Malay is one of the races in Singapore	0.888888888888889	Yes	RIGHT	432.1067000000767	RIGHT	4514.3112999999175	LEFT	1292.833999999857	RIGHT	1527.4169999997866	41.90000000000001	0.2	Probable_Truth	LEFT	LEFT	1	997.2024738711848	114	2021-01-20 15:36:35.861145
40	Self	S210120B	0.8333333333333334	2	1	1	2	0.5	1350.0000027	1150.0000023	1500.000003	2066.6666708	Major	Good_deeds	5	You have thrown your trash into the bin	C1_5	0.0	Hard	I1_1	45	Singapore has four seasons	0.0	No	RIGHT	1188.1923999999344	RIGHT	936.3287000001036	RIGHT	911.6971999997075	LEFT	807.8568999999334	42.40000000000001	0.5	Probable_Truth	LEFT	LEFT	1	915.6995000003008	115	2021-01-20 15:36:59.261888
133	Computer	S210120B	0.8333333333333334	1	2	2	1	0.4	1433.3333362	1216.6666691	2350.0000047	1933.3333372	Major	Wrong_doings	33	You have said thank you when you have received help	C1_35	0.95	Easy	I2_55	44	Cernan was the second last man to walk on the Moon	0.764705882352941	No	RIGHT	296.5518000000884	RIGHT	2354.433799999697	RIGHT	1119.3395000000237	LEFT	2669.525799999974	42.80000000000001	0.4	Probable_Lie	RIGHT	LEFT	5	750.2022261464251	116	2021-01-20 15:37:25.956424
105	Computer	S210120B	0.5	2	1	1	2	0.7	1350.0000027	1066.6666688	1650.0000033	2216.6666711000003	Major	Wrong_doings	20	You have held the elevator doors for others	C2_13	0.0	Easy	I2_41	31	The hyoid bone is the only jointless bone	0.0555555555555556	No	RIGHT	826.006100000086	RIGHT	440.11509999972986	RIGHT	1055.5978000002142	RIGHT	1504.4989999996687	43.500000000000014	0.7	Probable_Truth	LEFT	RIGHT	5	605.1074950086104	117	2021-01-20 15:37:49.236929
137	Computer	S210120B	0.8333333333333334	2	1	1	2	0.6	1066.6666688	1066.6666688	2500.000005	1500.000003	Major	Good_deeds	2	You have gossiped about your best friend	C2_2	0.0	Hard	I2_6	23	Pyramid of Giza is 468 feet tall	0.944444444444444	No	RIGHT	1424.380800000108	RIGHT	297.10879999993267	LEFT	1040.1214000003165	RIGHT	1136.1275999997815	44.100000000000016	0.6	Probable_Truth	RIGHT	LEFT	1	743.9493647597592	118	2021-01-20 15:38:12.589345
110	Computer	S210120B	0.5	2	1	2	1	0.4	1150.0000023	1000.000002	2500.000005	2350.0000047	Major	Good_deeds	51	You have violated a traffic law	C1_27	0.0	Easy	I1_44	25	A dog has four legs	0.0	No	RIGHT	1646.1537000000135	RIGHT	2504.8624999999447	LEFT	792.2103000000789	RIGHT	828.1228999999257	44.500000000000014	0.4	Probable_Truth	LEFT	LEFT	3	725.3248375212312	119	2021-01-20 15:38:38.661139
79	Self	S210120B	0.6666666666666666	2	1	2	1	0.3	1000.000002	1150.0000023	2350.0000047	2066.6666708	Major	Wrong_doings	28	You have cursed at your loved ones	C1_40	0.05	Easy	I1_43	3	It is snowing outside now	0.0	No	RIGHT	555.3371999999399	RIGHT	309.5595999998295	LEFT	2568.7410999998974	LEFT	1511.4229000000705	44.80000000000001	0.3	Probable_Truth	LEFT	LEFT	1	777.6880000001256	120	2021-01-20 15:39:03.524162
109	Computer	S210120B	0.5	2	1	2	1	0.6	1000.000002	1500.000003	2216.6666711000003	2500.000005	Major	Good_deeds	27	You have illegally stayed in a country	C2_58	0.95	Hard	I1_13	5	It sometimes snows in Singapore	0.0	Yes	LEFT	649.0521999999146	LEFT	505.0120000000789	LEFT	984.023900000011	LEFT	1125.9937999998328	44.80000000000001	0.6	Probable_Lie	RIGHT	RIGHT	2	557.1317455049615	121	2021-01-20 15:39:27.125004
27	Self	S210120B	0.6666666666666666	2	1	1	2	0.8	1433.3333362	1066.6666688	1650.0000033	1783.3333369	Major	Wrong_doings	39	You have done something against your values	C2_43	1.0	Easy	I2_27	27	Airbags in cars are filled with sodium azide	0.666666666666667	No	RIGHT	542.4173000001247	RIGHT	321.3079000001926	LEFT	3425.289299999804	RIGHT	1519.6716999998898	45.60000000000001	0.8	Probable_Lie	LEFT	RIGHT	1	1895.1939999997196	122	2021-01-20 15:39:53.340299
134	Computer	S210120B	0.8333333333333334	1	2	2	1	0.3	1283.3333359	1350.0000027	2066.6666708	1650.0000033	Major	Good_deeds	35	You have cheated on a national exam	C2_23	1.0	Hard	I2_53	26	Septicemia is a lung infection condition	0.0	No	LEFT	577.395499999966	LEFT	1829.277100000127	LEFT	928.4722000002148	RIGHT	1272.1529999998893	45.60000000000001	0.3	Probable_Lie	LEFT	RIGHT	1	577.5205012274139	123	2021-01-20 15:40:17.453199
8	Self	S210120B	0.5	2	1	1	2	0.1	1000.000002	1433.3333362	2216.6666711000003	2350.0000047	Minor	Good_deeds	30	You have fabricated facts about yourself	C1_45	0.5	Hard	I2_31	35	February has 30 days	0.944444444444444	No	LEFT	856.8453000002592	LEFT	584.644500000195	LEFT	1186.6061000000627	LEFT	1711.5421000003153	45.60000000000001	0.1	Probable_Lie	LEFT	LEFT	6	970.07960000019	124	2021-01-20 15:40:42.340265
131	Computer	S210120B	0.8333333333333334	1	2	1	2	0.8	1350.0000027	1500.000003	1933.3333372	2066.6666708	Major	Good_deeds	23	You have followed instructions	C1_58	0.45	Easy	I1_17	53	The first Olympic Games was held in the 5th century B.C	1.0	Yes	LEFT	920.5398999997668	LEFT	2161.6895999995904	RIGHT	959.2266999998174	RIGHT	2432.142500000282	45.60000000000001	0.8	Probable_Lie	LEFT	RIGHT	1	666.8683510156499	125	2021-01-20 15:41:08.900899
73	Self	S210120B	0.6666666666666666	2	1	1	2	0.4	1283.3333359	1433.3333362	1933.3333372	2500.000005	Major	Wrong_doings	25	You have taken part in burglary	C1_28	0.85	Hard	I1_42	1	"Statue of Liberty is 151 feet tall"	1.0	Yes	RIGHT	509.5249999999396	RIGHT	321.2279999997918	LEFT	1332.5530999995865	RIGHT	1047.16499999995	46.00000000000001	0.4	Probable_Truth	RIGHT	RIGHT	4	2548.932600000171	126	2021-01-20 15:41:34.381011
86	Self	S210120B	0.8333333333333334	1	2	2	1	0.5	1350.0000027	1350.0000027	2066.6666708	1650.0000033	Minor	Wrong_doings	28	You have let a homeless man into your house	C2_46	0.05	Hard	I2_45	3	Mozambique is the world's poorest country	0.777777777777778	No	RIGHT	312.36930000022767	RIGHT	1142.6312999997208	LEFT	3383.366600000045	RIGHT	2158.769299999676	46.50000000000001	0.5	Probable_Truth	LEFT	LEFT	1	824.1167999999561	127	2021-01-20 15:42:01.196578
54	Self	S210120B	0.5	1	2	2	1	0.2	1216.6666691	1000.000002	1650.0000033	2500.000005	Minor	Good_deeds	16	You have drunk alcohol when you were underage	C2_54	0.85	Hard	I1_54	56	The Franco-Prussian War occurred in the 19th century	0.0	No	RIGHT	480.3677999998399	RIGHT	760.1173000002746	LEFT	1592.4647000001642	LEFT	2438.2354000003943	46.70000000000001	0.2	Probable_Truth	RIGHT	LEFT	3	1196.739399999842	128	2021-01-20 15:42:26.604906
20	Self	S210120B	0.6666666666666666	1	2	2	1	0.4	1500.000003	1066.6666688	1783.3333369	2216.6666711000003	Major	Wrong_doings	8	You have blackmailed others for money	C1_30	0.8	Easy	I1_5	5	Afghan Hound is the first cloned cat	0.0555555555555556	Yes	RIGHT	609.2533000000913	RIGHT	731.0335000001942	LEFT	1248.194699999658	LEFT	3546.49580000023	47.10000000000001	0.4	Probable_Truth	LEFT	LEFT	1	911.6533000001256	129	2021-01-20 15:42:52.788029
69	Self	S210120B	0.6666666666666666	1	2	2	1	0.5	1283.3333359	1350.0000027	2066.6666708	1933.3333372	Minor	Wrong_doings	40	You have assisted in a crime	C1_42	0.2	Easy	I2_4	33	Cleopatra was born in Greece	0.888888888888889	No	RIGHT	368.5789000001023	RIGHT	590.1935000001686	LEFT	1239.2630999997891	RIGHT	2566.0742999998547	47.60000000000001	0.5	Probable_Truth	RIGHT	RIGHT	6	796.9727999998213	130	2021-01-20 15:43:17.556960
37	Self	S210120B	0.8333333333333334	1	2	2	1	0.6	1150.0000023	1150.0000023	1933.3333372	1783.3333369	Major	Wrong_doings	33	You have said thank you when you have received help	C1_35	0.95	Easy	I2_55	44	Cernan was the second last man to walk on the Moon	0.764705882352941	No	RIGHT	448.5127000002649	RIGHT	525.0646999998025	RIGHT	999.036100000012	RIGHT	1836.2065000001169	48.20000000000001	0.6	Probable_Truth	RIGHT	RIGHT	6	1459.1852999997172	131	2021-01-20 15:43:41.412297
90	Self	S210120B	0.8333333333333334	2	1	1	2	0.1	1216.6666691	1150.0000023	1933.3333372	1650.0000033	Minor	Wrong_doings	52	You have been restricting your electricity consumption	C2_3	0.0	Hard	I1_24	36	Last day of the year is 30th December	0.666666666666667	Yes	RIGHT	458.7357999998858	RIGHT	288.11850000010963	RIGHT	2616.7829000000893	LEFT	1560.5997999996362	48.30000000000001	0.1	Probable_Truth	LEFT	LEFT	1	1408.5284999996477	132	2021-01-20 15:44:06.268306
46	Self	S210120B	0.8333333333333334	2	1	2	1	0.1	1000.000002	1000.000002	1783.3333369	1500.000003	Minor	Wrong_doings	53	You have been donating all your excess food to a food bank	C2_26	1.0	Easy	I1_35	21	Brazil is in South America	0.0	Yes	LEFT	650.0369999998838	LEFT	1390.9335000003011	RIGHT	1248.287899999923	RIGHT	982.5378999998976	48.30000000000001	0.1	Probable_Lie	RIGHT	RIGHT	1	1819.489800000156	133	2021-01-20 15:44:30.220449
4	Self	S210120B	0.5	1	2	2	1	0.7	1433.3333362	1150.0000023	2500.000005	1500.000003	Major	Good_deeds	18	You have started an NGO using your savings	C2_11	0.0	Hard	I2_8	52	It is night time now	0.0	No	RIGHT	353.0486999998175	RIGHT	491.9385000002876	RIGHT	1231.592399999954	LEFT	1142.8137000002607	49.000000000000014	0.7	Probable_Truth	RIGHT	RIGHT	4	1457.9991000000518	134	2021-01-20 15:44:54.052878
94	Self	S210120B	0.8333333333333334	2	1	2	1	0.5	1066.6666688	1500.000003	1783.3333369	2216.6666711000003	Minor	Good_deeds	11	You have sold illegal drugs	C1_60	0.0	Hard	I1_36	24	China is a part of Asia	0.0555555555555556	Yes	RIGHT	386.4346000000296	RIGHT	392.3681999999644	LEFT	767.0777999996972	RIGHT	1360.0297000002683	49.500000000000014	0.5	Probable_Lie	LEFT	LEFT	5	959.534800000256	135	2021-01-20 15:45:17.061185
92	Self	S210120B	0.8333333333333334	2	1	2	1	0.3	1500.000003	1283.3333359	2350.0000047	1783.3333369	Major	Wrong_doings	10	You have been convicted in court	C2_42	0.45	Hard	I2_24	11	The hardest bone in human body is the jawbone	0.611111111111111	No	RIGHT	882.9157000000123	RIGHT	647.0900999997866	LEFT	896.1815000002389	RIGHT	1643.6118999999962	49.80000000000001	0.3	Probable_Truth	LEFT	LEFT	1	799.205300000267	136	2021-01-20 15:45:41.420153
24	Self	S210120B	0.6666666666666666	2	1	1	2	0.7	1000.000002	1150.0000023	1933.3333372	1500.000003	Major	Good_deeds	43	You have kidnapped someone	C1_39	0.15	Hard	I1_32	32	Today is a weekday	0.833333333333333	No	RIGHT	490.1094000001649	RIGHT	768.3446999999433	LEFT	895.0575999997454	LEFT	2576.8167000001085	50.500000000000014	0.7	Probable_Truth	RIGHT	RIGHT	6	2428.633600000012	137	2021-01-20 15:46:06.741766
119	Computer	S210120B	0.6666666666666666	1	2	2	1	0.4	1216.6666691	1350.0000027	1783.3333369	1500.000003	Minor	Wrong_doings	27	You have complimented others for good work	C2_38	0.0	Easy	I2_12	50	North Korea is more developed than South Korea	0.0	No	LEFT	424.4629999998324	LEFT	3085.217700000157	RIGHT	1112.4071999997796	RIGHT	1614.4930000000386	50.500000000000014	0.4	Probable_Lie	RIGHT	LEFT	5	771.5563263900718	138	2021-01-20 15:46:32.164091
126	Computer	S210120B	0.6666666666666666	2	1	2	1	0.7	1500.000003	1433.3333362	2216.6666711000003	2066.6666708	Minor	Wrong_doings	13	You have donated blood every 6 months for many years	C1_13	0.1	Hard	I2_18	38	Cheese is an Asian staple	0.0	No	RIGHT	604.0093000001434	RIGHT	336.0538000001725	RIGHT	1943.4065999998893	LEFT	2326.876099999936	51.20000000000002	0.7	Probable_Lie	RIGHT	LEFT	5	810.701274078233	139	2021-01-20 15:46:57.980791
116	Computer	S210120B	0.6666666666666666	1	2	2	1	0.7	1000.000002	1000.000002	1500.000003	2216.6666711000003	Major	Wrong_doings	8	You have blackmailed others for money	C1_30	0.8	Easy	I1_5	5	Afghan Hound is the first cloned cat	0.0555555555555556	Yes	LEFT	784.3997999998464	RIGHT	2513.864399999875	LEFT	792.4070000003667	RIGHT	2105.0138999999035	51.20000000000002	0.7	Probable_Lie	LEFT	LEFT	3	678.2937789888059	140	2021-01-20 15:47:23.147937
30	Self	S210120B	0.6666666666666666	2	1	2	1	0.6	1216.6666691	1283.3333359	2216.6666711000003	2500.000005	Minor	Wrong_doings	13	You have donated blood every 6 months for many years	C1_13	0.1	Hard	I2_18	38	Cheese is an Asian staple	0.0	No	RIGHT	393.6939000000166	RIGHT	608.3236999998007	RIGHT	864.2039000001205	LEFT	1046.9038999999611	51.80000000000002	0.6	Probable_Truth	LEFT	LEFT	2	1018.3432999997422	141	2021-01-20 15:47:46.868160
59	Self	S210120B	0.5	2	1	1	2	0.5	1216.6666691	1000.000002	1783.3333369	1933.3333372	Minor	Wrong_doings	20	You have coveted things that belong to others	C2_37	0.55	Hard	I2_48	40	Fibers in oranges can be used to make fabric	0.722222222222222	No	RIGHT	451.7416999997295	RIGHT	520.3345999998419	LEFT	2851.8788000001223	RIGHT	1894.7329000002355	52.30000000000002	0.5	Probable_Truth	LEFT	RIGHT	4	1218.9610000004905	142	2021-01-20 15:48:12.316104
102	Computer	S210120B	0.5	1	2	2	1	0.8	1500.000003	1066.6666688	2350.0000047	1933.3333372	Minor	Wrong_doings	50	You have confessed to your mistake	C1_1	0.0	Easy	I1_31	28	Singapore is in Africa	0.0	Yes	RIGHT	888.5629999995217	RIGHT	712.6190999997561	RIGHT	1847.5540999997972	LEFT	1726.6389000005802	53.100000000000016	0.8	Probable_Lie	RIGHT	RIGHT	2	511.8638853254882	143	2021-01-20 15:48:37.428069
