index	Trial_Type	Participant_ID	Trial_Probability	Question_Position_Prediction_Correct	Question_Position_Prediction_Agent	Question_Position_Comparison_Self	Question_Position_Comparison_Irrelevant	Trial_Stake	Trial_Stake_Jitter	Trial_Type_Jitter	Trial_Result_Jitter	Balance_Update_Jitter	Question_Comparison_Condition	Question_Comparison_Type	Question_Comparison_Question	Question_Comparison_Label	Question_Comparison_Item	Question_Comparison_Proportion_Yes	Question_Factual_Condition	Question_Factual_Item	Question_Factual_Question	Question_Factual_Label	Question_Factual_Proportion_DontKnow	Question_Factual_Type	Answer_Prediction_Correct	Answer_Prediction_Correct_RT	Answer_Prediction_Agent	Answer_Prediction_Agent_RT	Answer_Self	Answer_Self_RT	Answer_Irrelevant	Answer_Irrelevant_RT	Trial_Balance	Trial_Balance_Effect	Trial_Condition	Trial_ProbableSide	Prediction_Choice	Prediction_Result	Prediction_RT	Trial_Order	Trial_Datetime
128	Computer	S210215	0.8333333333333334	1	2	1	2	0.2	1433.3333362	1000.000002	2066.6666708	2350.0000047	Minor	Wrong_doings	34	You have been sued	C2_9	1.0	Hard	I1_11	8	A square has 3 corners	1.0	No	RIGHT	841.1081999997805	LEFT	600.5107999999382	LEFT	1293.5241999998652	LEFT	1048.315300000013	10.0	0.2	Probable_Truth	RIGHT	RIGHT	3	685.0660383359893	0	2021-02-15 14:20:15.499858
84	Self	S210215	0.8333333333333334	1	2	2	1	0.6	1500.000003	1500.000003	2500.000005	2350.0000047	Minor	Wrong_doings	27	You have organized a violent protest	C1_29	1.0	Easy	I2_21	58	The first Grammy awards was held in 1959	0.0	No	RIGHT	477.75849999993625	RIGHT	335.3761000000759	LEFT	1214.8042999999689	LEFT	1485.2604000000156	10.6	0.6	Probable_Truth	RIGHT	RIGHT	3	492.8588000000218	1	2021-02-15 14:20:39.932441
23	Self	S210215	0.6666666666666666	1	2	2	1	0.7	1283.3333359	1150.0000023	2066.6666708	2066.6666708	Major	Wrong_doings	14	You have assisted in a crime	C1_47	0.95	Hard	I2_12	29	Christmas Day is in March	0.777777777777778	No	RIGHT	295.0760999999602	RIGHT	295.6848000001173	LEFT	832.6225999999224	LEFT	1216.5030999999544	11.3	0.7	Probable_Truth	LEFT	LEFT	1	772.6588999998967	2	2021-02-15 14:21:02.483338
121	Computer	S210215	0.6666666666666666	2	1	1	2	0.6	1216.6666691	1350.0000027	1500.000003	2350.0000047	Minor	Wrong_doings	18	You have said thank you when you have received help	C1_44	0.05	Hard	I2_8	45	Feijoa is a type of grape	0.764705882352941	No	LEFT	381.7546000000221	LEFT	1026.7705999999637	RIGHT	1495.455100000072	LEFT	1886.7446000001564	11.3	0.6	Probable_Lie	LEFT	LEFT	6	916.744092903284	3	2021-02-15 14:21:27.188243
97	Computer	S210215	0.5	1	2	1	2	0.2	1433.3333362	1350.0000027	1650.0000033	1933.3333372	Major	Wrong_doings	60	You have volunteered for a disaster-related humanitarian mission	C1_58	0.7	Easy	I2_46	9	Bears have the biggest eyes among mammals	0.833333333333333	No	RIGHT	421.88800000008086	LEFT	367.9122000000916	RIGHT	2077.076600000055	LEFT	2486.340600000176	11.3	0.2	Probable_Truth	RIGHT	RIGHT	6	779.6302649886877	4	2021-02-15 14:21:52.267506
78	Self	S210215	0.6666666666666666	2	1	2	1	0.8	1283.3333359	1066.6666688	2216.6666711000003	1650.0000033	Minor	Good_deeds	7	You have given up your seat in the MRT	C1_15	0.05	Easy	I2_48	25	Fibers in oranges can be used to make fabric	0.0	No	RIGHT	249.1367000000082	RIGHT	376.655000000028	RIGHT	918.9146000001074	LEFT	2582.1315999999115	12.1	0.8	Probable_Truth	RIGHT	RIGHT	4	812.4066000000312	5	2021-02-15 14:22:15.996686
127	Computer	S210215	0.6666666666666666	2	1	2	1	0.7	1066.6666688	1216.6666691	1783.3333369	1783.3333369	Minor	Good_deeds	1	You have provided shelter for stray animals	C1_27	0.95	Hard	I2_45	6	Summer is hotter than winter	0.0	No	RIGHT	511.9173000000501	RIGHT	492.9208999999446	RIGHT	1928.1173000001672	RIGHT	1489.789700000074	12.8	0.7	Probable_Truth	RIGHT	LEFT	2	912.3520250588448	6	2021-02-15 14:22:39.756969
5	Self	S210215	0.5	1	2	2	1	0.1	1350.0000027	1066.6666688	2216.6666711000003	2216.6666711000003	Major	Wrong_doings	1	You have used heroin	C1_1	1.0	Easy	I1_35	59	The sun rises at night	0.0	No	RIGHT	374.8211000001902	RIGHT	254.13069999990512	LEFT	992.1803999998248	LEFT	1263.2871999999224	12.9	0.1	Probable_Truth	LEFT	RIGHT	5	1214.3358999999236	7	2021-02-15 14:23:03.283476
17	Self	S210215	0.6666666666666666	1	2	1	2	0.6	1150.0000023	1283.3333359	1650.0000033	1783.3333369	Minor	Wrong_doings	48	You have lost everything just to help others	C2_48	0.65	Hard	I1_45	18	The Earth turns the closest to the sun in May	0.0	Yes	RIGHT	277.93880000012905	RIGHT	289.1075000000001	LEFT	2386.3208000000213	LEFT	2967.5993999999264	13.499999999999998	0.6	Probable_Truth	RIGHT	RIGHT	6	785.6211000000712	8	2021-02-15 14:23:28.427995
59	Self	S210215	0.5	2	1	1	2	0.7	1150.0000023	1500.000003	1783.3333369	1933.3333372	Minor	Good_deeds	40	You have let a homeless man into your house	C1_6	1.0	Hard	I1_60	13	There are 6 million animal species on Earth	0.0	Yes	LEFT	225.01919999990605	RIGHT	1904.4443999998748	LEFT	1326.510800000051	RIGHT	927.224600000045	12.8	0.7	Probable_Lie	RIGHT	RIGHT	2	885.4343999998946	9	2021-02-15 14:23:52.635998
142	Computer	S210215	0.8333333333333334	2	1	2	1	0.7	1000.000002	1216.6666691	2066.6666708	1500.000003	Major	Wrong_doings	24	You have helped a friend in need	C1_59	0.0	Hard	I1_58	28	North Korea is more developed than South Korea	0.777777777777778	Yes	RIGHT	208.20130000015524	RIGHT	363.0514999999832	RIGHT	895.5584000000272	LEFT	1430.299200000036	13.499999999999998	0.7	Probable_Truth	RIGHT	RIGHT	6	988.2875330672108	10	2021-02-15 14:24:14.867493
94	Self	S210215	0.8333333333333334	2	1	2	1	0.3	1350.0000027	1216.6666691	2350.0000047	2500.000005	Major	Good_deeds	40	You have queued to enter the MRT train	C2_10	0.25	Easy	I1_38	41	Arabi is the oldest surviving breed of horse	0.944444444444444	Yes	RIGHT	360.49709999997503	RIGHT	403.5639999999603	RIGHT	1686.7452000001322	LEFT	1596.973700000035	13.8	0.3	Probable_Lie	LEFT	LEFT	3	815.104200000178	11	2021-02-15 14:24:39.715864
119	Computer	S210215	0.6666666666666666	1	2	2	1	0.5	1283.3333359	1433.3333362	1933.3333372	2500.000005	Major	Wrong_doings	14	You have assisted in a crime	C1_47	0.95	Hard	I2_12	29	Christmas Day is in March	0.777777777777778	No	LEFT	602.4150000000645	LEFT	288.5614000001624	LEFT	1096.824100000049	LEFT	1014.4940000000132	13.8	0.5	Probable_Lie	RIGHT	RIGHT	2	810.9007970199488	12	2021-02-15 14:25:03.252116
22	Self	S210215	0.6666666666666666	1	2	2	1	0.4	1433.3333362	1000.000002	1933.3333372	1933.3333372	Major	Good_deeds	47	You have deceived a loved one	C2_3	0.0	Easy	I1_29	45	Brazil is in South America	1.0	Yes	RIGHT	292.152200000146	RIGHT	153.44389999995656	LEFT	1616.3547999999537	LEFT	2076.1984999999186	14.2	0.4	Probable_Truth	RIGHT	RIGHT	5	601.864599999999	13	2021-02-15 14:25:26.859653
74	Self	S210215	0.6666666666666666	2	1	1	2	0.2	1433.3333362	1000.000002	2066.6666708	2066.6666708	Minor	Good_deeds	42	You have cursed at others	C1_35	1.0	Hard	I2_49	26	The Franco-Prussian War occurred in the 19th century	0.888888888888889	Yes	RIGHT	224.68419999995604	RIGHT	351.29109999979846	LEFT	1097.3862999999255	LEFT	1199.783000000025	14.4	0.2	Probable_Truth	RIGHT	RIGHT	5	744.7240999999849	14	2021-02-15 14:25:49.612250
44	Self	S210215	0.8333333333333334	2	1	2	1	0.3	1283.3333359	1433.3333362	2500.000005	1650.0000033	Major	Good_deeds	3	You have engaged in arson	C1_3	0.95	Hard	I2_50	38	Singapore is in Africa	0.611111111111111	Yes	LEFT	728.8547999999082	LEFT	291.272200000094	LEFT	1311.4322999999786	LEFT	816.4844000000357	14.4	0.3	Probable_Lie	RIGHT	RIGHT	1	850.2810999998474	15	2021-02-15 14:26:13.051965
114	Computer	S210215	0.6666666666666666	1	2	1	2	0.4	1000.000002	1350.0000027	1500.000003	1650.0000033	Major	Good_deeds	30	You have gossiped about your best friend	C1_48	0.55	Easy	I2_18	37	Dutch is the 6th Europe's most widely spoken language	0.0	No	LEFT	377.190599999949	LEFT	233.2954000000882	LEFT	1455.6133000000957	LEFT	1559.6175999999105	14.4	0.4	Probable_Truth	LEFT	RIGHT	4	872.7755053482157	16	2021-02-15 14:26:35.612230
47	Self	S210215	0.8333333333333334	2	1	2	1	0.6	1000.000002	1500.000003	2216.6666711000003	2216.6666711000003	Minor	Good_deeds	58	You have stopped using plastics completely	C2_24	0.0	Easy	I2_38	26	Statute of Liberty is in New York	0.0	No	RIGHT	240.4077999999572	RIGHT	365.89390000017374	LEFT	1552.0438000000922	RIGHT	1663.692399999945	14.999999999999998	0.6	Probable_Lie	RIGHT	RIGHT	1	691.1107000000811	17	2021-02-15 14:26:59.635374
130	Computer	S210215	0.8333333333333334	1	2	1	2	0.7	1066.6666688	1350.0000027	1650.0000033	1650.0000033	Minor	Good_deeds	9	You have started a movement to support a cause	C2_45	0.0	Easy	I2_23	11	There are 6000 spoken languages in the World	0.0	Yes	LEFT	358.7206999998216	LEFT	272.9285999998865	LEFT	2783.5059999999885	RIGHT	983.4694000001036	14.999999999999998	0.7	Probable_Lie	LEFT	RIGHT	1	749.659331488676	18	2021-02-15 14:27:23.067328
77	Self	S210215	0.6666666666666666	2	1	2	1	0.1	1350.0000027	1216.6666691	1650.0000033	2216.6666711000003	Minor	Good_deeds	25	You have given way to the handicapped	C1_7	0.95	Hard	I1_26	22	Malay is one of the races in Singapore	0.0	No	RIGHT	264.3212999998923	RIGHT	263.6971000001722	RIGHT	1128.175199999987	RIGHT	1441.5796999999202	15.099999999999998	0.1	Probable_Truth	RIGHT	RIGHT	3	561.0469000000649	19	2021-02-15 14:27:45.731718
9	Self	S210215	0.5	2	1	1	2	0.1	1283.3333359	1433.3333362	2216.6666711000003	1783.3333369	Minor	Good_deeds	31	You have complimented others for good work	C1_46	0.2	Easy	I1_52	56	Acoustic Kitty refers to cat with implants	0.0	No	RIGHT	393.1657000000541	RIGHT	423.2273000000077	RIGHT	1458.6259000000157	LEFT	1376.0820999998489	15.199999999999998	0.1	Probable_Truth	RIGHT	LEFT	1	1460.4763000002094	20	2021-02-15 14:28:10.131010
111	Computer	S210215	0.5	2	1	2	1	0.7	1283.3333359	1283.3333359	2350.0000047	1783.3333369	Major	Good_deeds	46	You have extorted money from anyone	C2_26	0.0	Easy	I2_27	60	A caterpillar has more muscle than a human	0.0	No	LEFT	318.40600000009545	LEFT	438.6944999998832	LEFT	855.9024000001045	LEFT	1737.1279999999842	15.199999999999998	0.7	Probable_Lie	RIGHT	RIGHT	1	862.8396466778119	21	2021-02-15 14:28:33.618674
26	Self	S210215	0.6666666666666666	2	1	1	2	0.3	1433.3333362	1150.0000023	2500.000005	2500.000005	Minor	Good_deeds	37	You have participated in a scamming business	C1_9	0.0	Hard	I1_6	44	It is 20th Century now	0.777777777777778	Yes	LEFT	816.5718000000197	LEFT	733.0994999999803	LEFT	1342.4400999999762	LEFT	1487.6329999999598	15.199999999999998	0.3	Probable_Lie	RIGHT	RIGHT	2	704.8107000000527	22	2021-02-15 14:28:58.858536
16	Self	S210215	0.6666666666666666	1	2	1	2	0.2	1500.000003	1500.000003	1783.3333369	1650.0000033	Minor	Wrong_doings	3	You have blackmailed others for money	C2_59	0.0	Hard	I2_51	51	Mexico's National Day is September 16	0.0	No	RIGHT	551.3516000000891	RIGHT	280.1366999999573	LEFT	1101.4346000001751	LEFT	1383.248999999978	15.399999999999997	0.2	Probable_Truth	RIGHT	RIGHT	4	710.5607000000873	23	2021-02-15 14:29:21.899530
20	Self	S210215	0.6666666666666666	1	2	2	1	0.3	1000.000002	1216.6666691	2500.000005	2500.000005	Minor	Good_deeds	48	You have sign up to sponsor a needy child	C1_14	1.0	Hard	I1_37	15	Nanyang Technological University is in Australia	0.0555555555555556	Yes	RIGHT	357.3395000000801	RIGHT	278.6874999999327	RIGHT	1479.6595000000252	LEFT	1643.8711999999214	15.699999999999998	0.3	Probable_Truth	LEFT	LEFT	2	727.348099999972	24	2021-02-15 14:29:46.179195
14	Self	S210215	0.5	2	1	2	1	0.8	1216.6666691	1066.6666688	2500.000005	1933.3333372	Major	Good_deeds	43	You have donated a pay cheque to charity	C2_43	0.05	Hard	I2_30	31	There are 7 days in a week	0.0	No	RIGHT	191.89670000014303	RIGHT	437.91160000000673	LEFT	1502.9018999998698	RIGHT	998.1815999999526	16.499999999999996	0.8	Probable_Truth	LEFT	RIGHT	6	923.0870999999752	25	2021-02-15 14:30:09.523189
65	Self	S210215	0.6666666666666666	1	2	1	2	0.1	1000.000002	1350.0000027	1500.000003	1500.000003	Major	Good_deeds	19	You have shown your appreciation to your teachers	C1_17	0.05	Hard	I1_40	6	The Seine river is 50 feet above sea level	0.0	Yes	LEFT	908.983600000056	RIGHT	400.5508000000191	RIGHT	1501.4247000001433	LEFT	1245.6026999998355	16.399999999999995	0.1	Probable_Lie	LEFT	LEFT	5	873.0247999999392	26	2021-02-15 14:30:32.379538
19	Self	S210215	0.6666666666666666	1	2	1	2	0.1	1216.6666691	1433.3333362	2350.0000047	1500.000003	Minor	Wrong_doings	59	You have said sorry when you were rude	C1_30	0.0	Easy	I2_2	2	Fishes can swim in water	0.666666666666667	No	RIGHT	939.8580000001856	RIGHT	1105.9270000000652	RIGHT	1332.9515999998875	RIGHT	976.1823999999706	16.499999999999996	0.1	Probable_Truth	LEFT	LEFT	1	732.9784999999447	27	2021-02-15 14:30:56.538066
75	Self	S210215	0.6666666666666666	2	1	1	2	0.4	1066.6666688	1433.3333362	1933.3333372	1933.3333372	Major	Wrong_doings	15	You have cheated on a national exam	C2_42	0.85	Easy	I2_22	49	Marijuana is legal in Singapore	0.0555555555555556	Yes	LEFT	696.5920999998616	RIGHT	2149.35800000012	LEFT	1293.116800000007	LEFT	2328.910199999882	16.099999999999998	0.4	Probable_Lie	LEFT	LEFT	5	756.934499999943	28	2021-02-15 14:31:22.699224
138	Computer	S210215	0.8333333333333334	2	1	1	2	0.1	1283.3333359	1066.6666688	1500.000003	2216.6666711000003	Minor	Good_deeds	53	You have attended all lectures as a student	C2_58	1.0	Easy	I1_44	44	There is typically 0.6 grams of mercury in glass thermometer	0.0	No	LEFT	296.4868999999908	LEFT	648.9733999999316	RIGHT	1305.548300000055	LEFT	1743.7088000001495	16.099999999999998	0.1	Probable_Lie	LEFT	RIGHT	1	872.9790993825013	29	2021-02-15 14:31:46.195767
143	Computer	S210215	0.8333333333333334	2	1	2	1	0.5	1066.6666688	1433.3333362	2350.0000047	1783.3333369	Minor	Good_deeds	58	You have stopped using plastics completely	C2_24	0.0	Easy	I2_38	26	Statute of Liberty is in New York	0.0	No	LEFT	225.0369999999293	LEFT	844.6839999999156	LEFT	1104.323000000022	RIGHT	1313.9880999999605	16.099999999999998	0.5	Probable_Lie	LEFT	RIGHT	1	936.9934704623714	30	2021-02-15 14:32:09.819509
102	Computer	S210215	0.5	1	2	2	1	0.5	1000.000002	1066.6666688	2066.6666708	1500.000003	Minor	Good_deeds	17	You have coveted things that belong to others	C2_20	0.55	Easy	I1_1	55	Singapore is a country	0.0	No	LEFT	345.00200000002224	LEFT	256.5555000001041	LEFT	1174.6176999999989	RIGHT	685.6047999999646	16.099999999999998	0.5	Probable_Lie	RIGHT	RIGHT	2	873.8001688108506	31	2021-02-15 14:32:31.354607
6	Self	S210215	0.5	1	2	2	1	0.7	1000.000002	1433.3333362	1933.3333372	1500.000003	Minor	Good_deeds	17	You have coveted things that belong to others	C2_20	0.55	Easy	I1_1	55	Singapore is a country	0.0	No	RIGHT	353.959100000111	RIGHT	96.09000000000378	LEFT	886.6424000000279	RIGHT	632.3205000001053	16.799999999999997	0.7	Probable_Truth	RIGHT	RIGHT	5	822.3704000001817	32	2021-02-15 14:32:52.587053
15	Self	S210215	0.5	2	1	2	1	0.4	1500.000003	1283.3333359	2066.6666708	1650.0000033	Major	Good_deeds	46	You have extorted money from anyone	C2_26	0.0	Easy	I2_27	60	A caterpillar has more muscle than a human	0.0	No	RIGHT	80.01129999979639	RIGHT	428.1818000001749	LEFT	688.0450999999539	LEFT	1504.3413999999302	17.199999999999996	0.4	Probable_Truth	RIGHT	RIGHT	4	786.173700000063	33	2021-02-15 14:33:15.146860
4	Self	S210215	0.5	1	2	2	1	0.5	1216.6666691	1500.000003	2350.0000047	1650.0000033	Minor	Wrong_doings	20	You have claimed doing things that you never did	C1_20	0.0	Hard	I1_36	36	Today is Sunday	0.666666666666667	No	LEFT	394.023400000151	RIGHT	993.2685999999647	LEFT	2495.592600000009	LEFT	1502.4842000000262	16.699999999999996	0.5	Probable_Lie	LEFT	LEFT	5	915.9581999999772	34	2021-02-15 14:33:40.739871
81	Self	S210215	0.8333333333333334	1	2	1	2	0.2	1150.0000023	1000.000002	2066.6666708	2216.6666711000003	Major	Good_deeds	11	You have rescued others from a catastrophe	C1_11	0.0	Easy	I2_54	33	Vegetarians can eat vegetable products	0.944444444444444	No	RIGHT	421.3002999999844	RIGHT	231.33099999995463	LEFT	1410.1241000003029	RIGHT	1325.6430000001274	16.899999999999995	0.2	Probable_Truth	RIGHT	RIGHT	6	685.0088000001051	35	2021-02-15 14:34:03.819070
7	Self	S210215	0.5	1	2	2	1	0.3	1500.000003	1283.3333359	2500.000005	2350.0000047	Minor	Wrong_doings	47	You have followed instructions	C2_47	0.05	Hard	I1_9	46	Septicemia is a lung infection condition	0.0	Yes	RIGHT	357.26500000009764	RIGHT	232.1259000000282	RIGHT	839.4382999999834	LEFT	1236.343300000044	17.199999999999996	0.3	Probable_Truth	LEFT	RIGHT	5	1226.657400000022	36	2021-02-15 14:34:27.914374
29	Self	S210215	0.6666666666666666	2	1	2	1	0.2	1150.0000023	1216.6666691	1783.3333369	1933.3333372	Major	Wrong_doings	9	You have lied to your parents	C1_42	0.2	Easy	I1_53	8	Beer is an alcoholic drink	0.0	Yes	RIGHT	209.3844999999419	RIGHT	137.63539999990826	RIGHT	1185.4278000000704	RIGHT	948.8983999999618	17.399999999999995	0.2	Probable_Truth	LEFT	LEFT	1	778.7128999998458	37	2021-02-15 14:34:49.828291
126	Computer	S210215	0.6666666666666666	2	1	2	1	0.4	1350.0000027	1150.0000023	2216.6666711000003	1650.0000033	Major	Wrong_doings	33	You have held the door open for a stranger	C2_33	1.0	Easy	I1_12	17	Saturn's rings are between 30 and 300 feet thick	0.777777777777778	No	LEFT	215.01709999984087	LEFT	1235.9730000002855	RIGHT	888.1700000001729	LEFT	1077.011599999878	17.399999999999995	0.4	Probable_Truth	LEFT	RIGHT	4	599.7576724890857	38	2021-02-15 14:35:12.787227
3	Self	S210215	0.5	1	2	1	2	0.4	1283.3333359	1150.0000023	1650.0000033	1933.3333372	Minor	Good_deeds	34	You have helped your parents when asked to	C2_34	0.95	Easy	I2_40	1	China is a part of Asia	0.944444444444444	Yes	RIGHT	599.0103000003728	RIGHT	295.71249999980864	RIGHT	2549.6495999996114	LEFT	896.7297000003782	17.799999999999994	0.4	Probable_Truth	LEFT	LEFT	1	1042.4689000001308	39	2021-02-15 14:35:36.763823
31	Self	S210215	0.6666666666666666	2	1	2	1	0.1	1500.000003	1000.000002	1500.000003	2216.6666711000003	Minor	Good_deeds	1	You have provided shelter for stray animals	C1_27	0.95	Hard	I2_45	6	Summer is hotter than winter	0.0	No	RIGHT	112.90800000006128	RIGHT	612.6177999999527	RIGHT	1384.588100000201	RIGHT	2217.272700000194	17.899999999999995	0.1	Probable_Truth	LEFT	LEFT	2	929.2498999998317	40	2021-02-15 14:36:00.810417
86	Self	S210215	0.8333333333333334	1	2	2	1	0.4	1433.3333362	1350.0000027	1650.0000033	2066.6666708	Minor	Wrong_doings	7	You have sold illegal drugs	C2_27	0.65	Hard	I2_58	21	"Statue of Liberty is 151 feet tall"	0.722222222222222	Yes	RIGHT	336.3843000001907	RIGHT	112.76060000000145	LEFT	785.1325000001452	LEFT	1421.6502000003857	18.299999999999997	0.4	Probable_Truth	RIGHT	RIGHT	6	550.4501000000346	41	2021-02-15 14:36:23.091751
35	Self	S210215	0.8333333333333334	1	2	1	2	0.8	1000.000002	1283.3333359	2500.000005	2066.6666708	Major	Wrong_doings	28	You have intentionally let others cut in line	C1_34	0.0	Easy	I2_35	35	Carnivore refers to meat-eater	0.0	No	RIGHT	158.10140000030515	RIGHT	177.3299000001316	LEFT	3529.497099999844	RIGHT	1895.499100000052	19.099999999999994	0.8	Probable_Lie	RIGHT	RIGHT	1	605.8333999999377	42	2021-02-15 14:36:48.875880
51	Self	S210215	0.5	1	2	1	2	0.8	1500.000003	1500.000003	1933.3333372	2500.000005	Major	Wrong_doings	23	You have donated blood every 6 months for many years	C2_31	0.0	Easy	I1_54	33	The current century is 21st	0.888888888888889	No	RIGHT	309.02430000014647	RIGHT	112.43430000013176	RIGHT	1798.6101999999846	RIGHT	1489.5252000001165	19.899999999999995	0.8	Probable_Lie	RIGHT	RIGHT	1	968.17319999991	43	2021-02-15 14:37:13.555324
139	Computer	S210215	0.8333333333333334	2	1	1	2	0.6	1350.0000027	1283.3333359	2500.000005	2066.6666708	Major	Wrong_doings	8	You have bought cigarettes for a minor	C2_53	1.0	Easy	I1_4	58	South East Asia is currently free from polio	0.833333333333333	No	RIGHT	272.34409999982745	LEFT	828.7154999998165	LEFT	1120.6293000000187	LEFT	1888.8001999998776	19.899999999999995	0.6	Probable_Truth	RIGHT	RIGHT	4	845.3285052370901	44	2021-02-15 14:37:38.283284
66	Self	S210215	0.6666666666666666	1	2	1	2	0.4	1433.3333362	1433.3333362	2350.0000047	2216.6666711000003	Minor	Wrong_doings	4	You have volunteered every week for many years	C2_39	0.9	Easy	I2_24	14	Pyramid of Giza is 468 feet tall	0.833333333333333	Yes	RIGHT	899.3163000000095	RIGHT	88.88279999973747	RIGHT	2144.5236999998087	LEFT	944.6420999997828	20.299999999999997	0.4	Probable_Lie	LEFT	LEFT	3	1245.2994000000217	45	2021-02-15 14:38:03.610479
105	Computer	S210215	0.5	2	1	1	2	0.2	1066.6666688	1066.6666688	1933.3333372	2066.6666708	Minor	Good_deeds	31	You have complimented others for good work	C1_46	0.2	Easy	I1_52	56	Acoustic Kitty refers to cat with implants	0.0	No	LEFT	103.44650000024558	LEFT	660.1771999999073	RIGHT	1415.832399999999	LEFT	919.0497999998116	20.299999999999997	0.2	Probable_Lie	RIGHT	LEFT	6	532.4300466026331	46	2021-02-15 14:38:25.947129
21	Self	S210215	0.6666666666666666	1	2	2	1	0.8	1066.6666688	1066.6666688	1500.000003	2216.6666711000003	Major	Good_deeds	2	You have returned your trays in food courts	C2_2	0.05	Easy	I1_15	12	Hot chocolate was created by the Mayan culture	0.888888888888889	Yes	RIGHT	740.9699999998338	RIGHT	110.20630000029996	RIGHT	1006.8647000002784	LEFT	1625.014199999896	21.099999999999994	0.8	Probable_Lie	LEFT	LEFT	3	502.9758999999103	47	2021-02-15 14:38:48.362411
79	Self	S210215	0.6666666666666666	2	1	2	1	0.7	1150.0000023	1500.000003	1500.000003	2500.000005	Minor	Good_deeds	6	You have eaten something in the MRT train	C2_6	0.0	Hard	I1_42	42	There are 9 rings in the Olympic flag	0.666666666666667	No	RIGHT	224.65599999986807	RIGHT	267.8281999997125	LEFT	1432.2237999999743	LEFT	1349.3195000000924	21.799999999999997	0.7	Probable_Truth	LEFT	LEFT	2	756.0606000001826	48	2021-02-15 14:39:36.875235
8	Self	S210215	0.5	2	1	1	2	0.7	1000.000002	1350.0000027	1650.0000033	2066.6666708	Minor	Wrong_doings	23	You have given directions to a lost tourist	C1_31	0.95	Easy	I1_31	27	Airbags in cars are filled with sodium azide	0.833333333333333	Yes	RIGHT	175.9895999998662	RIGHT	277.13669999957347	RIGHT	1455.269899999621	LEFT	1096.3222999998834	22.499999999999996	0.7	Probable_Truth	RIGHT	RIGHT	6	1363.0732999999964	49	2021-02-15 14:39:59.883633
60	Self	S210215	0.5	2	1	2	1	0.4	1000.000002	1433.3333362	1650.0000033	2350.0000047	Minor	Wrong_doings	33	You have held the elevator doors for others	C1_33	0.8	Hard	I2_11	25	Red is a color	0.0	No	RIGHT	272.14649999996254	RIGHT	606.7213999999694	RIGHT	830.8624999999665	RIGHT	1148.6125999999786	22.89999999999999	0.4	Probable_Truth	RIGHT	LEFT	1	1231.9503999997323	50	2021-02-15 14:40:22.979817
43	Self	S210215	0.8333333333333334	2	1	1	2	0.5	1216.6666691	1000.000002	1500.000003	1933.3333372	Major	Wrong_doings	8	You have bought cigarettes for a minor	C2_53	1.0	Easy	I1_4	58	South East Asia is currently free from polio	0.833333333333333	No	LEFT	897.1556999999848	LEFT	733.4160000000338	LEFT	1110.0713999999243	LEFT	1183.738700000049	22.89999999999999	0.5	Probable_Lie	RIGHT	RIGHT	1	606.3742999999704	51	2021-02-15 14:40:45.730519
63	Self	S210215	0.5	2	1	2	1	0.2	1283.3333359	1283.3333359	2066.6666708	1500.000003	Major	Good_deeds	6	You have been arrested	C2_29	0.0	Easy	I1_43	36	It is night time now	0.888888888888889	No	RIGHT	393.2623000000604	RIGHT	341.7691999998169	LEFT	664.4808999999441	LEFT	1174.283600000308	23.09999999999999	0.2	Probable_Truth	LEFT	RIGHT	5	1006.7906999997832	52	2021-02-15 14:41:08.018391
83	Self	S210215	0.8333333333333334	1	2	1	2	0.5	1283.3333359	1433.3333362	1933.3333372	2500.000005	Minor	Good_deeds	57	You have stolen something	C2_57	0.8	Hard	I1_24	24	The Earth is round	0.888888888888889	Yes	RIGHT	364.5492000000559	RIGHT	257.2525999999016	LEFT	783.502000000226	RIGHT	1224.79949999979	23.59999999999999	0.5	Probable_Truth	LEFT	LEFT	1	789.7819999998319	53	2021-02-15 14:41:31.154260
93	Self	S210215	0.8333333333333334	2	1	2	1	0.2	1433.3333362	1500.000003	1783.3333369	2216.6666711000003	Major	Wrong_doings	57	You have engaged in money laundering	C2_28	0.0	Hard	I2_5	28	Singapore is a poor country	0.0555555555555556	No	LEFT	287.2747999999774	RIGHT	689.2927999997482	LEFT	864.0401000002385	LEFT	1234.0237999997044	23.39999999999999	0.2	Probable_Lie	RIGHT	RIGHT	1	1144.4308000000092	54	2021-02-15 14:41:54.882709
40	Self	S210215	0.8333333333333334	2	1	1	2	0.2	1350.0000027	1150.0000023	1933.3333372	2350.0000047	Minor	Wrong_doings	49	You have watched a pirated movie	C2_8	0.95	Hard	I2_26	50	A dog has four legs	0.0	Yes	LEFT	217.1118999999635	RIGHT	908.4108999995806	LEFT	917.2770000000128	RIGHT	793.3850999997958	23.199999999999992	0.2	Probable_Lie	RIGHT	RIGHT	1	740.6068000000232	55	2021-02-15 14:42:17.810784
136	Computer	S210215	0.8333333333333334	2	1	1	2	0.2	1216.6666691	1500.000003	1783.3333369	1650.0000033	Minor	Wrong_doings	49	You have watched a pirated movie	C2_8	0.95	Hard	I2_26	50	A dog has four legs	0.0	Yes	RIGHT	256.5506999999343	LEFT	673.5439999997652	LEFT	1175.9415999999874	RIGHT	832.4905999998009	23.199999999999992	0.2	Probable_Truth	RIGHT	RIGHT	5	751.1667197030083	56	2021-02-15 14:42:40.218889
137	Computer	S210215	0.8333333333333334	2	1	1	2	0.3	1500.000003	1350.0000027	1933.3333372	1933.3333372	Major	Good_deeds	59	You have pretended to be busy to avoid a social situation	C1_24	0.2	Hard	I1_28	42	The hardest bone in human body is the jawbone	0.0555555555555556	No	LEFT	96.911000000091	LEFT	389.4867000003615	LEFT	1748.9144000001031	LEFT	1935.961099999986	23.199999999999992	0.3	Probable_Lie	LEFT	RIGHT	1	586.0050378598216	57	2021-02-15 14:43:04.258160
34	Self	S210215	0.8333333333333334	1	2	1	2	0.3	1150.0000023	1500.000003	1933.3333372	2350.0000047	Minor	Good_deeds	9	You have started a movement to support a cause	C2_45	0.0	Easy	I2_23	11	There are 6000 spoken languages in the World	0.0	Yes	RIGHT	1072.0980000000964	RIGHT	55.84589999989476	RIGHT	1852.6255000001584	LEFT	959.1543999999884	23.499999999999996	0.3	Probable_Truth	RIGHT	RIGHT	6	782.7273999996578	58	2021-02-15 14:43:28.490788
80	Self	S210215	0.8333333333333334	1	2	1	2	0.7	1350.0000027	1216.6666691	2350.0000047	1650.0000033	Major	Good_deeds	29	You have been donating all your excess food to a food bank	C2_7	0.05	Easy	I1_33	54	Mageirocophobia is a fear of deathly disease	0.944444444444444	No	RIGHT	1244.1419000001588	RIGHT	103.63569999981335	LEFT	2798.41260000012	RIGHT	1191.6304999999738	24.199999999999992	0.7	Probable_Lie	RIGHT	RIGHT	1	1543.0123000001004	59	2021-02-15 14:43:54.514116
88	Self	S210215	0.8333333333333334	2	1	1	2	0.4	1150.0000023	1150.0000023	1933.3333372	1933.3333372	Minor	Wrong_doings	10	You have failed to keep promises	C2_60	0.05	Hard	I1_41	43	R. Amundsen discovered the South Pole	0.944444444444444	Yes	RIGHT	215.6667999997808	RIGHT	1316.9848000002276	LEFT	2166.7490999998336	LEFT	967.485900000156	24.59999999999999	0.4	Probable_Truth	LEFT	LEFT	1	610.5032999998912	60	2021-02-15 14:44:18.529985
107	Computer	S210215	0.5	2	1	1	2	0.8	1350.0000027	1350.0000027	2066.6666708	2500.000005	Major	Wrong_doings	16	You have started an NGO using your savings	C2_16	0.7	Hard	I2_60	3	There are 10 continents in the World	0.888888888888889	Yes	RIGHT	46.21459999998479	LEFT	582.8104000001986	LEFT	1532.6629000001049	RIGHT	1135.6896000002052	24.59999999999999	0.8	Probable_Truth	LEFT	RIGHT	4	962.6319447569284	61	2021-02-15 14:44:42.634334
38	Self	S210215	0.8333333333333334	1	2	2	1	0.2	1216.6666691	1433.3333362	2066.6666708	1650.0000033	Minor	Good_deeds	11	You have done something against your values	C1_5	0.9	Easy	I2_4	4	Most plants emit oxygen in the day	0.888888888888889	No	RIGHT	483.93510000005335	RIGHT	102.74939999999332	LEFT	1415.8151999999973	RIGHT	2103.2454000001053	24.79999999999999	0.2	Probable_Truth	RIGHT	RIGHT	4	693.2299000000057	62	2021-02-15 14:45:06.379353
117	Computer	S210215	0.6666666666666666	1	2	2	1	0.6	1500.000003	1150.0000023	2350.0000047	1933.3333372	Major	Good_deeds	2	You have returned your trays in food courts	C2_2	0.05	Easy	I1_15	12	Hot chocolate was created by the Mayan culture	0.888888888888889	Yes	LEFT	293.36460000013176	LEFT	232.068999999683	RIGHT	967.9670000000442	LEFT	1267.608000000109	24.79999999999999	0.6	Probable_Lie	LEFT	RIGHT	1	523.9774947795829	63	2021-02-15 14:45:29.162147
39	Self	S210215	0.8333333333333334	1	2	2	1	0.5	1066.6666688	1066.6666688	1500.000003	1933.3333372	Minor	Good_deeds	5	You have signed up as a bone marrow donor	C1_28	0.0	Hard	I1_47	47	It takes 112 years to build the Pisa Tower	0.888888888888889	Yes	RIGHT	373.16489999966507	RIGHT	216.1870999998428	RIGHT	1031.3117000000602	RIGHT	2174.038599999676	25.29999999999999	0.5	Probable_Truth	RIGHT	RIGHT	3	667.2331999998278	64	2021-02-15 14:45:51.762384
45	Self	S210215	0.8333333333333334	2	1	2	1	0.1	1433.3333362	1350.0000027	2350.0000047	2066.6666708	Minor	Wrong_doings	24	You have taken responsibility for your actions	C1_49	0.05	Easy	I2_42	4	Slavery was abolished in Cuba in 1886	1.0	Yes	RIGHT	209.94019999989175	RIGHT	123.50049999986368	RIGHT	935.1527999997415	LEFT	1087.7467000000252	25.39999999999999	0.1	Probable_Truth	RIGHT	RIGHT	5	829.8122000001058	65	2021-02-15 14:46:14.722820
116	Computer	S210215	0.6666666666666666	1	2	2	1	0.3	1066.6666688	1216.6666691	2500.000005	2216.6666711000003	Minor	Good_deeds	48	You have sign up to sponsor a needy child	C1_14	1.0	Hard	I1_37	15	Nanyang Technological University is in Australia	0.0555555555555556	Yes	LEFT	380.3732999999738	LEFT	239.6908999999141	RIGHT	1607.8836000001502	LEFT	1305.8870999998362	25.39999999999999	0.3	Probable_Lie	RIGHT	RIGHT	1	601.1227156153356	66	2021-02-15 14:46:38.426901
108	Computer	S210215	0.5	2	1	2	1	0.5	1216.6666691	1000.000002	2216.6666711000003	1650.0000033	Minor	Wrong_doings	26	You have engaged in drink-driving	C2_38	1.0	Hard	I2_56	27	It is snowing outside now	0.111111111111111	No	RIGHT	280.2968000000874	LEFT	703.555999999935	LEFT	1118.498499999987	LEFT	2077.8927000001204	25.39999999999999	0.5	Probable_Truth	LEFT	RIGHT	5	907.5402057606448	67	2021-02-15 14:47:02.162309
98	Computer	S210215	0.5	1	2	1	2	0.6	1150.0000023	1433.3333362	1500.000003	2500.000005	Major	Good_deeds	20	You have illegally stayed in a country	C1_60	0.0	Hard	I2_55	40	Cernan was the second last man to walk on the Moon	1.0	Yes	RIGHT	837.7577000001111	LEFT	288.3489000000736	LEFT	1022.1755000002304	LEFT	1486.916600000313	25.39999999999999	0.6	Probable_Truth	LEFT	RIGHT	6	602.6402228187889	68	2021-02-15 14:47:25.554346
131	Computer	S210215	0.8333333333333334	1	2	1	2	0.6	1500.000003	1500.000003	2216.6666711000003	1500.000003	Major	Wrong_doings	28	You have intentionally let others cut in line	C1_34	0.0	Easy	I2_35	35	Carnivore refers to meat-eater	0.0	No	RIGHT	605.0245000001269	RIGHT	119.98670000002676	LEFT	1534.1381000002912	RIGHT	1240.2246999999988	25.999999999999996	0.6	Probable_Truth	RIGHT	RIGHT	4	502.61687874194416	69	2021-02-15 14:47:48.842327
33	Self	S210215	0.8333333333333334	1	2	1	2	0.7	1500.000003	1150.0000023	2350.0000047	1783.3333369	Major	Good_deeds	45	You have cheated on a test	C1_36	0.85	Hard	I1_48	48	There are 30 hours in a day	0.0	Yes	LEFT	722.537800000282	RIGHT	343.98600000031365	LEFT	1484.6530999998322	LEFT	1105.0430999998753	25.299999999999997	0.7	Probable_Lie	LEFT	LEFT	6	701.508499999818	70	2021-02-15 14:48:12.554658
99	Computer	S210215	0.5	1	2	1	2	0.3	1283.3333359	1000.000002	1933.3333372	2350.0000047	Minor	Good_deeds	34	You have helped your parents when asked to	C2_34	0.95	Easy	I2_40	1	China is a part of Asia	0.944444444444444	Yes	LEFT	1393.522700000176	LEFT	673.0850999997529	RIGHT	996.4340999999876	RIGHT	1151.0174999998526	25.299999999999997	0.3	Probable_Lie	LEFT	RIGHT	1	904.6660694255106	71	2021-02-15 14:48:36.801395
95	Self	S210215	0.8333333333333334	2	1	2	1	0.1	1000.000002	1283.3333359	1650.0000033	1650.0000033	Minor	Wrong_doings	8	You have helped others to pick up their belongings	C1_57	1.0	Easy	I1_23	17	A triangle has three sides	1.0	No	RIGHT	109.9450000001525	RIGHT	759.6788000000743	RIGHT	975.2966000000924	RIGHT	923.0851000002076	25.399999999999995	0.1	Probable_Truth	LEFT	LEFT	1	709.0543999997863	72	2021-02-15 14:48:58.441996
90	Self	S210215	0.8333333333333334	2	1	1	2	0.7	1216.6666691	1000.000002	2500.000005	2350.0000047	Minor	Wrong_doings	60	You have adopted a zero-waste lifestyle	C1_16	0.85	Hard	I2_41	38	Chickens lay eggs	0.0	No	RIGHT	120.40849999993952	RIGHT	858.6049999998977	LEFT	1242.4313000001348	RIGHT	952.5524000000588	26.099999999999994	0.7	Probable_Lie	LEFT	LEFT	3	609.2595999998593	73	2021-02-15 14:49:21.874917
55	Self	S210215	0.5	1	2	2	1	0.2	1000.000002	1000.000002	2066.6666708	1650.0000033	Major	Wrong_doings	31	You have sorted your trash into recycling bin	C2_52	0.15	Hard	I1_13	34	The Amazon forest covers an area of 1 billion acres	0.722222222222222	Yes	RIGHT	285.16799999988507	RIGHT	160.56479999997464	RIGHT	1248.1228000001463	RIGHT	1468.3366999997816	26.299999999999997	0.2	Probable_Truth	LEFT	RIGHT	4	1542.3777000000882	74	2021-02-15 14:49:44.873547
72	Self	S210215	0.6666666666666666	2	1	1	2	0.3	1216.6666691	1150.0000023	2500.000005	1500.000003	Major	Wrong_doings	35	You have started a hotline for victims of bully	C2_36	0.45	Hard	I2_25	48	The human's inner ear is larger than a pencil eraser	0.666666666666667	No	RIGHT	88.81590000009965	RIGHT	659.6630999997615	LEFT	1679.4409999997697	LEFT	4206.95220000016	26.599999999999994	0.3	Probable_Lie	LEFT	LEFT	4	1097.754999999779	75	2021-02-15 14:50:11.545779
30	Self	S210215	0.6666666666666666	2	1	2	1	0.4	1216.6666691	1283.3333359	2350.0000047	1783.3333369	Major	Wrong_doings	33	You have held the door open for a stranger	C2_33	1.0	Easy	I1_12	17	Saturn's rings are between 30 and 300 feet thick	0.777777777777778	No	RIGHT	3087.7973999999995	RIGHT	1204.3039000000135	RIGHT	735.7673999999861	LEFT	2378.8798000000497	26.999999999999996	0.4	Probable_Truth	LEFT	LEFT	2	732.0596999998088	76	2021-02-15 14:50:38.890750
120	Computer	S210215	0.6666666666666666	2	1	1	2	0.5	1000.000002	1066.6666688	1933.3333372	2216.6666711000003	Major	Good_deeds	27	You have downloaded pirated movies	C2_37	1.0	Easy	I2_17	39	There are 20 bones in the human skull	0.944444444444444	Yes	LEFT	40.99020000012388	LEFT	620.4705999998623	LEFT	1335.6942999998864	LEFT	968.0819999998675	26.999999999999996	0.5	Probable_Lie	RIGHT	RIGHT	2	536.6250469610746	77	2021-02-15 14:51:01.177854
53	Self	S210215	0.5	1	2	2	1	0.5	1283.3333359	1150.0000023	1783.3333369	2066.6666708	Major	Good_deeds	12	You have thrown your trash into the bin	C1_19	0.65	Hard	I1_32	13	Some owl species hunt fish	0.833333333333333	Yes	LEFT	874.495399999887	RIGHT	712.8898000000845	RIGHT	935.1219999998648	LEFT	929.1533000000528	26.499999999999996	0.5	Probable_Lie	LEFT	RIGHT	3	1054.6171000000868	78	2021-02-15 14:51:24.537315
0	Self	S210215	0.5	1	2	1	2	0.8	1150.0000023	1350.0000027	1500.000003	2500.000005	Major	Good_deeds	58	You have been restricting your electricity consumption	C2_17	0.45	Hard	I2_59	35	Singapore ranked 8th in World's smallest countries	0.0	Yes	RIGHT	374.04819999983374	RIGHT	47.18080000020564	LEFT	3526.0653999998794	LEFT	1879.018100000394	27.299999999999997	0.8	Probable_Truth	LEFT	RIGHT	6	680.8860999999524	79	2021-02-15 14:51:50.121033
69	Self	S210215	0.6666666666666666	1	2	2	1	0.5	1283.3333359	1000.000002	1783.3333369	1783.3333369	Minor	Wrong_doings	45	You have kept your promises	C1_45	0.0	Hard	I2_6	46	Last day of the year is 30th December	0.944444444444444	Yes	RIGHT	778.584299999693	RIGHT	64.99000000030719	RIGHT	776.3884000000871	LEFT	2257.422900000165	27.799999999999997	0.5	Probable_Lie	LEFT	LEFT	6	726.8008999999438	80	2021-02-15 14:52:13.146167
91	Self	S210215	0.8333333333333334	2	1	1	2	0.5	1500.000003	1433.3333362	1500.000003	2066.6666708	Major	Good_deeds	50	You have bought cocaine	C2_50	0.0	Easy	I2_28	5	The hyoid bone is the only jointless bone	0.888888888888889	Yes	RIGHT	80.73680000006789	RIGHT	419.9816999998802	LEFT	943.3344999997644	LEFT	2215.6463999999687	28.299999999999997	0.5	Probable_Truth	RIGHT	RIGHT	3	592.8791999999703	81	2021-02-15 14:52:36.473273
135	Computer	S210215	0.8333333333333334	1	2	2	1	0.1	1283.3333359	1216.6666691	2500.000005	1783.3333369	Minor	Good_deeds	5	You have signed up as a bone marrow donor	C1_28	0.0	Hard	I1_47	47	It takes 112 years to build the Pisa Tower	0.888888888888889	Yes	LEFT	1281.129399999827	LEFT	56.53599999959624	RIGHT	847.3118000001705	RIGHT	1258.260000000064	28.299999999999997	0.1	Probable_Lie	RIGHT	RIGHT	1	922.899538724448	82	2021-02-15 14:53:00.185285
48	Self	S210215	0.5	1	2	1	2	0.3	1350.0000027	1216.6666691	2350.0000047	2216.6666711000003	Minor	Good_deeds	19	You have bribed a police officer	C1_38	0.75	Easy	I2_34	54	French is Singapore's official language	0.0	Yes	RIGHT	337.9461999998057	RIGHT	16.59349999999904	LEFT	997.75499999987	LEFT	1438.4774999998626	28.599999999999994	0.3	Probable_Truth	LEFT	RIGHT	5	746.7603000000054	83	2021-02-15 14:53:23.433808
28	Self	S210215	0.6666666666666666	2	1	2	1	0.7	1066.6666688	1066.6666688	2216.6666711000003	1500.000003	Minor	Good_deeds	42	You have engaged in underage smoking	C2_18	0.05	Hard	I2_44	12	Nomophobia is the fear of being without a phone or computer	0.0	Yes	RIGHT	295.2224000000569	RIGHT	449.04929999984233	LEFT	887.9990999998881	LEFT	1630.7275000003756	29.299999999999997	0.7	Probable_Truth	RIGHT	RIGHT	3	953.2859999999346	84	2021-02-15 14:53:46.074415
123	Computer	S210215	0.6666666666666666	2	1	1	2	0.2	1283.3333359	1000.000002	2066.6666708	1500.000003	Major	Wrong_doings	44	You have risked your life to save another person's life	C2_1	0.7	Easy	I1_39	53	Singapore has four seasons	0.0	No	RIGHT	72.09980000016003	LEFT	489.448799999991	LEFT	1198.316800000157	LEFT	1152.40730000005	29.299999999999997	0.2	Probable_Truth	LEFT	LEFT	2	707.0460201971142	85	2021-02-15 14:54:08.105287
113	Computer	S210215	0.6666666666666666	1	2	1	2	0.2	1216.6666691	1500.000003	2216.6666711000003	1783.3333369	Minor	Wrong_doings	48	You have lost everything just to help others	C2_48	0.65	Hard	I1_45	18	The Earth turns the closest to the sun in May	0.0	Yes	LEFT	167.89590000007593	LEFT	96.37870000005933	LEFT	921.1930000001304	LEFT	1119.6811999998315	29.299999999999997	0.2	Probable_Lie	LEFT	RIGHT	1	614.1452881998565	86	2021-02-15 14:54:30.313528
129	Computer	S210215	0.8333333333333334	1	2	1	2	0.8	1150.0000023	1283.3333359	1933.3333372	2500.000005	Major	Good_deeds	45	You have cheated on a test	C1_36	0.85	Hard	I1_48	48	There are 30 hours in a day	0.0	Yes	RIGHT	815.9749000001284	RIGHT	496.78309999990233	LEFT	1495.2917999999045	LEFT	1014.9364999997488	30.099999999999994	0.8	Probable_Lie	RIGHT	RIGHT	1	775.1584312280754	87	2021-02-15 14:54:54.337697
36	Self	S210215	0.8333333333333334	1	2	2	1	0.4	1283.3333359	1216.6666691	1650.0000033	2500.000005	Major	Wrong_doings	36	You have confessed to your mistake	C2_11	0.1	Hard	I2_3	3	Mozambique is the world's poorest country	0.833333333333333	No	RIGHT	119.72119999973074	RIGHT	128.21230000008654	RIGHT	1000.1023999998324	LEFT	933.5869000001368	30.499999999999996	0.4	Probable_Truth	RIGHT	RIGHT	2	817.8857000002608	88	2021-02-15 14:55:16.561434
76	Self	S210215	0.6666666666666666	2	1	2	1	0.5	1500.000003	1283.3333359	2350.0000047	1783.3333369	Major	Wrong_doings	51	You have been physically hurt to protect others	C1_51	0.85	Easy	I1_5	5	Beef comes from cows	0.0	Yes	RIGHT	2.117399999860936	RIGHT	466.1292999999205	LEFT	2176.28939999986	RIGHT	3482.6524999998583	30.999999999999996	0.5	Probable_Truth	RIGHT	RIGHT	3	502.22420000000056	89	2021-02-15 14:55:42.681847
27	Self	S210215	0.6666666666666666	2	1	1	2	0.5	1350.0000027	1350.0000027	1933.3333372	2350.0000047	Major	Wrong_doings	44	You have risked your life to save another person's life	C2_1	0.7	Easy	I1_39	53	Singapore has four seasons	0.0	No	RIGHT	48.32269999997152	RIGHT	304.6982000000753	LEFT	877.277800000229	RIGHT	736.5818999996918	31.499999999999996	0.5	Probable_Truth	RIGHT	RIGHT	3	586.6320999998607	90	2021-02-15 14:56:04.793090
68	Self	S210215	0.6666666666666666	1	2	2	1	0.7	1150.0000023	1500.000003	2500.000005	2500.000005	Minor	Good_deeds	39	You have been convicted in court	C2_46	0.15	Easy	I1_14	40	Animals are living things	0.833333333333333	No	RIGHT	1180.9640999999829	RIGHT	8.434899999883783	LEFT	744.1778000002159	RIGHT	911.1566999999924	32.2	0.7	Probable_Truth	RIGHT	RIGHT	5	572.2092999999404	91	2021-02-15 14:56:28.434465
1	Self	S210215	0.5	1	2	1	2	0.6	1433.3333362	1216.6666691	1783.3333369	2066.6666708	Major	Wrong_doings	60	You have volunteered for a disaster-related humanitarian mission	C1_58	0.7	Easy	I2_46	9	Bears have the biggest eyes among mammals	0.833333333333333	No	RIGHT	939.2513000002508	RIGHT	88.64560000029087	RIGHT	1502.123599999777	LEFT	981.9429000003764	32.8	0.6	Probable_Truth	LEFT	RIGHT	5	996.8022000002748	92	2021-02-15 14:56:52.017995
73	Self	S210215	0.6666666666666666	2	1	1	2	0.6	1000.000002	1350.0000027	1783.3333369	2350.0000047	Major	Wrong_doings	36	You have taken part in violent demonstration	C2_25	0.0	Easy	I1_50	50	Milwaukee Art Museum is located in California	0.611111111111111	Yes	RIGHT	48.90909999994619	RIGHT	1074.5555999997125	LEFT	1292.7159999999276	LEFT	919.3371999999728	33.4	0.6	Probable_Truth	LEFT	LEFT	2	591.6511999998875	93	2021-02-15 14:57:15.001199
140	Computer	S210215	0.8333333333333334	2	1	2	1	0.8	1150.0000023	1000.000002	1650.0000033	2500.000005	Major	Good_deeds	3	You have engaged in arson	C1_3	0.95	Hard	I2_50	38	Singapore is in Africa	0.611111111111111	Yes	LEFT	54.91930000016509	LEFT	678.6655999999311	LEFT	735.5001000000811	LEFT	1316.7793000002348	33.4	0.8	Probable_Lie	RIGHT	LEFT	2	812.60376793851	94	2021-02-15 14:57:37.474624
58	Self	S210215	0.5	2	1	1	2	0.3	1216.6666691	1066.6666688	1500.000003	1650.0000033	Major	Wrong_doings	50	You have offered a listening ear to a friend	C2_30	0.1	Easy	I2_13	2	Polish is 20th most spoken language in the World	0.0	Yes	LEFT	119.84110000003056	RIGHT	1298.74239999981	RIGHT	1109.17900000004	LEFT	943.219499999941	33.1	0.3	Probable_Lie	RIGHT	RIGHT	2	2135.4418999999325	95	2021-02-15 14:58:01.097400
49	Self	S210215	0.5	1	2	1	2	0.1	1066.6666688	1350.0000027	1500.000003	1933.3333372	Minor	Wrong_doings	13	You have sheltered others from disasters	C2_23	0.85	Easy	I1_10	53	February has 30 days	0.0	No	LEFT	781.8390000002182	RIGHT	703.7448999999469	RIGHT	1452.8260000001865	LEFT	960.4779000001143	33.0	0.1	Probable_Lie	RIGHT	RIGHT	2	826.9338999998581	96	2021-02-15 15:00:03.801591
57	Self	S210215	0.5	2	1	1	2	0.1	1433.3333362	1350.0000027	2350.0000047	2216.6666711000003	Major	Wrong_doings	30	You have borrowed things and never returned	C1_50	0.95	Hard	I1_25	60	Earth's atmosphere extends up to 10,000km into space	0.888888888888889	Yes	LEFT	439.894600000116	RIGHT	939.9779999998829	LEFT	1689.5400999997037	LEFT	1007.156699999996	32.9	0.1	Probable_Lie	LEFT	LEFT	6	1553.9418000003025	97	2021-02-15 15:00:29.353071
54	Self	S210215	0.5	1	2	2	1	0.4	1216.6666691	1283.3333359	2216.6666711000003	1500.000003	Minor	Good_deeds	52	You have kidnapped someone	C2_13	1.0	Hard	I2_53	39	Today is a weekday	0.0	No	RIGHT	535.7021999998324	RIGHT	8.074299999861978	LEFT	695.7932000000255	RIGHT	1242.9035000000113	33.3	0.4	Probable_Lie	RIGHT	RIGHT	3	918.305600000167	98	2021-02-15 15:00:51.553464
115	Computer	S210215	0.6666666666666666	1	2	1	2	0.1	1350.0000027	1066.6666688	1650.0000033	1500.000003	Minor	Wrong_doings	59	You have said sorry when you were rude	C1_30	0.0	Easy	I2_2	2	Fishes can swim in water	0.666666666666667	No	LEFT	528.7047000001621	LEFT	32.64409999974305	RIGHT	846.1893000003329	RIGHT	823.9069999999629	33.3	0.1	Probable_Truth	LEFT	RIGHT	3	979.1034192365944	99	2021-02-15 15:01:12.905714
96	Computer	S210215	0.5	1	2	1	2	0.8	1500.000003	1150.0000023	1783.3333369	1650.0000033	Major	Good_deeds	58	You have been restricting your electricity consumption	C2_17	0.45	Hard	I2_59	35	Singapore ranked 8th in World's smallest countries	0.0	Yes	RIGHT	811.0498000000916	RIGHT	8.921799999825453	LEFT	1295.29679999996	LEFT	823.5882000003585	34.099999999999994	0.8	Probable_Lie	RIGHT	LEFT	6	793.3577857309756	100	2021-02-15 15:01:35.297543
110	Computer	S210215	0.5	2	1	2	1	0.4	1433.3333362	1150.0000023	1783.3333369	1500.000003	Major	Good_deeds	43	You have donated a pay cheque to charity	C2_43	0.05	Hard	I2_30	31	There are 7 days in a week	0.0	No	RIGHT	264.8975000001883	LEFT	873.3457000003	LEFT	953.907800000252	RIGHT	2045.6920000001448	34.099999999999994	0.4	Probable_Truth	RIGHT	RIGHT	4	986.9310189538752	101	2021-02-15 15:01:58.850710
13	Self	S210215	0.5	2	1	2	1	0.3	1433.3333362	1150.0000023	1783.3333369	2500.000005	Minor	Good_deeds	13	You have used a fake name online	C1_13	0.7	Hard	I1_3	52	Astatine is the rarest element in the Earth's crust	0.722222222222222	Yes	RIGHT	280.4338999999345	RIGHT	362.2761999999966	LEFT	863.2001000000855	LEFT	870.8891999999651	34.39999999999999	0.3	Probable_Truth	RIGHT	LEFT	1	743.7759999997979	102	2021-02-15 15:02:21.409814
41	Self	S210215	0.8333333333333334	2	1	1	2	0.4	1066.6666688	1066.6666688	1650.0000033	1783.3333369	Major	Good_deeds	59	You have pretended to be busy to avoid a social situation	C1_24	0.2	Hard	I1_28	42	The hardest bone in human body is the jawbone	0.0555555555555556	No	RIGHT	72.13030000002618	RIGHT	271.193200000198	LEFT	1450.7699000000684	LEFT	911.0750999998344	34.79999999999999	0.4	Probable_Truth	RIGHT	RIGHT	3	379.6362999996745	103	2021-02-15 15:02:42.641160
37	Self	S210215	0.8333333333333334	1	2	2	1	0.6	1350.0000027	1350.0000027	1783.3333369	2216.6666711000003	Major	Wrong_doings	54	You have taken part in burglary	C2_54	0.65	Easy	I1_8	23	Lehman Brothers went bankrupt on 20th September	0.0555555555555556	Yes	RIGHT	520.1630999999907	RIGHT	200.95769999988988	LEFT	784.8010000002432	LEFT	1918.8835999998448	35.39999999999999	0.6	Probable_Truth	LEFT	LEFT	1	850.0342999996064	104	2021-02-15 15:03:06.193652
52	Self	S210215	0.5	1	2	2	1	0.6	1150.0000023	1433.3333362	2500.000005	2350.0000047	Major	Good_deeds	37	You have violated a traffic law	C1_12	0.0	Hard	I2_39	10	The first Olympic Games was held in the 5th century B.C	0.777777777777778	No	RIGHT	227.04029999977135	RIGHT	224.63710000010903	LEFT	781.6438999998354	LEFT	916.164399999616	35.99999999999999	0.6	Probable_Truth	RIGHT	RIGHT	4	1175.086499999907	105	2021-02-15 15:03:29.529446
18	Self	S210215	0.6666666666666666	1	2	1	2	0.5	1350.0000027	1350.0000027	2216.6666711000003	2350.0000047	Major	Good_deeds	30	You have gossiped about your best friend	C1_48	0.55	Easy	I2_18	37	Dutch is the 6th Europe's most widely spoken language	0.0	No	RIGHT	48.70919999984835	RIGHT	64.74130000015066	LEFT	845.9894999996322	LEFT	766.6322000000036	36.49999999999999	0.5	Probable_Truth	LEFT	LEFT	1	681.8911999998818	106	2021-02-15 15:03:51.777590
71	Self	S210215	0.6666666666666666	1	2	2	1	0.3	1216.6666691	1066.6666688	2216.6666711000003	2066.6666708	Major	Wrong_doings	17	You have drunk alcohol when you were underage	C2_19	0.55	Easy	I2_52	52	Obama is the USA president now	0.0	Yes	RIGHT	968.2785999998488	RIGHT	16.78040000024339	LEFT	839.9325000000317	LEFT	1439.6535000000767	36.79999999999999	0.3	Probable_Lie	LEFT	LEFT	4	579.6533000002455	107	2021-02-15 15:04:14.761471
56	Self	S210215	0.5	2	1	1	2	0.8	1500.000003	1216.6666691	1933.3333372	1783.3333369	Minor	Good_deeds	22	You have stopped using products tested on animals	C2_35	0.0	Easy	I2_16	16	The Eiffel Tower is in Paris	0.666666666666667	No	RIGHT	574.4407000001956	RIGHT	659.7517999998672	LEFT	1742.9346000003534	RIGHT	1055.4485000002387	37.59999999999999	0.8	Probable_Lie	LEFT	RIGHT	1	639.6938000002592	108	2021-02-15 15:04:38.448587
42	Self	S210215	0.8333333333333334	2	1	1	2	0.7	1500.000003	1283.3333359	1783.3333369	1500.000003	Minor	Good_deeds	53	You have attended all lectures as a student	C2_58	1.0	Easy	I1_44	44	There is typically 0.6 grams of mercury in glass thermometer	0.0	No	RIGHT	64.09010000015769	RIGHT	778.769900000043	RIGHT	931.3428000000386	LEFT	743.7108000003718	38.29999999999999	0.7	Probable_Truth	LEFT	LEFT	1	494.2703000001529	109	2021-02-15 15:05:00.105682
92	Self	S210215	0.8333333333333334	2	1	2	1	0.6	1283.3333359	1066.6666688	2066.6666708	1783.3333369	Major	Good_deeds	16	You have made someone cry	C1_8	0.95	Easy	I1_17	41	Algeria is Africa's second largest country	0.166666666666667	No	RIGHT	54.676199999903474	RIGHT	181.09679999997752	LEFT	1004.758199999742	LEFT	743.6781999999766	38.89999999999999	0.6	Probable_Truth	RIGHT	RIGHT	3	584.087499999896	110	2021-02-15 15:05:21.457073
46	Self	S210215	0.8333333333333334	2	1	2	1	0.8	1150.0000023	1216.6666691	2066.6666708	2500.000005	Major	Wrong_doings	24	You have helped a friend in need	C1_59	0.0	Hard	I1_58	28	North Korea is more developed than South Korea	0.777777777777778	Yes	RIGHT	192.7704999998241	RIGHT	436.4360999998098	RIGHT	775.4370999996354	LEFT	894.1930000000866	39.69999999999999	0.8	Probable_Truth	LEFT	LEFT	1	619.578900000306	111	2021-02-15 15:05:43.888565
70	Self	S210215	0.6666666666666666	1	2	2	1	0.6	1350.0000027	1283.3333359	2066.6666708	1650.0000033	Major	Wrong_doings	14	You have faked an illness	C1_4	0.0	Easy	I1_46	21	Afghan Hound is the first cloned cat	0.0555555555555556	No	LEFT	725.909799999954	RIGHT	111.88679999986562	LEFT	1249.4351999998798	LEFT	1086.506599999666	39.09999999999999	0.6	Probable_Lie	RIGHT	RIGHT	1	567.1768000001975	112	2021-02-15 15:06:06.554282
103	Computer	S210215	0.5	1	2	2	1	0.4	1066.6666688	1283.3333359	2216.6666711000003	2216.6666711000003	Minor	Wrong_doings	47	You have followed instructions	C2_47	0.05	Hard	I1_9	46	Septicemia is a lung infection condition	0.0	Yes	LEFT	1276.1209000000235	LEFT	1487.7191000000494	RIGHT	910.8123000000888	LEFT	1087.8112000000328	39.09999999999999	0.4	Probable_Lie	LEFT	RIGHT	3	951.9464646110912	113	2021-02-15 15:06:31.625802
109	Computer	S210215	0.5	2	1	2	1	0.6	1000.000002	1433.3333362	2500.000005	2350.0000047	Minor	Good_deeds	13	You have used a fake name online	C1_13	0.7	Hard	I1_3	52	Astatine is the rarest element in the Earth's crust	0.722222222222222	Yes	RIGHT	87.68579999969006	LEFT	604.8901999997724	LEFT	798.8622999996551	LEFT	1271.681400000034	39.09999999999999	0.6	Probable_Truth	RIGHT	LEFT	1	560.1509322951036	114	2021-02-15 15:06:54.825816
101	Computer	S210215	0.5	1	2	2	1	0.1	1350.0000027	1216.6666691	2500.000005	2066.6666708	Major	Wrong_doings	1	You have used heroin	C1_1	1.0	Easy	I1_35	59	The sun rises at night	0.0	No	RIGHT	435.54020000010496	LEFT	71.01270000021032	LEFT	616.0767999999734	LEFT	888.347199999771	39.09999999999999	0.1	Probable_Truth	RIGHT	RIGHT	5	821.7874353093089	115	2021-02-15 15:07:17.360632
87	Self	S210215	0.8333333333333334	1	2	2	1	0.3	1216.6666691	1150.0000023	2216.6666711000003	1500.000003	Major	Wrong_doings	53	You have switched off appliances when not in use	C1_53	0.0	Hard	I1_57	19	Cleopatra was born in Greece	0.111111111111111	Yes	RIGHT	735.4714999996759	RIGHT	433.2464999997683	RIGHT	1376.884400000108	LEFT	823.5921000000417	39.399999999999984	0.3	Probable_Truth	RIGHT	RIGHT	5	784.588900000017	116	2021-02-15 15:07:40.169037
50	Self	S210215	0.5	1	2	1	2	0.7	1433.3333362	1066.6666688	1650.0000033	1783.3333369	Minor	Wrong_doings	38	You have watched an M18 movie when you were underage	C1_37	0.1	Easy	I2_33	32	It takes 500 days to travel from Earth to Mars	0.0	Yes	RIGHT	734.3440999998165	RIGHT	81.5391000001	LEFT	1147.7125000001251	LEFT	1503.176899999744	40.09999999999999	0.7	Probable_Lie	RIGHT	LEFT	5	1074.8709999998027	117	2021-02-15 15:08:03.216571
61	Self	S210215	0.5	2	1	2	1	0.5	1066.6666688	1000.000002	2500.000005	2500.000005	Minor	Wrong_doings	35	You have fabricated facts about yourself	C2_40	0.5	Hard	I1_2	11	It sometimes snows in Singapore	0.0555555555555556	Yes	RIGHT	41.568599999664	RIGHT	214.30700000018987	LEFT	847.841700000572	LEFT	926.1825999992652	40.59999999999999	0.5	Probable_Lie	LEFT	RIGHT	1	916.0167	118	2021-02-15 15:08:25.801733
133	Computer	S210215	0.8333333333333334	1	2	2	1	0.3	1216.6666691	1150.0000023	2350.0000047	2216.6666711000003	Major	Wrong_doings	54	You have taken part in burglary	C2_54	0.65	Easy	I1_8	23	Lehman Brothers went bankrupt on 20th September	0.0555555555555556	Yes	LEFT	1276.298300000235	LEFT	567.9366999993363	LEFT	808.9341000004424	LEFT	809.259500000735	40.59999999999999	0.3	Probable_Lie	RIGHT	RIGHT	1	660.0774822612752	119	2021-02-15 15:08:49.432077
125	Computer	S210215	0.6666666666666666	2	1	2	1	0.1	1433.3333362	1433.3333362	2350.0000047	2500.000005	Major	Wrong_doings	9	You have lied to your parents	C1_42	0.2	Easy	I1_53	8	Beer is an alcoholic drink	0.0	Yes	LEFT	168.66849999951228	LEFT	478.6914999995133	LEFT	632.7203999999256	RIGHT	878.6148999997749	40.59999999999999	0.1	Probable_Lie	RIGHT	LEFT	3	934.1084536963712	120	2021-02-15 15:09:12.808002
124	Computer	S210215	0.6666666666666666	2	1	2	1	0.8	1150.0000023	1500.000003	2500.000005	2066.6666708	Minor	Good_deeds	42	You have engaged in underage smoking	C2_18	0.05	Hard	I2_44	12	Nomophobia is the fear of being without a phone or computer	0.0	Yes	RIGHT	63.84799999977986	RIGHT	478.5462999998345	LEFT	776.2699000004432	LEFT	1087.3134999992544	41.399999999999984	0.8	Probable_Lie	RIGHT	LEFT	6	577.2622194236046	121	2021-02-15 15:09:35.584251
24	Self	S210215	0.6666666666666666	2	1	1	2	0.6	1000.000002	1500.000003	2066.6666708	1650.0000033	Major	Good_deeds	27	You have downloaded pirated movies	C2_37	1.0	Easy	I2_17	39	There are 20 bones in the human skull	0.944444444444444	Yes	RIGHT	312.14400000044407	RIGHT	740.0485999996818	LEFT	744.03059999986	LEFT	712.5679999999193	41.99999999999999	0.6	Probable_Truth	RIGHT	RIGHT	5	406.9083000003957	122	2021-02-15 15:09:57.297095
89	Self	S210215	0.8333333333333334	2	1	1	2	0.8	1066.6666688	1350.0000027	2216.6666711000003	1500.000003	Minor	Good_deeds	28	You have a non-judgmental attitude towards everyone	C1_40	1.0	Hard	I2_43	23	Kangaroos live in Africa	0.0	Yes	RIGHT	136.89020000038	RIGHT	1096.9882999997935	RIGHT	1914.6398000002591	LEFT	1025.0138999999765	42.79999999999998	0.8	Probable_Truth	LEFT	LEFT	1	513.8151999999536	123	2021-02-15 15:10:20.696355
64	Self	S210215	0.6666666666666666	1	2	1	2	0.8	1500.000003	1216.6666691	1933.3333372	2350.0000047	Minor	Good_deeds	46	You have taken months off to volunteer	C2_14	0.85	Hard	I1_21	24	The Moon orbits around the Earth	0.0555555555555556	No	RIGHT	292.3908000002484	RIGHT	8.546099999875878	LEFT	1175.492300000769	RIGHT	1304.0005000002566	43.59999999999998	0.8	Probable_Truth	RIGHT	RIGHT	3	447.5007999999434	124	2021-02-15 15:10:43.504252
10	Self	S210215	0.5	2	1	1	2	0.2	1066.6666688	1000.000002	2350.0000047	1500.000003	Major	Wrong_doings	38	You have cursed at your loved ones	C1_23	0.05	Easy	I1_27	30	December is the last month of the year	0.722222222222222	Yes	RIGHT	95.7872999997562	RIGHT	474.81580000021495	LEFT	894.003000000339	RIGHT	974.850399999923	43.79999999999998	0.2	Probable_Truth	LEFT	LEFT	3	771.3549999998577	125	2021-02-15 15:11:05.209829
132	Computer	S210215	0.8333333333333334	1	2	2	1	0.5	1000.000002	1066.6666688	1500.000003	2066.6666708	Major	Wrong_doings	36	You have confessed to your mistake	C2_11	0.1	Hard	I2_3	3	Mozambique is the world's poorest country	0.833333333333333	No	LEFT	1429.799600000479	LEFT	384.6512000000075	RIGHT	960.2370000002338	LEFT	2318.8633999998274	43.79999999999998	0.5	Probable_Lie	LEFT	RIGHT	1	803.5535393705254	126	2021-02-15 15:11:29.304584
62	Self	S210215	0.5	2	1	2	1	0.6	1350.0000027	1150.0000023	2216.6666711000003	2066.6666708	Major	Good_deeds	29	You have made counterfeit money	C1_22	0.0	Easy	I2_36	43	Africa is the continent with the least rainfall	0.611111111111111	No	RIGHT	40.63010000027134	RIGHT	215.51910000016505	LEFT	800.1536000001579	LEFT	1157.566599999882	44.399999999999984	0.6	Probable_Truth	RIGHT	LEFT	1	1267.1724000001632	127	2021-02-15 15:11:52.144624
106	Computer	S210215	0.5	2	1	1	2	0.1	1150.0000023	1500.000003	1500.000003	2216.6666711000003	Major	Wrong_doings	38	You have cursed at your loved ones	C1_23	0.05	Easy	I1_27	30	December is the last month of the year	0.722222222222222	Yes	LEFT	151.02590000060445	LEFT	352.94470000008005	LEFT	649.9771999997392	RIGHT	688.6002999999619	44.399999999999984	0.1	Probable_Lie	LEFT	RIGHT	2	909.247806729572	128	2021-02-15 15:12:13.841440
141	Computer	S210215	0.8333333333333334	2	1	2	1	0.4	1433.3333362	1150.0000023	2216.6666711000003	2350.0000047	Minor	Wrong_doings	24	You have taken responsibility for your actions	C1_49	0.05	Easy	I2_42	4	Slavery was abolished in Cuba in 1886	1.0	Yes	LEFT	103.34200000033889	LEFT	770.8443000001353	RIGHT	791.6869999999108	LEFT	875.9912999994413	44.399999999999984	0.4	Probable_Lie	RIGHT	LEFT	3	684.0936779553936	129	2021-02-15 15:12:36.785776
82	Self	S210215	0.8333333333333334	1	2	1	2	0.1	1066.6666688	1066.6666688	1783.3333369	1783.3333369	Major	Good_deeds	43	You have told someone's secret to others	C2_56	0.0	Easy	I1_19	57	Penguin can fly with their wings	0.0555555555555556	Yes	RIGHT	546.7284999995172	RIGHT	8.43540000005305	LEFT	3110.279600000468	LEFT	1319.914099999551	44.49999999999999	0.1	Probable_Truth	LEFT	LEFT	1	719.5977999999741	130	2021-02-15 15:13:00.769398
2	Self	S210215	0.5	1	2	1	2	0.2	1066.6666688	1000.000002	2066.6666708	1783.3333369	Major	Good_deeds	20	You have illegally stayed in a country	C1_60	0.0	Hard	I2_55	40	Cernan was the second last man to walk on the Moon	1.0	Yes	RIGHT	413.54210000008607	RIGHT	56.76070000026812	LEFT	746.1215000002994	LEFT	780.5011999998896	44.69999999999999	0.2	Probable_Truth	RIGHT	RIGHT	4	697.7545999998256	131	2021-02-15 15:13:21.960547
67	Self	S210215	0.6666666666666666	1	2	1	2	0.2	1066.6666688	1150.0000023	1650.0000033	1933.3333372	Major	Good_deeds	39	You have bribed someone to improve a grade	C1_39	1.0	Hard	I2_31	31	Teddy Roosevelt was the youngest US President	0.944444444444444	No	RIGHT	469.4822000001295	RIGHT	3126.935600000252	LEFT	853.3101000002716	LEFT	1535.152299999936	44.89999999999999	0.2	Probable_Lie	LEFT	LEFT	4	481.37839999981225	132	2021-02-15 15:13:46.800795
11	Self	S210215	0.5	2	1	1	2	0.6	1350.0000027	1500.000003	1500.000003	2350.0000047	Major	Wrong_doings	16	You have started an NGO using your savings	C2_16	0.7	Hard	I2_60	3	There are 10 continents in the World	0.888888888888889	Yes	LEFT	160.59799999948154	RIGHT	853.9817000000767	LEFT	909.1883000000962	RIGHT	679.5818999999028	44.29999999999999	0.6	Probable_Lie	LEFT	RIGHT	1	652.5160999999571	133	2021-02-15 15:14:09.328823
112	Computer	S210215	0.6666666666666666	1	2	1	2	0.8	1433.3333362	1283.3333359	1783.3333369	2350.0000047	Minor	Wrong_doings	3	You have blackmailed others for money	C2_59	0.0	Hard	I2_51	51	Mexico's National Day is September 16	0.0	No	RIGHT	919.6326000001136	RIGHT	448.5700999994151	LEFT	772.6081000000704	LEFT	984.0717999995832	45.09999999999999	0.8	Probable_Lie	LEFT	LEFT	6	658.3162925644534	134	2021-02-15 15:14:32.520920
100	Computer	S210215	0.5	1	2	2	1	0.7	1216.6666691	1500.000003	2350.0000047	1783.3333369	Minor	Wrong_doings	20	You have claimed doing things that you never did	C1_20	0.0	Hard	I1_36	36	Today is Sunday	0.666666666666667	No	RIGHT	584.6196000002237	RIGHT	248.13579999954527	LEFT	2630.683900000804	LEFT	819.092499999897	45.79999999999999	0.7	Probable_Truth	LEFT	LEFT	3	729.5059178181239	135	2021-02-15 15:14:56.952712
134	Computer	S210215	0.8333333333333334	1	2	2	1	0.4	1350.0000027	1433.3333362	1783.3333369	1933.3333372	Minor	Good_deeds	11	You have done something against your values	C1_5	0.9	Easy	I2_4	4	Most plants emit oxygen in the day	0.888888888888889	No	LEFT	413.7583000001541	LEFT	24.14000000044325	LEFT	943.3696000005511	RIGHT	1453.3511999998154	45.79999999999999	0.4	Probable_Lie	LEFT	RIGHT	1	975.4250931365232	136	2021-02-15 15:15:19.824340
85	Self	S210215	0.8333333333333334	1	2	2	1	0.8	1000.000002	1283.3333359	1500.000003	1933.3333372	Minor	Wrong_doings	56	You have helped with household chores	C1_43	0.9	Hard	I2_1	1	Cheese is an Asian staple	0.0	No	RIGHT	3061.4980999998807	RIGHT	48.14799999985553	RIGHT	822.3062999995818	LEFT	1926.9397000007305	46.59999999999999	0.8	Probable_Truth	RIGHT	RIGHT	4	491.5885000000344	137	2021-02-15 15:15:44.464045
12	Self	S210215	0.5	2	1	2	1	0.5	1150.0000023	1216.6666691	1933.3333372	2216.6666711000003	Minor	Wrong_doings	26	You have engaged in drink-driving	C2_38	1.0	Hard	I2_56	27	It is snowing outside now	0.111111111111111	No	RIGHT	49.300200000288896	RIGHT	996.9194000004792	LEFT	783.365700000104	LEFT	753.4992999999304	47.09999999999999	0.5	Probable_Lie	LEFT	LEFT	4	688.2844000001569	138	2021-02-15 15:16:06.823911
122	Computer	S210215	0.6666666666666666	2	1	1	2	0.3	1500.000003	1283.3333359	1650.0000033	1933.3333372	Minor	Good_deeds	37	You have participated in a scamming business	C1_9	0.0	Hard	I1_6	44	It is 20th Century now	0.777777777777778	Yes	RIGHT	224.55919999993057	LEFT	710.351200000332	LEFT	849.3642000003092	LEFT	911.6806000001816	47.09999999999999	0.3	Probable_Truth	RIGHT	LEFT	2	752.768531302862	139	2021-02-15 15:16:29.208257
118	Computer	S210215	0.6666666666666666	1	2	2	1	0.7	1150.0000023	1000.000002	2066.6666708	2066.6666708	Major	Good_deeds	47	You have deceived a loved one	C2_3	0.0	Easy	I1_29	45	Brazil is in South America	1.0	Yes	RIGHT	754.2826000008063	RIGHT	383.9649999999892	LEFT	855.3210999998555	LEFT	639.8552999999083	47.79999999999999	0.7	Probable_Lie	LEFT	RIGHT	1	995.7150499550356	140	2021-02-15 15:16:51.696108
25	Self	S210215	0.6666666666666666	2	1	1	2	0.8	1283.3333359	1433.3333362	1650.0000033	2066.6666708	Minor	Wrong_doings	18	You have said thank you when you have received help	C1_44	0.05	Hard	I2_8	45	Feijoa is a type of grape	0.764705882352941	No	RIGHT	48.49920000015118	RIGHT	885.4850000006991	RIGHT	967.2319999999672	LEFT	750.514800000019	48.59999999999999	0.8	Probable_Truth	RIGHT	RIGHT	4	561.3529000002018	141	2021-02-15 15:17:13.920936
104	Computer	S210215	0.5	2	1	1	2	0.3	1500.000003	1216.6666691	1650.0000033	1933.3333372	Minor	Wrong_doings	23	You have given directions to a lost tourist	C1_31	0.95	Easy	I1_31	27	Airbags in cars are filled with sodium azide	0.833333333333333	Yes	LEFT	49.687400000038906	LEFT	1606.515099999342	RIGHT	917.1893000002456	LEFT	823.2914000000164	48.59999999999999	0.3	Probable_Lie	RIGHT	RIGHT	2	735.5697417657182	142	2021-02-15 15:17:36.920314
32	Self	S210215	0.8333333333333334	1	2	1	2	0.1	1433.3333362	1000.000002	2216.6666711000003	1500.000003	Minor	Wrong_doings	34	You have been sued	C2_9	1.0	Hard	I1_11	8	A square has 3 corners	1.0	No	RIGHT	464.7711999996318	RIGHT	110.65450000023702	LEFT	759.2086999993626	LEFT	1175.9185000000798	48.69999999999999	0.1	Probable_Truth	LEFT	LEFT	1	717.1779000000242	143	2021-02-15 15:17:58.872105
