Participant	Task	Stimulus_Side	Response	RT	ITI	Previous_Response	Previous_RT	Trial_Onset	Trial_End	Trial_Order	Duration	Conflict	Cue_Response	Cue_Response_RT	Stop_Signal	Stop_Signal_RT
S210215	Conflict_Resolution	LEFT	LEFT	611.409399999957	1250.0000025	n/a	n/a	2021-02-15 13:54:34.588164	2021-02-15 13:54:35.407991	1	6.15933533333333	False	n/a	n/a	n/a	n/a
S210215	Conflict_Resolution	RIGHT	RIGHT	494.649299999992	1150.0000023	n/a	n/a	2021-02-15 13:54:36.576533	2021-02-15 13:54:37.279509	2	6.15933533333333	False	n/a	n/a	n/a	n/a
S210215	Conflict_Resolution	RIGHT	RIGHT	931.313799999998	833.333335	n/a	n/a	2021-02-15 13:54:38.131826	2021-02-15 13:54:39.271199	3	6.15933533333333	True	n/a	n/a	n/a	n/a
S210215	Conflict_Resolution	LEFT	LEFT	478.542300000072	1366.6666694	n/a	n/a	2021-02-15 13:54:40.657449	2021-02-15 13:54:41.342615	4	6.15933533333333	False	n/a	n/a	n/a	n/a
S210215	Conflict_Resolution	RIGHT	RIGHT	775.436100000093	750.0000015	n/a	n/a	2021-02-15 13:54:42.111692	2021-02-15 13:54:43.094703	5	6.15933533333333	True	n/a	n/a	n/a	n/a
S210215	Conflict_Resolution	RIGHT	RIGHT	575.69890000002	783.3333349	n/a	n/a	2021-02-15 13:54:43.895714	2021-02-15 13:54:44.679857	6	6.15933533333333	True	n/a	n/a	n/a	n/a
S210215	Conflict_Resolution	RIGHT	RIGHT	578.7239	1033.3333354	n/a	n/a	2021-02-15 13:54:45.732948	2021-02-15 13:54:46.521136	7	6.15933533333333	True	n/a	n/a	n/a	n/a
S210215	Conflict_Resolution	RIGHT	RIGHT	627.986000000078	583.3333345	n/a	n/a	2021-02-15 13:54:47.123671	2021-02-15 13:54:47.960113	8	6.15933533333333	False	n/a	n/a	n/a	n/a
S210215	Conflict_Resolution	LEFT	LEFT	571.607399999948	1000.000002	n/a	n/a	2021-02-15 13:54:48.980170	2021-02-15 13:54:49.760267	9	6.15933533333333	False	n/a	n/a	n/a	n/a
S210215	Conflict_Resolution	RIGHT	RIGHT	438.56679999999	1383.3333361	n/a	n/a	2021-02-15 13:54:51.162709	2021-02-15 13:54:51.808932	10	6.15933533333333	False	n/a	n/a	n/a	n/a
S210215	Conflict_Resolution	LEFT	LEFT	527.072799999928	716.6666681	n/a	n/a	2021-02-15 13:54:52.544964	2021-02-15 13:54:53.279905	11	6.15933533333333	True	n/a	n/a	n/a	n/a
S210215	Conflict_Resolution	RIGHT	RIGHT	552.003000000013	683.3333347	n/a	n/a	2021-02-15 13:54:53.983299	2021-02-15 13:54:54.743999	12	6.15933533333333	True	n/a	n/a	n/a	n/a
S210215	Conflict_Resolution	LEFT	LEFT	494.811799999979	1350.0000027	n/a	n/a	2021-02-15 13:54:56.112756	2021-02-15 13:54:56.814708	13	6.15933533333333	True	n/a	n/a	n/a	n/a
S210215	Conflict_Resolution	LEFT	LEFT	554.056500000002	533.3333344	n/a	n/a	2021-02-15 13:54:57.365975	2021-02-15 13:54:58.128294	14	6.15933533333333	False	n/a	n/a	n/a	n/a
S210215	Conflict_Resolution	RIGHT	RIGHT	417.170299999952	1083.3333355	n/a	n/a	2021-02-15 13:54:59.230546	2021-02-15 13:54:59.856084	15	6.15933533333333	False	n/a	n/a	n/a	n/a
S210215	Conflict_Resolution	RIGHT	RIGHT	422.66189999998	1316.6666693	n/a	n/a	2021-02-15 13:55:01.192684	2021-02-15 13:55:01.824095	16	6.15933533333333	False	n/a	n/a	n/a	n/a
S210215	Conflict_Resolution	LEFT	LEFT	647.25640000006	916.6666685	n/a	n/a	2021-02-15 13:55:02.760136	2021-02-15 13:55:03.615836	17	6.15933533333333	True	n/a	n/a	n/a	n/a
S210215	Conflict_Resolution	LEFT	LEFT	398.090300000035	966.6666686	n/a	n/a	2021-02-15 13:55:04.601724	2021-02-15 13:55:05.207642	18	6.15933533333333	False	n/a	n/a	n/a	n/a
S210215	Conflict_Resolution	LEFT	LEFT	543.065599999977	583.3333345	n/a	n/a	2021-02-15 13:55:05.808224	2021-02-15 13:55:06.559382	19	6.15933533333333	False	n/a	n/a	n/a	n/a
S210215	Conflict_Resolution	LEFT	LEFT	470.755199999985	1366.6666694	n/a	n/a	2021-02-15 13:55:07.945108	2021-02-15 13:55:08.623676	20	6.15933533333333	True	n/a	n/a	n/a	n/a
S210215	Conflict_Resolution	LEFT	LEFT	530.874799999992	1450.0000029	n/a	n/a	2021-02-15 13:55:10.092383	2021-02-15 13:55:10.830377	21	6.15933533333333	False	n/a	n/a	n/a	n/a
S210215	Conflict_Resolution	RIGHT	RIGHT	520.332400000029	700.0000014	n/a	n/a	2021-02-15 13:55:11.551558	2021-02-15 13:55:12.280187	22	6.15933533333333	True	n/a	n/a	n/a	n/a
S210215	Conflict_Resolution	RIGHT	RIGHT	431.28999999999	1100.0000022	n/a	n/a	2021-02-15 13:55:13.400710	2021-02-15 13:55:14.040064	23	6.15933533333333	False	n/a	n/a	n/a	n/a
S210215	Conflict_Resolution	RIGHT	RIGHT	535.485700000095	533.3333344	n/a	n/a	2021-02-15 13:55:14.591747	2021-02-15 13:55:15.336260	24	6.15933533333333	False	n/a	n/a	n/a	n/a
S210215	Conflict_Resolution	LEFT	LEFT	527.004599999941	733.3333348	n/a	n/a	2021-02-15 13:55:16.088444	2021-02-15 13:55:16.824305	25	6.15933533333333	True	n/a	n/a	n/a	n/a
S210215	Conflict_Resolution	RIGHT	RIGHT	487.388599999917	1083.3333355	n/a	n/a	2021-02-15 13:55:17.928533	2021-02-15 13:55:18.624104	26	6.15933533333333	True	n/a	n/a	n/a	n/a
S210215	Conflict_Resolution	LEFT	LEFT	438.299500000085	950.0000019	n/a	n/a	2021-02-15 13:55:19.593542	2021-02-15 13:55:20.239875	27	6.15933533333333	False	n/a	n/a	n/a	n/a
S210215	Conflict_Resolution	LEFT	LEFT	420.338400000105	1416.6666695	n/a	n/a	2021-02-15 13:55:21.675543	2021-02-15 13:55:22.303777	28	6.15933533333333	False	n/a	n/a	n/a	n/a
S210215	Conflict_Resolution	RIGHT	RIGHT	520.837799999981	883.3333351	n/a	n/a	2021-02-15 13:55:23.206990	2021-02-15 13:55:23.936052	29	6.15933533333333	True	n/a	n/a	n/a	n/a
S210215	Conflict_Resolution	LEFT	LEFT	567.310900000052	516.6666677	n/a	n/a	2021-02-15 13:55:24.472552	2021-02-15 13:55:25.247220	30	6.15933533333333	True	n/a	n/a	n/a	n/a
S210215	Conflict_Resolution	LEFT	LEFT	446.812700000009	766.6666682	n/a	n/a	2021-02-15 13:55:26.033184	2021-02-15 13:55:26.688055	31	6.15933533333333	True	n/a	n/a	n/a	n/a
S210215	Conflict_Resolution	LEFT	LEFT	578.47019999997	1450.0000029	n/a	n/a	2021-02-15 13:55:28.157244	2021-02-15 13:55:28.944290	32	6.15933533333333	True	n/a	n/a	n/a	n/a
S210215	Conflict_Resolution	LEFT	LEFT	459.834399999977	1166.666669	n/a	n/a	2021-02-15 13:55:30.131206	2021-02-15 13:55:30.800017	33	6.15933533333333	True	n/a	n/a	n/a	n/a
S210215	Conflict_Resolution	LEFT	LEFT	398.7889	1150.0000023	n/a	n/a	2021-02-15 13:55:31.968905	2021-02-15 13:55:32.576025	34	6.15933533333333	False	n/a	n/a	n/a	n/a
S210215	Conflict_Resolution	LEFT	LEFT	678.321500000038	1316.6666693	n/a	n/a	2021-02-15 13:55:33.912950	2021-02-15 13:55:34.800133	35	6.15933533333333	True	n/a	n/a	n/a	n/a
S210215	Conflict_Resolution	LEFT	LEFT	459.446800000023	616.6666679	n/a	n/a	2021-02-15 13:55:35.436014	2021-02-15 13:55:36.102478	36	6.15933533333333	False	n/a	n/a	n/a	n/a
S210215	Conflict_Resolution	LEFT	LEFT	396.194600000058	1050.0000021	n/a	n/a	2021-02-15 13:55:37.171363	2021-02-15 13:55:37.775300	37	6.15933533333333	False	n/a	n/a	n/a	n/a
S210215	Conflict_Resolution	RIGHT	RIGHT	527.352699999938	983.3333353	n/a	n/a	2021-02-15 13:55:38.776328	2021-02-15 13:55:39.510431	38	6.15933533333333	False	n/a	n/a	n/a	n/a
S210215	Conflict_Resolution	RIGHT	RIGHT	513.122299999964	1133.3333356	n/a	n/a	2021-02-15 13:55:40.662184	2021-02-15 13:55:41.384094	39	6.15933533333333	True	n/a	n/a	n/a	n/a
S210215	Conflict_Resolution	RIGHT	RIGHT	441.002700000013	1483.3333363	n/a	n/a	2021-02-15 13:55:42.886180	2021-02-15 13:55:43.534977	40	6.15933533333333	False	n/a	n/a	n/a	n/a
S210215	Conflict_Resolution	LEFT	LEFT	513.165500000014	733.3333348	n/a	n/a	2021-02-15 13:55:44.286721	2021-02-15 13:55:45.008071	41	6.15933533333333	False	n/a	n/a	n/a	n/a
S210215	Conflict_Resolution	RIGHT	RIGHT	481.159200000093	1283.3333359	n/a	n/a	2021-02-15 13:55:46.310086	2021-02-15 13:55:46.999719	42	6.15933533333333	True	n/a	n/a	n/a	n/a
S210215	Conflict_Resolution	LEFT	LEFT	465.001899999947	1116.6666689	n/a	n/a	2021-02-15 13:55:48.134359	2021-02-15 13:55:48.807762	43	6.15933533333333	False	n/a	n/a	n/a	n/a
S210215	Conflict_Resolution	RIGHT	RIGHT	476.761900000042	983.3333353	n/a	n/a	2021-02-15 13:55:49.810685	2021-02-15 13:55:50.496057	44	6.15933533333333	True	n/a	n/a	n/a	n/a
S210215	Conflict_Resolution	RIGHT	RIGHT	405.328499999996	800.0000016	n/a	n/a	2021-02-15 13:55:51.314254	2021-02-15 13:55:51.927804	45	6.15933533333333	False	n/a	n/a	n/a	n/a
S210215	Conflict_Resolution	LEFT	LEFT	476.595999999972	1016.6666687	n/a	n/a	2021-02-15 13:55:52.962853	2021-02-15 13:55:53.647997	46	6.15933533333333	True	n/a	n/a	n/a	n/a
S210215	Conflict_Resolution	RIGHT	RIGHT	423.386300000061	933.3333352	n/a	n/a	2021-02-15 13:55:54.600754	2021-02-15 13:55:55.232058	47	6.15933533333333	False	n/a	n/a	n/a	n/a
S210215	Conflict_Resolution	LEFT	LEFT	361.0367	1066.6666688	n/a	n/a	2021-02-15 13:55:56.318318	2021-02-15 13:55:56.888354	48	6.15933533333333	False	n/a	n/a	n/a	n/a
S210215	Conflict_Resolution	LEFT	LEFT	477.278500000011	1000.000002	n/a	n/a	2021-02-15 13:55:57.905906	2021-02-15 13:55:58.590970	49	6.15933533333333	True	n/a	n/a	n/a	n/a
S210215	Conflict_Resolution	RIGHT	RIGHT	773.16780000001	1000.000002	n/a	n/a	2021-02-15 13:55:59.610802	2021-02-15 13:56:00.591860	50	6.15933533333333	True	n/a	n/a	n/a	n/a
S210215	Conflict_Resolution	LEFT	LEFT	449.00610000002	683.3333347	n/a	n/a	2021-02-15 13:56:01.295028	2021-02-15 13:56:01.952321	51	6.15933533333333	True	n/a	n/a	n/a	n/a
S210215	Conflict_Resolution	RIGHT	RIGHT	421.988299999953	1133.3333356	n/a	n/a	2021-02-15 13:56:03.105672	2021-02-15 13:56:03.735844	52	6.15933533333333	False	n/a	n/a	n/a	n/a
S210215	Conflict_Resolution	RIGHT	RIGHT	991.346799999974	533.3333344	n/a	n/a	2021-02-15 13:56:04.288253	2021-02-15 13:56:05.489160	53	6.15933533333333	True	n/a	n/a	n/a	n/a
S210215	Conflict_Resolution	LEFT	LEFT	529.648699999939	850.0000017	n/a	n/a	2021-02-15 13:56:06.358593	2021-02-15 13:56:07.096068	54	6.15933533333333	True	n/a	n/a	n/a	n/a
S210215	Conflict_Resolution	RIGHT	RIGHT	562.766000000011	1483.3333363	n/a	n/a	2021-02-15 13:56:08.597099	2021-02-15 13:56:09.367403	55	6.15933533333333	True	n/a	n/a	n/a	n/a
S210215	Conflict_Resolution	LEFT	LEFT	520.68149999991	1116.6666689	n/a	n/a	2021-02-15 13:56:10.503339	2021-02-15 13:56:11.232163	56	6.15933533333333	True	n/a	n/a	n/a	n/a
S210215	Conflict_Resolution	RIGHT	RIGHT	443.252199999961	1433.3333362	n/a	n/a	2021-02-15 13:56:12.683919	2021-02-15 13:56:13.334809	57	6.15933533333333	False	n/a	n/a	n/a	n/a
S210215	Conflict_Resolution	RIGHT	LEFT	580.33910000006	633.3333346	n/a	n/a	2021-02-15 13:56:13.987066	2021-02-15 13:56:14.775933	58	6.15933533333333	True	n/a	n/a	n/a	n/a
S210215	Conflict_Resolution	LEFT	LEFT	532.716199999982	1400.0000028	n/a	n/a	2021-02-15 13:56:16.195378	2021-02-15 13:56:16.935993	59	6.15933533333333	False	n/a	n/a	n/a	n/a
S210215	Conflict_Resolution	RIGHT	RIGHT	477.232100000037	1383.3333361	n/a	n/a	2021-02-15 13:56:18.338661	2021-02-15 13:56:19.023838	60	6.15933533333333	True	n/a	n/a	n/a	n/a
S210215	Conflict_Resolution	LEFT	LEFT	529.758099999981	683.3333347	n/a	n/a	2021-02-15 13:56:19.725518	2021-02-15 13:56:20.462519	61	6.15933533333333	False	n/a	n/a	n/a	n/a
S210215	Conflict_Resolution	RIGHT	RIGHT	708.031899999924	1233.3333358	n/a	n/a	2021-02-15 13:56:21.715808	2021-02-15 13:56:22.630408	62	6.15933533333333	True	n/a	n/a	n/a	n/a
S210215	Conflict_Resolution	RIGHT	RIGHT	640.799000000015	1366.6666694	n/a	n/a	2021-02-15 13:56:24.014892	2021-02-15 13:56:24.863277	63	6.15933533333333	False	n/a	n/a	n/a	n/a
S210215	Conflict_Resolution	LEFT	LEFT	669.322100000045	633.3333346	n/a	n/a	2021-02-15 13:56:25.514668	2021-02-15 13:56:26.392137	64	6.15933533333333	True	n/a	n/a	n/a	n/a
S210215	Conflict_Resolution	RIGHT	RIGHT	630.808399999978	1150.0000023	n/a	n/a	2021-02-15 13:56:27.560606	2021-02-15 13:56:28.398807	65	6.15933533333333	True	n/a	n/a	n/a	n/a
S210215	Conflict_Resolution	RIGHT	RIGHT	507.867399999895	650.0000013	n/a	n/a	2021-02-15 13:56:29.068045	2021-02-15 13:56:29.782799	66	6.15933533333333	False	n/a	n/a	n/a	n/a
S210215	Conflict_Resolution	RIGHT	RIGHT	542.915600000015	583.3333345	n/a	n/a	2021-02-15 13:56:30.385189	2021-02-15 13:56:31.135612	67	6.15933533333333	True	n/a	n/a	n/a	n/a
S210215	Conflict_Resolution	LEFT	LEFT	473.648099999991	866.6666684	n/a	n/a	2021-02-15 13:56:32.022359	2021-02-15 13:56:32.704090	68	6.15933533333333	False	n/a	n/a	n/a	n/a
S210215	Conflict_Resolution	RIGHT	RIGHT	470.728400000098	783.3333349	n/a	n/a	2021-02-15 13:56:33.504544	2021-02-15 13:56:34.183395	69	6.15933533333333	False	n/a	n/a	n/a	n/a
S210215	Conflict_Resolution	LEFT	LEFT	628.682300000037	1216.6666691	n/a	n/a	2021-02-15 13:56:35.419191	2021-02-15 13:56:36.255529	70	6.15933533333333	True	n/a	n/a	n/a	n/a
S210215	Conflict_Resolution	LEFT	LEFT	496.90309999994	900.0000018	n/a	n/a	2021-02-15 13:56:37.175084	2021-02-15 13:56:37.880206	71	6.15933533333333	False	n/a	n/a	n/a	n/a
S210215	Conflict_Resolution	LEFT	LEFT	471.04980000006	916.6666685	n/a	n/a	2021-02-15 13:56:38.815824	2021-02-15 13:56:39.495198	72	6.15933533333333	False	n/a	n/a	n/a	n/a
S210215	Conflict_Resolution	RIGHT	RIGHT	547.278699999993	1433.3333362	n/a	n/a	2021-02-15 13:56:40.948488	2021-02-15 13:56:41.703463	73	6.15933533333333	True	n/a	n/a	n/a	n/a
S210215	Conflict_Resolution	LEFT	LEFT	469.816000000037	783.3333349	n/a	n/a	2021-02-15 13:56:42.505753	2021-02-15 13:56:43.183196	74	6.15933533333333	True	n/a	n/a	n/a	n/a
S210215	Conflict_Resolution	RIGHT	RIGHT	522.629700000039	1266.6666692	n/a	n/a	2021-02-15 13:56:44.468627	2021-02-15 13:56:45.199610	75	6.15933533333333	True	n/a	n/a	n/a	n/a
S210215	Conflict_Resolution	RIGHT	RIGHT	631.063700000027	1333.333336	n/a	n/a	2021-02-15 13:56:46.552587	2021-02-15 13:56:47.392017	76	6.15933533333333	False	n/a	n/a	n/a	n/a
S210215	Conflict_Resolution	LEFT	LEFT	532.01480000007	1400.0000028	n/a	n/a	2021-02-15 13:56:48.811822	2021-02-15 13:56:49.550789	77	6.15933533333333	True	n/a	n/a	n/a	n/a
S210215	Conflict_Resolution	RIGHT	RIGHT	469.713299999967	1366.6666694	n/a	n/a	2021-02-15 13:56:50.937402	2021-02-15 13:56:51.614584	78	6.15933533333333	True	n/a	n/a	n/a	n/a
S210215	Conflict_Resolution	RIGHT	RIGHT	499.838700000055	1050.0000021	n/a	n/a	2021-02-15 13:56:52.683981	2021-02-15 13:56:53.390659	79	6.15933533333333	True	n/a	n/a	n/a	n/a
S210215	Conflict_Resolution	LEFT	LEFT	468.151400000011	1250.0000025	n/a	n/a	2021-02-15 13:56:54.659241	2021-02-15 13:56:55.335446	80	6.15933533333333	True	n/a	n/a	n/a	n/a
S210215	Conflict_Resolution	RIGHT	RIGHT	537.090600000056	1466.6666696	n/a	n/a	2021-02-15 13:56:56.822816	2021-02-15 13:56:57.568333	81	6.15933533333333	True	n/a	n/a	n/a	n/a
S210215	Conflict_Resolution	RIGHT	RIGHT	473.807800000031	1233.3333358	n/a	n/a	2021-02-15 13:56:58.822137	2021-02-15 13:56:59.504267	82	6.15933533333333	False	n/a	n/a	n/a	n/a
S210215	Conflict_Resolution	RIGHT	RIGHT	508.822699999996	1183.3333357	n/a	n/a	2021-02-15 13:57:00.706356	2021-02-15 13:57:01.423015	83	6.15933533333333	True	n/a	n/a	n/a	n/a
S210215	Conflict_Resolution	RIGHT	RIGHT	442.367600000011	850.0000017	n/a	n/a	2021-02-15 13:57:02.293568	2021-02-15 13:57:02.943828	84	6.15933533333333	False	n/a	n/a	n/a	n/a
S210215	Conflict_Resolution	LEFT	LEFT	507.518000000005	1200.0000024	n/a	n/a	2021-02-15 13:57:04.163889	2021-02-15 13:57:04.879618	85	6.15933533333333	False	n/a	n/a	n/a	n/a
S210215	Conflict_Resolution	LEFT	LEFT	550.34240000009	966.6666686	n/a	n/a	2021-02-15 13:57:05.864677	2021-02-15 13:57:06.622683	86	6.15933533333333	True	n/a	n/a	n/a	n/a
S210215	Conflict_Resolution	LEFT	LEFT	568.497099999945	566.6666678	n/a	n/a	2021-02-15 13:57:07.207084	2021-02-15 13:57:07.982891	87	6.15933533333333	True	n/a	n/a	n/a	n/a
S210215	Conflict_Resolution	RIGHT	RIGHT	540.736299999935	600.0000012	n/a	n/a	2021-02-15 13:57:08.603089	2021-02-15 13:57:09.352163	88	6.15933533333333	True	n/a	n/a	n/a	n/a
S210215	Conflict_Resolution	LEFT	LEFT	535.247000000027	1350.0000027	n/a	n/a	2021-02-15 13:57:10.720301	2021-02-15 13:57:11.463877	89	6.15933533333333	False	n/a	n/a	n/a	n/a
S210215	Conflict_Resolution	LEFT	LEFT	465.313299999934	866.6666684	n/a	n/a	2021-02-15 13:57:12.350246	2021-02-15 13:57:13.023444	90	6.15933533333333	True	n/a	n/a	n/a	n/a
S210215	Conflict_Resolution	LEFT	LEFT	462.746700000025	950.0000019	n/a	n/a	2021-02-15 13:57:13.992591	2021-02-15 13:57:14.662806	91	6.15933533333333	True	n/a	n/a	n/a	n/a
S210215	Conflict_Resolution	LEFT	LEFT	376.76149999993	1166.666669	n/a	n/a	2021-02-15 13:57:15.846780	2021-02-15 13:57:16.432161	92	6.15933533333333	False	n/a	n/a	n/a	n/a
S210215	Conflict_Resolution	RIGHT	RIGHT	481.380300000069	883.3333351	n/a	n/a	2021-02-15 13:57:17.335369	2021-02-15 13:57:18.023528	93	6.15933533333333	False	n/a	n/a	n/a	n/a
S210215	Conflict_Resolution	LEFT	LEFT	549.1320000001	1416.6666695	n/a	n/a	2021-02-15 13:57:19.459412	2021-02-15 13:57:20.216386	94	6.15933533333333	True	n/a	n/a	n/a	n/a
S210215	Conflict_Resolution	RIGHT	RIGHT	563.699000000042	600.0000012	n/a	n/a	2021-02-15 13:57:20.836035	2021-02-15 13:57:21.608081	95	6.15933533333333	False	n/a	n/a	n/a	n/a
S210215	Conflict_Resolution	RIGHT	RIGHT	573.914999999943	500.000001	n/a	n/a	2021-02-15 13:57:22.129771	2021-02-15 13:57:22.911357	96	6.15933533333333	False	n/a	n/a	n/a	n/a
S210215	Conflict_Resolution	RIGHT	RIGHT	518.829399999959	950.0000019	n/a	n/a	2021-02-15 13:57:23.880883	2021-02-15 13:57:24.607479	97	6.15933533333333	True	n/a	n/a	n/a	n/a
S210215	Conflict_Resolution	LEFT	LEFT	562.293199999999	1466.6666696	n/a	n/a	2021-02-15 13:57:26.092800	2021-02-15 13:57:26.863545	98	6.15933533333333	True	n/a	n/a	n/a	n/a
S210215	Conflict_Resolution	RIGHT	RIGHT	693.202700000029	550.0000011	n/a	n/a	2021-02-15 13:57:27.434602	2021-02-15 13:57:28.335204	99	6.15933533333333	False	n/a	n/a	n/a	n/a
S210215	Conflict_Resolution	RIGHT	RIGHT	418.70670000003	700.0000014	n/a	n/a	2021-02-15 13:57:29.052790	2021-02-15 13:57:29.678604	100	6.15933533333333	False	n/a	n/a	n/a	n/a
S210215	Conflict_Resolution	RIGHT	RIGHT	571.497000000022	633.3333346	n/a	n/a	2021-02-15 13:57:30.331897	2021-02-15 13:57:31.111415	101	6.15933533333333	False	n/a	n/a	n/a	n/a
S210215	Conflict_Resolution	LEFT	LEFT	521.846600000003	533.3333344	n/a	n/a	2021-02-15 13:57:31.669422	2021-02-15 13:57:32.398547	102	6.15933533333333	True	n/a	n/a	n/a	n/a
S210215	Conflict_Resolution	RIGHT	RIGHT	552.435700000046	733.3333348	n/a	n/a	2021-02-15 13:57:33.151307	2021-02-15 13:57:33.911237	103	6.15933533333333	False	n/a	n/a	n/a	n/a
S210215	Conflict_Resolution	LEFT	LEFT	548.585399999979	666.666668	n/a	n/a	2021-02-15 13:57:34.594448	2021-02-15 13:57:35.351942	104	6.15933533333333	True	n/a	n/a	n/a	n/a
S210215	Conflict_Resolution	LEFT	LEFT	596.250199999986	616.6666679	n/a	n/a	2021-02-15 13:57:35.986744	2021-02-15 13:57:36.793322	105	6.15933533333333	True	n/a	n/a	n/a	n/a
S210215	Conflict_Resolution	RIGHT	RIGHT	528.857799999969	900.0000018	n/a	n/a	2021-02-15 13:57:37.710911	2021-02-15 13:57:38.447917	106	6.15933533333333	True	n/a	n/a	n/a	n/a
S210215	Conflict_Resolution	LEFT	LEFT	501.053400000046	1200.0000024	n/a	n/a	2021-02-15 13:57:39.666137	2021-02-15 13:57:40.374742	107	6.15933533333333	True	n/a	n/a	n/a	n/a
S210215	Conflict_Resolution	RIGHT	RIGHT	431.374399999982	950.0000019	n/a	n/a	2021-02-15 13:57:41.343979	2021-02-15 13:57:41.983471	108	6.15933533333333	False	n/a	n/a	n/a	n/a
S210215	Conflict_Resolution	RIGHT	RIGHT	395.326300000079	833.333335	n/a	n/a	2021-02-15 13:57:42.835865	2021-02-15 13:57:43.439959	109	6.15933533333333	False	n/a	n/a	n/a	n/a
S210215	Conflict_Resolution	RIGHT	RIGHT	427.570100000025	1033.3333354	n/a	n/a	2021-02-15 13:57:44.491652	2021-02-15 13:57:45.130246	110	6.15933533333333	False	n/a	n/a	n/a	n/a
S210215	Conflict_Resolution	LEFT	LEFT	489.468600000009	816.6666683	n/a	n/a	2021-02-15 13:57:45.965624	2021-02-15 13:57:46.663643	111	6.15933533333333	True	n/a	n/a	n/a	n/a
S210215	Conflict_Resolution	LEFT	LEFT	377.349600000002	1100.0000022	n/a	n/a	2021-02-15 13:57:47.781515	2021-02-15 13:57:48.368204	112	6.15933533333333	False	n/a	n/a	n/a	n/a
S210215	Conflict_Resolution	RIGHT	RIGHT	467.780199999993	1416.6666695	n/a	n/a	2021-02-15 13:57:49.804158	2021-02-15 13:57:50.480023	113	6.15933533333333	False	n/a	n/a	n/a	n/a
S210215	Conflict_Resolution	RIGHT	RIGHT	550.986699999953	1316.6666693	n/a	n/a	2021-02-15 13:57:51.816449	2021-02-15 13:57:52.575921	114	6.15933533333333	True	n/a	n/a	n/a	n/a
S210215	Conflict_Resolution	RIGHT	RIGHT	542.667800000004	1333.333336	n/a	n/a	2021-02-15 13:57:53.928740	2021-02-15 13:57:54.679018	115	6.15933533333333	True	n/a	n/a	n/a	n/a
S210215	Conflict_Resolution	LEFT	LEFT	442.707799999994	1466.6666696	n/a	n/a	2021-02-15 13:57:56.164743	2021-02-15 13:57:56.814454	116	6.15933533333333	False	n/a	n/a	n/a	n/a
S210215	Conflict_Resolution	LEFT	LEFT	470.668200000091	1150.0000023	n/a	n/a	2021-02-15 13:57:57.984885	2021-02-15 13:57:58.663673	117	6.15933533333333	True	n/a	n/a	n/a	n/a
S210215	Conflict_Resolution	RIGHT	RIGHT	424.416299999962	900.0000018	n/a	n/a	2021-02-15 13:57:59.583364	2021-02-15 13:58:00.217483	118	6.15933533333333	False	n/a	n/a	n/a	n/a
S210215	Conflict_Resolution	RIGHT	RIGHT	389.387300000067	750.0000015	n/a	n/a	2021-02-15 13:58:00.985939	2021-02-15 13:58:01.582575	119	6.15933533333333	False	n/a	n/a	n/a	n/a
S210215	Conflict_Resolution	LEFT	LEFT	465.384099999937	716.6666681	n/a	n/a	2021-02-15 13:58:02.317683	2021-02-15 13:58:02.991023	120	6.15933533333333	False	n/a	n/a	n/a	n/a
S210215	Conflict_Resolution	LEFT	LEFT	497.837300000015	900.0000018	n/a	n/a	2021-02-15 13:58:03.909195	2021-02-15 13:58:04.615440	121	6.15933533333333	True	n/a	n/a	n/a	n/a
S210215	Conflict_Resolution	LEFT	LEFT	377.788499999951	1500.000003	n/a	n/a	2021-02-15 13:58:06.133077	2021-02-15 13:58:06.718412	122	6.15933533333333	False	n/a	n/a	n/a	n/a
S210215	Conflict_Resolution	RIGHT	RIGHT	801.922700000091	500.000001	n/a	n/a	2021-02-15 13:58:07.237061	2021-02-15 13:58:08.247499	123	6.15933533333333	True	n/a	n/a	n/a	n/a
S210215	Conflict_Resolution	RIGHT	RIGHT	443.941300000006	1183.3333357	n/a	n/a	2021-02-15 13:58:09.451802	2021-02-15 13:58:10.103563	124	6.15933533333333	False	n/a	n/a	n/a	n/a
S210215	Conflict_Resolution	RIGHT	RIGHT	481.530700000008	1216.6666691	n/a	n/a	2021-02-15 13:58:11.342194	2021-02-15 13:58:12.030421	125	6.15933533333333	True	n/a	n/a	n/a	n/a
S210215	Conflict_Resolution	LEFT	LEFT	430.153300000029	783.3333349	n/a	n/a	2021-02-15 13:58:12.833242	2021-02-15 13:58:13.470955	126	6.15933533333333	False	n/a	n/a	n/a	n/a
S210215	Conflict_Resolution	RIGHT	RIGHT	508.115799999928	650.0000013	n/a	n/a	2021-02-15 13:58:14.139808	2021-02-15 13:58:14.855593	127	6.15933533333333	True	n/a	n/a	n/a	n/a
S210215	Conflict_Resolution	RIGHT	RIGHT	475.814499999956	1466.6666696	n/a	n/a	2021-02-15 13:58:16.339955	2021-02-15 13:58:17.024197	128	6.15933533333333	False	n/a	n/a	n/a	n/a
S210215	Conflict_Resolution	RIGHT	RIGHT	519.978200000082	1283.3333359	n/a	n/a	2021-02-15 13:58:18.327244	2021-02-15 13:58:19.056293	129	6.15933533333333	False	n/a	n/a	n/a	n/a
S210215	Conflict_Resolution	LEFT	LEFT	537.317899999948	666.666668	n/a	n/a	2021-02-15 13:58:19.741778	2021-02-15 13:58:20.487406	130	6.15933533333333	False	n/a	n/a	n/a	n/a
S210215	Conflict_Resolution	RIGHT	RIGHT	370.29050000001	1266.6666692	n/a	n/a	2021-02-15 13:58:21.773478	2021-02-15 13:58:22.352308	131	6.15933533333333	False	n/a	n/a	n/a	n/a
S210215	Conflict_Resolution	LEFT	LEFT	670.492299999978	1100.0000022	n/a	n/a	2021-02-15 13:58:23.473366	2021-02-15 13:58:24.353222	132	6.15933533333333	True	n/a	n/a	n/a	n/a
S210215	Conflict_Resolution	LEFT	LEFT	410.419100000013	816.6666683	n/a	n/a	2021-02-15 13:58:25.189178	2021-02-15 13:58:25.807291	133	6.15933533333333	False	n/a	n/a	n/a	n/a
S210215	Conflict_Resolution	RIGHT	RIGHT	482.968000000028	850.0000017	n/a	n/a	2021-02-15 13:58:26.676658	2021-02-15 13:58:27.368280	134	6.15933533333333	True	n/a	n/a	n/a	n/a
S210215	Conflict_Resolution	LEFT	LEFT	520.056899999986	1500.000003	n/a	n/a	2021-02-15 13:58:28.887752	2021-02-15 13:58:29.614764	135	6.15933533333333	True	n/a	n/a	n/a	n/a
S210215	Conflict_Resolution	RIGHT	RIGHT	601.643200000012	683.3333347	n/a	n/a	2021-02-15 13:58:30.317802	2021-02-15 13:58:31.127114	136	6.15933533333333	False	n/a	n/a	n/a	n/a
S210215	Conflict_Resolution	RIGHT	RIGHT	403.669499999978	1050.0000021	n/a	n/a	2021-02-15 13:58:32.196240	2021-02-15 13:58:32.807331	137	6.15933533333333	False	n/a	n/a	n/a	n/a
S210215	Conflict_Resolution	LEFT	LEFT	418.310600000041	1266.6666692	n/a	n/a	2021-02-15 13:58:34.093366	2021-02-15 13:58:34.719004	138	6.15933533333333	False	n/a	n/a	n/a	n/a
S210215	Conflict_Resolution	LEFT	LEFT	528.251800000135	766.6666682	n/a	n/a	2021-02-15 13:58:35.503098	2021-02-15 13:58:36.239085	139	6.15933533333333	False	n/a	n/a	n/a	n/a
S210215	Conflict_Resolution	RIGHT	RIGHT	524.343599999838	800.0000016	n/a	n/a	2021-02-15 13:58:37.059438	2021-02-15 13:58:37.790482	140	6.15933533333333	True	n/a	n/a	n/a	n/a
S210215	Conflict_Resolution	RIGHT	RIGHT	745.972700000038	1100.0000022	n/a	n/a	2021-02-15 13:58:38.909652	2021-02-15 13:58:39.862379	141	6.15933533333333	True	n/a	n/a	n/a	n/a
S210215	Conflict_Resolution	RIGHT	RIGHT	521.1276	550.0000011	n/a	n/a	2021-02-15 13:58:40.430407	2021-02-15 13:58:41.158458	142	6.15933533333333	True	n/a	n/a	n/a	n/a
S210215	Conflict_Resolution	LEFT	LEFT	585.7539000001	1300.0000026	n/a	n/a	2021-02-15 13:58:42.477556	2021-02-15 13:58:43.272267	143	6.15933533333333	False	n/a	n/a	n/a	n/a
S210215	Conflict_Resolution	RIGHT	RIGHT	505.711000000019	1416.6666695	n/a	n/a	2021-02-15 13:58:44.709679	2021-02-15 13:58:45.422626	144	6.15933533333333	True	n/a	n/a	n/a	n/a
S210215	Conflict_Resolution	LEFT	LEFT	451.246300000093	850.0000017	n/a	n/a	2021-02-15 13:58:46.291971	2021-02-15 13:58:46.951601	145	6.15933533333333	False	n/a	n/a	n/a	n/a
S210215	Conflict_Resolution	LEFT	LEFT	716.822699999966	583.3333345	n/a	n/a	2021-02-15 13:58:47.554644	2021-02-15 13:58:48.478402	146	6.15933533333333	True	n/a	n/a	n/a	n/a
S210215	Conflict_Resolution	LEFT	LEFT	445.19060000016	1016.6666687	n/a	n/a	2021-02-15 13:58:49.514597	2021-02-15 13:58:50.167509	147	6.15933533333333	False	n/a	n/a	n/a	n/a
S210215	Conflict_Resolution	RIGHT	RIGHT	479.364400000122	933.3333352	n/a	n/a	2021-02-15 13:58:51.120021	2021-02-15 13:58:51.806487	148	6.15933533333333	True	n/a	n/a	n/a	n/a
S210215	Conflict_Resolution	LEFT	LEFT	460.856800000101	633.3333346	n/a	n/a	2021-02-15 13:58:52.458333	2021-02-15 13:58:53.128055	149	6.15933533333333	False	n/a	n/a	n/a	n/a
S210215	Conflict_Resolution	RIGHT	RIGHT	449.228799999901	1216.6666691	n/a	n/a	2021-02-15 13:58:54.366129	2021-02-15 13:58:55.023839	150	6.15933533333333	False	n/a	n/a	n/a	n/a
S210215	Conflict_Resolution	LEFT	LEFT	461.8246	566.6666678	n/a	n/a	2021-02-15 13:58:55.609776	2021-02-15 13:58:56.278960	151	6.15933533333333	False	n/a	n/a	n/a	n/a
S210215	Conflict_Resolution	LEFT	LEFT	475.500700000111	1050.0000021	n/a	n/a	2021-02-15 13:58:57.347361	2021-02-15 13:58:58.031900	152	6.15933533333333	True	n/a	n/a	n/a	n/a
S210215	Conflict_Resolution	LEFT	LEFT	417.720500000087	1066.6666688	n/a	n/a	2021-02-15 13:58:59.118041	2021-02-15 13:58:59.742930	153	6.15933533333333	True	n/a	n/a	n/a	n/a
S210215	Conflict_Resolution	LEFT	LEFT	521.444499999916	516.6666677	n/a	n/a	2021-02-15 13:59:00.278018	2021-02-15 13:59:01.007814	154	6.15933533333333	False	n/a	n/a	n/a	n/a
S210215	Conflict_Resolution	RIGHT	RIGHT	397.341900000129	1000.000002	n/a	n/a	2021-02-15 13:59:02.026236	2021-02-15 13:59:02.630618	155	6.15933533333333	False	n/a	n/a	n/a	n/a
S210215	Conflict_Resolution	LEFT	LEFT	499.025999999958	1266.6666692	n/a	n/a	2021-02-15 13:59:03.915955	2021-02-15 13:59:04.623154	156	6.15933533333333	True	n/a	n/a	n/a	n/a
S210215	Conflict_Resolution	LEFT	LEFT	450.381500000049	1300.0000026	n/a	n/a	2021-02-15 13:59:05.940358	2021-02-15 13:59:06.601619	157	6.15933533333333	True	n/a	n/a	n/a	n/a
S210215	Conflict_Resolution	LEFT	LEFT	382.220000000189	1316.6666693	n/a	n/a	2021-02-15 13:59:07.937655	2021-02-15 13:59:08.527466	158	6.15933533333333	False	n/a	n/a	n/a	n/a
S210215	Conflict_Resolution	RIGHT	RIGHT	607.564700000012	733.3333348	n/a	n/a	2021-02-15 13:59:09.280004	2021-02-15 13:59:10.094784	159	6.15933533333333	True	n/a	n/a	n/a	n/a
S210215	Conflict_Resolution	LEFT	LEFT	427.399599999944	1216.6666691	n/a	n/a	2021-02-15 13:59:11.332018	2021-02-15 13:59:11.966617	160	6.15933533333333	False	n/a	n/a	n/a	n/a
