"Participant"	"Task"	"Stimulus_Side"	"Response"	"RT"	"ITI"	"Previous_Response"	"Previous_RT"	"Stop_Signal"	"Stop_Signal_RT"	"Conflict"	"Cue_Response"	"Cue_Response_RT"	"Trial_Onset"	"Trial_End"	"Trial_Order"	"Duration"
"S200313"	"Conflict_Resolution"	"RIGHT"	"Time_Max_Exceeded"	1500.09509999995	533.3333344	""	n/a	n/a	n/a	"True"	n/a	n/a	"2020-03-13 13:18:50.338213"	"2020-03-13 13:18:51.839127"	1	5.93489215
"S200313"	"Conflict_Resolution"	"RIGHT"	"RIGHT"	514.322700000093	950.0000019	"RIGHT"	-856.928	n/a	n/a	"True"	n/a	n/a	"2020-03-13 13:18:52.806721"	"2020-03-13 13:18:53.529311"	2	5.93489215
"S200313"	"Conflict_Resolution"	"LEFT"	"LEFT"	566.127600000073	533.3333344	""	n/a	n/a	n/a	"True"	n/a	n/a	"2020-03-13 13:18:54.082406"	"2020-03-13 13:18:54.856353"	3	5.93489215
"S200313"	"Conflict_Resolution"	"RIGHT"	"LEFT"	348.811699999942	1216.6666691	""	n/a	n/a	n/a	"True"	n/a	n/a	"2020-03-13 13:18:56.092090"	"2020-03-13 13:18:56.648078"	4	5.93489215
"S200313"	"Conflict_Resolution"	"RIGHT"	"RIGHT"	430.682999999931	1150.0000023	""	n/a	n/a	n/a	"True"	n/a	n/a	"2020-03-13 13:18:57.818155"	"2020-03-13 13:18:58.457503"	5	5.93489215
"S200313"	"Conflict_Resolution"	"RIGHT"	"RIGHT"	327.482000000032	700.0000014	""	n/a	n/a	n/a	"False"	n/a	n/a	"2020-03-13 13:18:59.176900"	"2020-03-13 13:18:59.712206"	6	5.93489215
"S200313"	"Conflict_Resolution"	"LEFT"	"LEFT"	387.041400000044	900.0000018	""	n/a	n/a	n/a	"False"	n/a	n/a	"2020-03-13 13:19:00.630139"	"2020-03-13 13:19:01.226174"	7	5.93489215
"S200313"	"Conflict_Resolution"	"RIGHT"	"RIGHT"	373.982100000035	1133.3333356	""	n/a	n/a	n/a	"False"	n/a	n/a	"2020-03-13 13:19:02.378487"	"2020-03-13 13:19:02.961569"	8	5.93489215
"S200313"	"Conflict_Resolution"	"RIGHT"	"RIGHT"	438.09490000001	983.3333353	""	n/a	n/a	n/a	"False"	n/a	n/a	"2020-03-13 13:19:03.962937"	"2020-03-13 13:19:04.608182"	9	5.93489215
"S200313"	"Conflict_Resolution"	"LEFT"	"LEFT"	357.709499999942	633.3333346	""	n/a	n/a	n/a	"False"	n/a	n/a	"2020-03-13 13:19:05.259429"	"2020-03-13 13:19:05.824974"	10	5.93489215
"S200313"	"Conflict_Resolution"	"RIGHT"	"RIGHT"	332.428199999981	833.333335	""	n/a	n/a	n/a	"False"	n/a	n/a	"2020-03-13 13:19:06.676133"	"2020-03-13 13:19:07.217696"	11	5.93489215
"S200313"	"Conflict_Resolution"	"LEFT"	"LEFT"	415.692300000046	1466.6666696	""	n/a	n/a	n/a	"True"	n/a	n/a	"2020-03-13 13:19:08.705433"	"2020-03-13 13:19:09.328455"	12	5.93489215
"S200313"	"Conflict_Resolution"	"LEFT"	"LEFT"	440.260299999977	916.6666685	""	n/a	n/a	n/a	"True"	n/a	n/a	"2020-03-13 13:19:10.264261"	"2020-03-13 13:19:10.912326"	13	5.93489215
"S200313"	"Conflict_Resolution"	"RIGHT"	"LEFT"	368.544300000053	1466.6666696	""	n/a	n/a	n/a	"True"	n/a	n/a	"2020-03-13 13:19:12.400059"	"2020-03-13 13:19:12.976090"	14	5.93489215
"S200313"	"Conflict_Resolution"	"RIGHT"	"RIGHT"	360.755100000006	1316.6666693	""	n/a	n/a	n/a	"False"	n/a	n/a	"2020-03-13 13:19:14.311902"	"2020-03-13 13:19:14.881106"	15	5.93489215
"S200313"	"Conflict_Resolution"	"RIGHT"	"LEFT"	431.801300000075	550.0000011	""	n/a	n/a	n/a	"True"	n/a	n/a	"2020-03-13 13:19:15.448341"	"2020-03-13 13:19:16.089636"	16	5.93489215
"S200313"	"Conflict_Resolution"	"RIGHT"	"RIGHT"	408.576299999936	1283.3333359	""	n/a	n/a	n/a	"False"	n/a	n/a	"2020-03-13 13:19:17.392141"	"2020-03-13 13:19:18.009290"	17	5.93489215
"S200313"	"Conflict_Resolution"	"LEFT"	"LEFT"	1123.57529999997	816.6666683	""	n/a	n/a	n/a	"True"	n/a	n/a	"2020-03-13 13:19:18.845052"	"2020-03-13 13:19:20.175957"	18	5.93489215
"S200313"	"Conflict_Resolution"	"RIGHT"	"RIGHT"	519.978500000093	983.3333353	""	n/a	n/a	n/a	"True"	n/a	n/a	"2020-03-13 13:19:21.176504"	"2020-03-13 13:19:21.904647"	19	5.93489215
"S200313"	"Conflict_Resolution"	"LEFT"	"LEFT"	321.03589999997	683.3333347	""	n/a	n/a	n/a	"False"	n/a	n/a	"2020-03-13 13:19:22.608290"	"2020-03-13 13:19:23.136836"	20	5.93489215
"S200313"	"Conflict_Resolution"	"LEFT"	"LEFT"	670.490699999959	1350.0000027	""	n/a	n/a	n/a	"True"	n/a	n/a	"2020-03-13 13:19:24.506481"	"2020-03-13 13:19:25.385234"	21	5.93489215
"S200313"	"Conflict_Resolution"	"RIGHT"	"RIGHT"	380.400900000041	600.0000012	""	n/a	n/a	n/a	"False"	n/a	n/a	"2020-03-13 13:19:26.003945"	"2020-03-13 13:19:26.593446"	22	5.93489215
"S200313"	"Conflict_Resolution"	"RIGHT"	"RIGHT"	496.568400000001	683.3333347	""	n/a	n/a	n/a	"True"	n/a	n/a	"2020-03-13 13:19:27.295839"	"2020-03-13 13:19:27.999776"	23	5.93489215
"S200313"	"Conflict_Resolution"	"RIGHT"	"RIGHT"	538.467999999966	1283.3333359	""	n/a	n/a	n/a	"True"	n/a	n/a	"2020-03-13 13:19:29.302716"	"2020-03-13 13:19:30.049180"	24	5.93489215
"S200313"	"Conflict_Resolution"	"RIGHT"	"RIGHT"	408.380799999918	933.3333352	""	n/a	n/a	n/a	"True"	n/a	n/a	"2020-03-13 13:19:31.000845"	"2020-03-13 13:19:31.617729"	25	5.93489215
"S200313"	"Conflict_Resolution"	"LEFT"	"LEFT"	445.009599999935	566.6666678	""	n/a	n/a	n/a	"True"	n/a	n/a	"2020-03-13 13:19:32.203760"	"2020-03-13 13:19:32.857412"	26	5.93489215
"S200313"	"Conflict_Resolution"	"RIGHT"	"RIGHT"	353.503400000022	1233.3333358	""	n/a	n/a	n/a	"False"	n/a	n/a	"2020-03-13 13:19:34.111383"	"2020-03-13 13:19:34.673592"	27	5.93489215
"S200313"	"Conflict_Resolution"	"LEFT"	"LEFT"	412.94640000001	733.3333348	""	n/a	n/a	n/a	"False"	n/a	n/a	"2020-03-13 13:19:35.428375"	"2020-03-13 13:19:36.048735"	28	5.93489215
"S200313"	"Conflict_Resolution"	"LEFT"	"LEFT"	376.095500000019	1116.6666689	""	n/a	n/a	n/a	"False"	n/a	n/a	"2020-03-13 13:19:37.184250"	"2020-03-13 13:19:37.767993"	29	5.93489215
"S200313"	"Conflict_Resolution"	"LEFT"	"LEFT"	343.946299999971	1350.0000027	""	n/a	n/a	n/a	"False"	n/a	n/a	"2020-03-13 13:19:39.136549"	"2020-03-13 13:19:39.689359"	30	5.93489215
"S200313"	"Conflict_Resolution"	"LEFT"	"LEFT"	516.969100000097	1416.6666695	""	n/a	n/a	n/a	"True"	n/a	n/a	"2020-03-13 13:19:41.123780"	"2020-03-13 13:19:41.849478"	31	5.93489215
"S200313"	"Conflict_Resolution"	"RIGHT"	"RIGHT"	426.382900000021	1433.3333362	""	n/a	n/a	n/a	"True"	n/a	n/a	"2020-03-13 13:19:43.302080"	"2020-03-13 13:19:43.936996"	32	5.93489215
"S200313"	"Conflict_Resolution"	"LEFT"	"LEFT"	578.803199999925	683.3333347	""	n/a	n/a	n/a	"True"	n/a	n/a	"2020-03-13 13:19:44.637836"	"2020-03-13 13:19:45.423854"	33	5.93489215
"S200313"	"Conflict_Resolution"	"RIGHT"	"RIGHT"	348.471000000018	633.3333346	""	n/a	n/a	n/a	"False"	n/a	n/a	"2020-03-13 13:19:46.076388"	"2020-03-13 13:19:46.632974"	34	5.93489215
"S200313"	"Conflict_Resolution"	"LEFT"	"LEFT"	338.480799999957	1100.0000022	""	n/a	n/a	n/a	"False"	n/a	n/a	"2020-03-13 13:19:47.750647"	"2020-03-13 13:19:48.298084"	35	5.93489215
"S200313"	"Conflict_Resolution"	"RIGHT"	"RIGHT"	367.38610000009	1100.0000022	""	n/a	n/a	n/a	"False"	n/a	n/a	"2020-03-13 13:19:49.417047"	"2020-03-13 13:19:49.992886"	36	5.93489215
"S200313"	"Conflict_Resolution"	"RIGHT"	"RIGHT"	401.838200000043	1050.0000021	""	n/a	n/a	n/a	"False"	n/a	n/a	"2020-03-13 13:19:51.062692"	"2020-03-13 13:19:51.673471"	37	5.93489215
"S200313"	"Conflict_Resolution"	"LEFT"	"LEFT"	454.472399999986	1116.6666689	""	n/a	n/a	n/a	"True"	n/a	n/a	"2020-03-13 13:19:52.809615"	"2020-03-13 13:19:53.472452"	38	5.93489215
"S200313"	"Conflict_Resolution"	"RIGHT"	"RIGHT"	341.832299999965	1150.0000023	""	n/a	n/a	n/a	"False"	n/a	n/a	"2020-03-13 13:19:54.642407"	"2020-03-13 13:19:55.192317"	39	5.93489215
"S200313"	"Conflict_Resolution"	"RIGHT"	"RIGHT"	456.34240000004	750.0000015	""	n/a	n/a	n/a	"False"	n/a	n/a	"2020-03-13 13:19:55.960724"	"2020-03-13 13:19:56.624689"	40	5.93489215
"S200313"	"Conflict_Resolution"	"LEFT"	"LEFT"	452.371999999968	1450.0000029	""	n/a	n/a	n/a	"True"	n/a	n/a	"2020-03-13 13:19:58.092433"	"2020-03-13 13:19:58.754357"	41	5.93489215
"S200313"	"Conflict_Resolution"	"RIGHT"	"RIGHT"	377.019700000005	1083.3333355	""	n/a	n/a	n/a	"False"	n/a	n/a	"2020-03-13 13:19:59.855285"	"2020-03-13 13:20:00.440223"	42	5.93489215
"S200313"	"Conflict_Resolution"	"RIGHT"	"RIGHT"	503.639900000053	1333.333336	""	n/a	n/a	n/a	"False"	n/a	n/a	"2020-03-13 13:20:01.793284"	"2020-03-13 13:20:02.503723"	43	5.93489215
"S200313"	"Conflict_Resolution"	"LEFT"	"LEFT"	383.106800000064	766.6666682	""	n/a	n/a	n/a	"True"	n/a	n/a	"2020-03-13 13:20:03.289839"	"2020-03-13 13:20:03.881046"	44	5.93489215
"S200313"	"Conflict_Resolution"	"RIGHT"	"RIGHT"	328.953700000056	883.3333351	""	n/a	n/a	n/a	"False"	n/a	n/a	"2020-03-13 13:20:04.783977"	"2020-03-13 13:20:05.320741"	45	5.93489215
"S200313"	"Conflict_Resolution"	"RIGHT"	"RIGHT"	399.126700000011	733.3333348	""	n/a	n/a	n/a	"False"	n/a	n/a	"2020-03-13 13:20:06.073803"	"2020-03-13 13:20:06.681375"	46	5.93489215
"S200313"	"Conflict_Resolution"	"LEFT"	"LEFT"	376.473400000009	733.3333348	""	n/a	n/a	n/a	"True"	n/a	n/a	"2020-03-13 13:20:07.431984"	"2020-03-13 13:20:08.016172"	47	5.93489215
"S200313"	"Conflict_Resolution"	"LEFT"	"LEFT"	458.860099999924	1250.0000025	""	n/a	n/a	n/a	"True"	n/a	n/a	"2020-03-13 13:20:09.285717"	"2020-03-13 13:20:09.952557"	48	5.93489215
"S200313"	"Conflict_Resolution"	"LEFT"	"LEFT"	498.490500000003	1066.6666688	""	n/a	n/a	n/a	"True"	n/a	n/a	"2020-03-13 13:20:11.038259"	"2020-03-13 13:20:11.744995"	49	5.93489215
"S200313"	"Conflict_Resolution"	"LEFT"	"LEFT"	422.392500000001	1366.6666694	""	n/a	n/a	n/a	"True"	n/a	n/a	"2020-03-13 13:20:13.130720"	"2020-03-13 13:20:13.761547"	50	5.93489215
"S200313"	"Conflict_Resolution"	"RIGHT"	"RIGHT"	526.607200000058	1133.3333356	""	n/a	n/a	n/a	"True"	n/a	n/a	"2020-03-13 13:20:14.914005"	"2020-03-13 13:20:15.648861"	51	5.93489215
"S200313"	"Conflict_Resolution"	"LEFT"	"LEFT"	395.249300000046	616.6666679	""	n/a	n/a	n/a	"True"	n/a	n/a	"2020-03-13 13:20:16.286009"	"2020-03-13 13:20:16.889416"	52	5.93489215
"S200313"	"Conflict_Resolution"	"LEFT"	"LEFT"	452.150500000016	633.3333346	""	n/a	n/a	n/a	"True"	n/a	n/a	"2020-03-13 13:20:17.539992"	"2020-03-13 13:20:18.201007"	53	5.93489215
"S200313"	"Conflict_Resolution"	"RIGHT"	"RIGHT"	527.504299999919	1333.333336	""	n/a	n/a	n/a	"True"	n/a	n/a	"2020-03-13 13:20:19.553147"	"2020-03-13 13:20:20.289270"	54	5.93489215
"S200313"	"Conflict_Resolution"	"RIGHT"	"RIGHT"	412.742699999967	800.0000016	""	n/a	n/a	n/a	"False"	n/a	n/a	"2020-03-13 13:20:21.107614"	"2020-03-13 13:20:21.729685"	55	5.93489215
"S200313"	"Conflict_Resolution"	"LEFT"	"LEFT"	329.397500000027	850.0000017	""	n/a	n/a	n/a	"False"	n/a	n/a	"2020-03-13 13:20:22.599027"	"2020-03-13 13:20:23.135930"	56	5.93489215
"S200313"	"Conflict_Resolution"	"RIGHT"	"RIGHT"	417.316099999994	1316.6666693	""	n/a	n/a	n/a	"True"	n/a	n/a	"2020-03-13 13:20:24.471924"	"2020-03-13 13:20:25.097427"	57	5.93489215
"S200313"	"Conflict_Resolution"	"LEFT"	"LEFT"	395.363599999996	1050.0000021	""	n/a	n/a	n/a	"False"	n/a	n/a	"2020-03-13 13:20:26.165646"	"2020-03-13 13:20:26.769442"	58	5.93489215
"S200313"	"Conflict_Resolution"	"RIGHT"	"RIGHT"	477.714699999979	1366.6666694	""	n/a	n/a	n/a	"False"	n/a	n/a	"2020-03-13 13:20:28.154739"	"2020-03-13 13:20:28.840912"	59	5.93489215
"S200313"	"Conflict_Resolution"	"RIGHT"	"RIGHT"	375.169000000028	550.0000011	""	n/a	n/a	n/a	"False"	n/a	n/a	"2020-03-13 13:20:29.409848"	"2020-03-13 13:20:29.994669"	60	5.93489215
"S200313"	"Conflict_Resolution"	"RIGHT"	"LEFT"	329.225599999972	850.0000017	""	n/a	n/a	n/a	"True"	n/a	n/a	"2020-03-13 13:20:30.863400"	"2020-03-13 13:20:31.400226"	61	5.93489215
"S200313"	"Conflict_Resolution"	"LEFT"	"LEFT"	369.553699999983	1066.6666688	""	n/a	n/a	n/a	"False"	n/a	n/a	"2020-03-13 13:20:32.487024"	"2020-03-13 13:20:33.064655"	62	5.93489215
"S200313"	"Conflict_Resolution"	"LEFT"	"LEFT"	438.114700000028	950.0000019	""	n/a	n/a	n/a	"True"	n/a	n/a	"2020-03-13 13:20:34.034819"	"2020-03-13 13:20:34.679884"	63	5.93489215
"S200313"	"Conflict_Resolution"	"LEFT"	"LEFT"	343.342600000028	766.6666682	""	n/a	n/a	n/a	"False"	n/a	n/a	"2020-03-13 13:20:35.465758"	"2020-03-13 13:20:36.016996"	64	5.93489215
"S200313"	"Conflict_Resolution"	"LEFT"	"LEFT"	372.435999999993	1250.0000025	""	n/a	n/a	n/a	"False"	n/a	n/a	"2020-03-13 13:20:37.285007"	"2020-03-13 13:20:37.866501"	65	5.93489215
"S200313"	"Conflict_Resolution"	"LEFT"	"LEFT"	375.903999999991	1500.000003	""	n/a	n/a	n/a	"False"	n/a	n/a	"2020-03-13 13:20:39.384840"	"2020-03-13 13:20:39.968415"	66	5.93489215
"S200313"	"Conflict_Resolution"	"RIGHT"	"RIGHT"	483.3529	850.0000017	""	n/a	n/a	n/a	"False"	n/a	n/a	"2020-03-13 13:20:40.837224"	"2020-03-13 13:20:41.527962"	67	5.93489215
"S200313"	"Conflict_Resolution"	"RIGHT"	"RIGHT"	411.128000000076	1033.3333354	""	n/a	n/a	n/a	"True"	n/a	n/a	"2020-03-13 13:20:42.581283"	"2020-03-13 13:20:43.200254"	68	5.93489215
"S200313"	"Conflict_Resolution"	"RIGHT"	"RIGHT"	477.645300000063	600.0000012	""	n/a	n/a	n/a	"True"	n/a	n/a	"2020-03-13 13:20:43.818811"	"2020-03-13 13:20:44.505186"	69	5.93489215
"S200313"	"Conflict_Resolution"	"RIGHT"	"RIGHT"	352.06340000002	900.0000018	""	n/a	n/a	n/a	"False"	n/a	n/a	"2020-03-13 13:20:45.424531"	"2020-03-13 13:20:45.985113"	70	5.93489215
"S200313"	"Conflict_Resolution"	"LEFT"	"LEFT"	446.830500000033	533.3333344	""	n/a	n/a	n/a	"False"	n/a	n/a	"2020-03-13 13:20:46.537615"	"2020-03-13 13:20:47.192668"	71	5.93489215
"S200313"	"Conflict_Resolution"	"RIGHT"	"RIGHT"	354.153899999915	683.3333347	""	n/a	n/a	n/a	"False"	n/a	n/a	"2020-03-13 13:20:47.894938"	"2020-03-13 13:20:48.457100"	72	5.93489215
"S200313"	"Conflict_Resolution"	"LEFT"	"LEFT"	764.597700000081	1016.6666687	""	n/a	n/a	n/a	"False"	n/a	n/a	"2020-03-13 13:20:49.492525"	"2020-03-13 13:20:50.464861"	73	5.93489215
"S200313"	"Conflict_Resolution"	"RIGHT"	"RIGHT"	361.498900000015	1266.6666692	""	n/a	n/a	n/a	"True"	n/a	n/a	"2020-03-13 13:20:51.751540"	"2020-03-13 13:20:52.321464"	74	5.93489215
"S200313"	"Conflict_Resolution"	"RIGHT"	"RIGHT"	420.044400000052	783.3333349	""	n/a	n/a	n/a	"True"	n/a	n/a	"2020-03-13 13:20:53.125123"	"2020-03-13 13:20:53.754617"	75	5.93489215
"S200313"	"Conflict_Resolution"	"LEFT"	"LEFT"	456.507600000009	866.6666684	""	n/a	n/a	n/a	"True"	n/a	n/a	"2020-03-13 13:20:54.640448"	"2020-03-13 13:20:55.304960"	76	5.93489215
"S200313"	"Conflict_Resolution"	"RIGHT"	"RIGHT"	410.158499999966	1050.0000021	""	n/a	n/a	n/a	"True"	n/a	n/a	"2020-03-13 13:20:56.374398"	"2020-03-13 13:20:56.993656"	77	5.93489215
"S200313"	"Conflict_Resolution"	"LEFT"	"LEFT"	391.250199999945	516.6666677	""	n/a	n/a	n/a	"False"	n/a	n/a	"2020-03-13 13:20:57.529754"	"2020-03-13 13:20:58.128914"	78	5.93489215
"S200313"	"Conflict_Resolution"	"RIGHT"	"RIGHT"	396.589199999994	1233.3333358	""	n/a	n/a	n/a	"True"	n/a	n/a	"2020-03-13 13:20:59.380254"	"2020-03-13 13:20:59.985069"	79	5.93489215
"S200313"	"Conflict_Resolution"	"RIGHT"	"RIGHT"	540.925900000047	800.0000016	""	n/a	n/a	n/a	"True"	n/a	n/a	"2020-03-13 13:21:00.804411"	"2020-03-13 13:21:01.553934"	80	5.93489215
"S200313"	"Conflict_Resolution"	"LEFT"	"LEFT"	459.087000000068	1200.0000024	""	n/a	n/a	n/a	"False"	n/a	n/a	"2020-03-13 13:21:02.773768"	"2020-03-13 13:21:03.441213"	81	5.93489215
"S200313"	"Conflict_Resolution"	"LEFT"	"RIGHT"	340.142600000036	850.0000017	""	n/a	n/a	n/a	"True"	n/a	n/a	"2020-03-13 13:21:04.308320"	"2020-03-13 13:21:04.856695"	82	5.93489215
"S200313"	"Conflict_Resolution"	"LEFT"	"LEFT"	431.104799999957	583.3333345	""	n/a	n/a	n/a	"False"	n/a	n/a	"2020-03-13 13:21:05.457414"	"2020-03-13 13:21:06.096815"	83	5.93489215
"S200313"	"Conflict_Resolution"	"LEFT"	"LEFT"	344.52090000002	1300.0000026	""	n/a	n/a	n/a	"False"	n/a	n/a	"2020-03-13 13:21:07.416604"	"2020-03-13 13:21:07.969184"	84	5.93489215
"S200313"	"Conflict_Resolution"	"LEFT"	"LEFT"	326.032700000042	566.6666678	""	n/a	n/a	n/a	"False"	n/a	n/a	"2020-03-13 13:21:08.555005"	"2020-03-13 13:21:09.089377"	85	5.93489215
"S200313"	"Conflict_Resolution"	"RIGHT"	"RIGHT"	430.548799999997	733.3333348	""	n/a	n/a	n/a	"True"	n/a	n/a	"2020-03-13 13:21:09.842173"	"2020-03-13 13:21:10.480473"	86	5.93489215
"S200313"	"Conflict_Resolution"	"RIGHT"	"LEFT"	357.058300000062	1383.3333361	""	n/a	n/a	n/a	"True"	n/a	n/a	"2020-03-13 13:21:11.883335"	"2020-03-13 13:21:12.449935"	87	5.93489215
"S200313"	"Conflict_Resolution"	"RIGHT"	"RIGHT"	416.918600000031	1483.3333363	""	n/a	n/a	n/a	"False"	n/a	n/a	"2020-03-13 13:21:13.952045"	"2020-03-13 13:21:14.577161"	88	5.93489215
"S200313"	"Conflict_Resolution"	"LEFT"	"LEFT"	467.7729	1400.0000028	""	n/a	n/a	n/a	"True"	n/a	n/a	"2020-03-13 13:21:15.996827"	"2020-03-13 13:21:16.672038"	89	5.93489215
"S200313"	"Conflict_Resolution"	"LEFT"	"LEFT"	352.300000000014	950.0000019	""	n/a	n/a	n/a	"False"	n/a	n/a	"2020-03-13 13:21:17.640250"	"2020-03-13 13:21:18.201023"	90	5.93489215
"S200313"	"Conflict_Resolution"	"LEFT"	"LEFT"	417.351199999985	1466.6666696	""	n/a	n/a	n/a	"False"	n/a	n/a	"2020-03-13 13:21:19.687785"	"2020-03-13 13:21:20.312748"	91	5.93489215
"S200313"	"Conflict_Resolution"	"LEFT"	"LEFT"	432.126500000095	916.6666685	""	n/a	n/a	n/a	"False"	n/a	n/a	"2020-03-13 13:21:21.248460"	"2020-03-13 13:21:21.889568"	92	5.93489215
"S200313"	"Conflict_Resolution"	"RIGHT"	"RIGHT"	421.946700000035	783.3333349	""	n/a	n/a	n/a	"False"	n/a	n/a	"2020-03-13 13:21:22.690534"	"2020-03-13 13:21:23.322869"	93	5.93489215
"S200313"	"Conflict_Resolution"	"LEFT"	"LEFT"	392.64419999995	1300.0000026	""	n/a	n/a	n/a	"True"	n/a	n/a	"2020-03-13 13:21:24.640098"	"2020-03-13 13:21:25.239988"	94	5.93489215
"S200313"	"Conflict_Resolution"	"RIGHT"	"RIGHT"	398.560599999996	583.3333345	""	n/a	n/a	n/a	"False"	n/a	n/a	"2020-03-13 13:21:25.841952"	"2020-03-13 13:21:26.449166"	95	5.93489215
"S200313"	"Conflict_Resolution"	"RIGHT"	"RIGHT"	435.050700000033	1216.6666691	""	n/a	n/a	n/a	"False"	n/a	n/a	"2020-03-13 13:21:27.685427"	"2020-03-13 13:21:28.328098"	96	5.93489215
"S200313"	"Conflict_Resolution"	"RIGHT"	"RIGHT"	342.10829999995	950.0000019	""	n/a	n/a	n/a	"False"	n/a	n/a	"2020-03-13 13:21:29.298384"	"2020-03-13 13:21:29.848246"	97	5.93489215
"S200313"	"Conflict_Resolution"	"LEFT"	"LEFT"	374.666500000103	1200.0000024	""	n/a	n/a	n/a	"True"	n/a	n/a	"2020-03-13 13:21:31.066033"	"2020-03-13 13:21:31.648117"	98	5.93489215
"S200313"	"Conflict_Resolution"	"RIGHT"	"RIGHT"	395.011299999965	500.000001	""	n/a	n/a	n/a	"False"	n/a	n/a	"2020-03-13 13:21:32.166291"	"2020-03-13 13:21:32.769140"	99	5.93489215
"S200313"	"Conflict_Resolution"	"RIGHT"	"RIGHT"	341.175900000053	1383.3333361	""	n/a	n/a	n/a	"False"	n/a	n/a	"2020-03-13 13:21:34.171503"	"2020-03-13 13:21:34.719736"	100	5.93489215
"S200313"	"Conflict_Resolution"	"LEFT"	"LEFT"	590.478400000052	1166.666669	""	n/a	n/a	n/a	"True"	n/a	n/a	"2020-03-13 13:21:35.906783"	"2020-03-13 13:21:36.705573"	101	5.93489215
"S200313"	"Conflict_Resolution"	"LEFT"	"LEFT"	468.768300000079	583.3333345	""	n/a	n/a	n/a	"True"	n/a	n/a	"2020-03-13 13:21:37.308184"	"2020-03-13 13:21:37.985248"	102	5.93489215
"S200313"	"Conflict_Resolution"	"RIGHT"	"RIGHT"	576.378299999988	1483.3333363	""	n/a	n/a	n/a	"True"	n/a	n/a	"2020-03-13 13:21:39.488066"	"2020-03-13 13:21:40.273140"	103	5.93489215
"S200313"	"Conflict_Resolution"	"RIGHT"	"RIGHT"	450.319299999933	1083.3333355	""	n/a	n/a	n/a	"True"	n/a	n/a	"2020-03-13 13:21:41.374744"	"2020-03-13 13:21:42.033315"	104	5.93489215
"S200313"	"Conflict_Resolution"	"LEFT"	"LEFT"	334.131599999978	716.6666681	""	n/a	n/a	n/a	"False"	n/a	n/a	"2020-03-13 13:21:42.770165"	"2020-03-13 13:21:43.313702"	105	5.93489215
"S200313"	"Conflict_Resolution"	"RIGHT"	"RIGHT"	338.364200000001	1033.3333354	""	n/a	n/a	n/a	"False"	n/a	n/a	"2020-03-13 13:21:44.366314"	"2020-03-13 13:21:44.913106"	106	5.93489215
"S200313"	"Conflict_Resolution"	"LEFT"	"LEFT"	500.319099999956	1000.000002	""	n/a	n/a	n/a	"True"	n/a	n/a	"2020-03-13 13:21:45.932842"	"2020-03-13 13:21:46.640003"	107	5.93489215
"S200313"	"Conflict_Resolution"	"RIGHT"	"RIGHT"	570.727900000065	650.0000013	""	n/a	n/a	n/a	"True"	n/a	n/a	"2020-03-13 13:21:47.310011"	"2020-03-13 13:21:48.088046"	108	5.93489215
"S200313"	"Conflict_Resolution"	"RIGHT"	"RIGHT"	340.394599999968	1000.000002	""	n/a	n/a	n/a	"False"	n/a	n/a	"2020-03-13 13:21:49.108555"	"2020-03-13 13:21:49.656318"	109	5.93489215
"S200313"	"Conflict_Resolution"	"RIGHT"	"RIGHT"	427.726099999973	833.333335	""	n/a	n/a	n/a	"True"	n/a	n/a	"2020-03-13 13:21:50.509361"	"2020-03-13 13:21:51.144450"	110	5.93489215
"S200313"	"Conflict_Resolution"	"LEFT"	"LEFT"	435.422899999935	666.666668	""	n/a	n/a	n/a	"True"	n/a	n/a	"2020-03-13 13:21:51.828801"	"2020-03-13 13:21:52.473653"	111	5.93489215
"S200313"	"Conflict_Resolution"	"LEFT"	"RIGHT"	398.203599999988	516.6666677	""	n/a	n/a	n/a	"True"	n/a	n/a	"2020-03-13 13:21:53.010309"	"2020-03-13 13:21:53.617154"	112	5.93489215
"S200313"	"Conflict_Resolution"	"RIGHT"	"RIGHT"	484.343699999954	583.3333345	""	n/a	n/a	n/a	"True"	n/a	n/a	"2020-03-13 13:21:54.220209"	"2020-03-13 13:21:54.913398"	113	5.93489215
"S200313"	"Conflict_Resolution"	"LEFT"	"LEFT"	341.678300000012	1366.6666694	""	n/a	n/a	n/a	"False"	n/a	n/a	"2020-03-13 13:21:56.299199"	"2020-03-13 13:21:56.847887"	114	5.93489215
"S200313"	"Conflict_Resolution"	"RIGHT"	"RIGHT"	412.370200000055	633.3333346	""	n/a	n/a	n/a	"True"	n/a	n/a	"2020-03-13 13:21:57.500181"	"2020-03-13 13:21:58.119783"	115	5.93489215
"S200313"	"Conflict_Resolution"	"LEFT"	"LEFT"	445.442400000047	1016.6666687	""	n/a	n/a	n/a	"True"	n/a	n/a	"2020-03-13 13:21:59.154632"	"2020-03-13 13:21:59.809216"	116	5.93489215
"S200313"	"Conflict_Resolution"	"RIGHT"	"RIGHT"	327.02269999993	533.3333344	""	n/a	n/a	n/a	"False"	n/a	n/a	"2020-03-13 13:22:00.361734"	"2020-03-13 13:22:00.896754"	117	5.93489215
"S200313"	"Conflict_Resolution"	"LEFT"	"LEFT"	429.191600000081	783.3333349	""	n/a	n/a	n/a	"True"	n/a	n/a	"2020-03-13 13:22:01.699989"	"2020-03-13 13:22:02.336890"	118	5.93489215
"S200313"	"Conflict_Resolution"	"LEFT"	"LEFT"	419.853500000045	616.6666679	""	n/a	n/a	n/a	"False"	n/a	n/a	"2020-03-13 13:22:02.972715"	"2020-03-13 13:22:03.601309"	119	5.93489215
"S200313"	"Conflict_Resolution"	"LEFT"	"LEFT"	509.216199999969	1216.6666691	""	n/a	n/a	n/a	"True"	n/a	n/a	"2020-03-13 13:22:04.835188"	"2020-03-13 13:22:05.551865"	120	5.93489215
"S200313"	"Conflict_Resolution"	"LEFT"	"RIGHT"	324.014999999918	1050.0000021	""	n/a	n/a	n/a	"True"	n/a	n/a	"2020-03-13 13:22:06.620317"	"2020-03-13 13:22:07.151896"	121	5.93489215
"S200313"	"Conflict_Resolution"	"LEFT"	"LEFT"	352.123399999982	1150.0000023	""	n/a	n/a	n/a	"False"	n/a	n/a	"2020-03-13 13:22:08.320356"	"2020-03-13 13:22:08.882382"	122	5.93489215
"S200313"	"Conflict_Resolution"	"RIGHT"	"RIGHT"	445.564099999956	750.0000015	""	n/a	n/a	n/a	"True"	n/a	n/a	"2020-03-13 13:22:09.650994"	"2020-03-13 13:22:10.305289"	123	5.93489215
"S200313"	"Conflict_Resolution"	"LEFT"	"LEFT"	407.778399999984	1316.6666693	""	n/a	n/a	n/a	"False"	n/a	n/a	"2020-03-13 13:22:11.641295"	"2020-03-13 13:22:12.257325"	124	5.93489215
"S200313"	"Conflict_Resolution"	"RIGHT"	"RIGHT"	403.051900000037	1416.6666695	""	n/a	n/a	n/a	"True"	n/a	n/a	"2020-03-13 13:22:13.693845"	"2020-03-13 13:22:14.304399"	125	5.93489215
"S200313"	"Conflict_Resolution"	"LEFT"	"LEFT"	447.199999999953	966.6666686	""	n/a	n/a	n/a	"True"	n/a	n/a	"2020-03-13 13:22:15.289565"	"2020-03-13 13:22:15.944542"	126	5.93489215
"S200313"	"Conflict_Resolution"	"RIGHT"	"RIGHT"	355.458799999951	650.0000013	""	n/a	n/a	n/a	"False"	n/a	n/a	"2020-03-13 13:22:16.613419"	"2020-03-13 13:22:17.177143"	127	5.93489215
"S200313"	"Conflict_Resolution"	"LEFT"	"LEFT"	491.684999999961	1416.6666695	""	n/a	n/a	n/a	"False"	n/a	n/a	"2020-03-13 13:22:18.613415"	"2020-03-13 13:22:19.313240"	128	5.93489215
"S200313"	"Conflict_Resolution"	"LEFT"	"LEFT"	369.071699999949	666.666668	""	n/a	n/a	n/a	"False"	n/a	n/a	"2020-03-13 13:22:19.999445"	"2020-03-13 13:22:20.576755"	129	5.93489215
"S200313"	"Conflict_Resolution"	"RIGHT"	"RIGHT"	515.555999999947	1183.3333357	""	n/a	n/a	n/a	"True"	n/a	n/a	"2020-03-13 13:22:21.780984"	"2020-03-13 13:22:22.504015"	130	5.93489215
"S200313"	"Conflict_Resolution"	"LEFT"	"LEFT"	549.477700000011	1400.0000028	""	n/a	n/a	n/a	"False"	n/a	n/a	"2020-03-13 13:22:23.922770"	"2020-03-13 13:22:24.680016"	131	5.93489215
"S200313"	"Conflict_Resolution"	"LEFT"	"LEFT"	521.036500000037	1150.0000023	""	n/a	n/a	n/a	"True"	n/a	n/a	"2020-03-13 13:22:25.847141"	"2020-03-13 13:22:26.577057"	132	5.93489215
"S200313"	"Conflict_Resolution"	"LEFT"	"LEFT"	394.518800000014	900.0000018	""	n/a	n/a	n/a	"True"	n/a	n/a	"2020-03-13 13:22:27.493852"	"2020-03-13 13:22:28.097411"	133	5.93489215
"S200313"	"Conflict_Resolution"	"RIGHT"	"RIGHT"	428.755000000137	1183.3333357	""	n/a	n/a	n/a	"False"	n/a	n/a	"2020-03-13 13:22:29.300020"	"2020-03-13 13:22:29.936934"	134	5.93489215
"S200313"	"Conflict_Resolution"	"RIGHT"	"RIGHT"	592.427300000054	1100.0000022	""	n/a	n/a	n/a	"True"	n/a	n/a	"2020-03-13 13:22:31.056552"	"2020-03-13 13:22:31.856705"	135	5.93489215
"S200313"	"Conflict_Resolution"	"RIGHT"	"RIGHT"	830.187199999955	1366.6666694	""	n/a	n/a	n/a	"True"	n/a	n/a	"2020-03-13 13:22:33.242177"	"2020-03-13 13:22:34.280425"	136	5.93489215
"S200313"	"Conflict_Resolution"	"LEFT"	"LEFT"	343.677500000013	866.6666684	""	n/a	n/a	n/a	"False"	n/a	n/a	"2020-03-13 13:22:35.169319"	"2020-03-13 13:22:35.721681"	137	5.93489215
"S200313"	"Conflict_Resolution"	"RIGHT"	"RIGHT"	470.306400000027	500.000001	""	n/a	n/a	n/a	"True"	n/a	n/a	"2020-03-13 13:22:36.242022"	"2020-03-13 13:22:36.921266"	138	5.93489215
"S200313"	"Conflict_Resolution"	"RIGHT"	"RIGHT"	370.917299999974	1416.6666695	""	n/a	n/a	n/a	"False"	n/a	n/a	"2020-03-13 13:22:38.357685"	"2020-03-13 13:22:38.937665"	139	5.93489215
"S200313"	"Conflict_Resolution"	"RIGHT"	"RIGHT"	495.963600000096	700.0000014	""	n/a	n/a	n/a	"True"	n/a	n/a	"2020-03-13 13:22:39.656499"	"2020-03-13 13:22:40.361424"	140	5.93489215
"S200313"	"Conflict_Resolution"	"LEFT"	"LEFT"	332.274599999892	1000.000002	""	n/a	n/a	n/a	"False"	n/a	n/a	"2020-03-13 13:22:41.380802"	"2020-03-13 13:22:41.921566"	141	5.93489215
"S200313"	"Conflict_Resolution"	"LEFT"	"LEFT"	495.708100000002	1500.000003	""	n/a	n/a	n/a	"True"	n/a	n/a	"2020-03-13 13:22:43.441226"	"2020-03-13 13:22:44.143815"	142	5.93489215
"S200313"	"Conflict_Resolution"	"LEFT"	"LEFT"	538.307699999905	716.6666681	""	n/a	n/a	n/a	"True"	n/a	n/a	"2020-03-13 13:22:44.877729"	"2020-03-13 13:22:45.625210"	143	5.93489215
"S200313"	"Conflict_Resolution"	"LEFT"	"LEFT"	383.419900000035	966.6666686	""	n/a	n/a	n/a	"False"	n/a	n/a	"2020-03-13 13:22:46.609586"	"2020-03-13 13:22:47.200500"	144	5.93489215
"S200313"	"Conflict_Resolution"	"LEFT"	"LEFT"	331.62520000019	816.6666683	""	n/a	n/a	n/a	"False"	n/a	n/a	"2020-03-13 13:22:48.037152"	"2020-03-13 13:22:48.577018"	145	5.93489215
"S200313"	"Conflict_Resolution"	"RIGHT"	"RIGHT"	409.802000000127	1266.6666692	""	n/a	n/a	n/a	"False"	n/a	n/a	"2020-03-13 13:22:49.863082"	"2020-03-13 13:22:50.480617"	146	5.93489215
"S200313"	"Conflict_Resolution"	"RIGHT"	"RIGHT"	608.859400000028	883.3333351	""	n/a	n/a	n/a	"True"	n/a	n/a	"2020-03-13 13:22:51.384007"	"2020-03-13 13:22:52.201976"	147	5.93489215
"S200313"	"Conflict_Resolution"	"LEFT"	"LEFT"	406.225499999891	1166.666669	""	n/a	n/a	n/a	"False"	n/a	n/a	"2020-03-13 13:22:53.386502"	"2020-03-13 13:22:54.001537"	148	5.93489215
"S200313"	"Conflict_Resolution"	"LEFT"	"LEFT"	438.333400000147	1316.6666693	""	n/a	n/a	n/a	"True"	n/a	n/a	"2020-03-13 13:22:55.338008"	"2020-03-13 13:22:55.984195"	149	5.93489215
"S200313"	"Conflict_Resolution"	"RIGHT"	"RIGHT"	416.553799999974	933.3333352	""	n/a	n/a	n/a	"False"	n/a	n/a	"2020-03-13 13:22:56.936095"	"2020-03-13 13:22:57.559717"	150	5.93489215
"S200313"	"Conflict_Resolution"	"LEFT"	"LEFT"	371.255499999961	1266.6666692	""	n/a	n/a	n/a	"False"	n/a	n/a	"2020-03-13 13:22:58.845873"	"2020-03-13 13:22:59.425705"	151	5.93489215
"S200313"	"Conflict_Resolution"	"LEFT"	"LEFT"	443.86170000007	783.3333349	""	n/a	n/a	n/a	"False"	n/a	n/a	"2020-03-13 13:23:00.228843"	"2020-03-13 13:23:00.879722"	152	5.93489215
"S200313"	"Conflict_Resolution"	"RIGHT"	"LEFT"	357.573000000002	1000.000002	""	n/a	n/a	n/a	"True"	n/a	n/a	"2020-03-13 13:23:01.899205"	"2020-03-13 13:23:02.464751"	153	5.93489215
"S200313"	"Conflict_Resolution"	"LEFT"	"LEFT"	308.47249999988	1216.6666691	""	n/a	n/a	n/a	"False"	n/a	n/a	"2020-03-13 13:23:03.700514"	"2020-03-13 13:23:04.217423"	154	5.93489215
"S200313"	"Conflict_Resolution"	"RIGHT"	"RIGHT"	328.264300000001	1466.6666696	""	n/a	n/a	n/a	"False"	n/a	n/a	"2020-03-13 13:23:05.704698"	"2020-03-13 13:23:06.240713"	155	5.93489215
"S200313"	"Conflict_Resolution"	"LEFT"	"LEFT"	370.201599999973	1266.6666692	""	n/a	n/a	n/a	"True"	n/a	n/a	"2020-03-13 13:23:07.526104"	"2020-03-13 13:23:08.105574"	156	5.93489215
"S200313"	"Conflict_Resolution"	"LEFT"	"LEFT"	370.149599999877	1450.0000029	""	n/a	n/a	n/a	"False"	n/a	n/a	"2020-03-13 13:23:09.574170"	"2020-03-13 13:23:10.152682"	157	5.93489215
"S200313"	"Conflict_Resolution"	"RIGHT"	"RIGHT"	363.403900000094	1433.3333362	""	n/a	n/a	n/a	"False"	n/a	n/a	"2020-03-13 13:23:11.605615"	"2020-03-13 13:23:12.176701"	158	5.93489215
"S200313"	"Conflict_Resolution"	"LEFT"	"LEFT"	503.04170000004	1100.0000022	""	n/a	n/a	n/a	"True"	n/a	n/a	"2020-03-13 13:23:13.297212"	"2020-03-13 13:23:14.009192"	159	5.93489215
"S200313"	"Conflict_Resolution"	"RIGHT"	"RIGHT"	392.202699999871	900.0000018	""	n/a	n/a	n/a	"True"	n/a	n/a	"2020-03-13 13:23:14.928851"	"2020-03-13 13:23:15.528087"	160	5.93489215
"S200313"	"Processing_Speed"	"LEFT"	"DOWN"	433.707499999997	983.3333353	n/a	n/a	n/a	n/a	n/a	n/a	n/a	"2020-03-13 13:07:26.175508"	"2020-03-13 13:07:26.822046"	1	1.91877148333333
"S200313"	"Processing_Speed"	"LEFT"	"DOWN"	325.930199999988	1116.6666689	n/a	n/a	n/a	n/a	n/a	n/a	n/a	"2020-03-13 13:07:27.947133"	"2020-03-13 13:07:28.480822"	2	1.91877148333333
"S200313"	"Processing_Speed"	"LEFT"	"DOWN"	297.268000000003	1366.6666694	n/a	n/a	n/a	n/a	n/a	n/a	n/a	"2020-03-13 13:07:29.856133"	"2020-03-13 13:07:30.361376"	3	1.91877148333333
"S200313"	"Processing_Speed"	"LEFT"	"DOWN"	313.365799999985	1150.0000023	n/a	n/a	n/a	n/a	n/a	n/a	n/a	"2020-03-13 13:07:31.520255"	"2020-03-13 13:07:32.041836"	4	1.91877148333333
"S200313"	"Processing_Speed"	"LEFT"	"DOWN"	283.08370000002	850.0000017	n/a	n/a	n/a	n/a	n/a	n/a	n/a	"2020-03-13 13:07:32.902467"	"2020-03-13 13:07:33.393071"	5	1.91877148333333
"S200313"	"Processing_Speed"	"LEFT"	"DOWN"	287.535600000012	1216.6666691	n/a	n/a	n/a	n/a	n/a	n/a	n/a	"2020-03-13 13:07:34.618972"	"2020-03-13 13:07:35.114221"	6	1.91877148333333
"S200313"	"Processing_Speed"	"LEFT"	"DOWN"	266.018800000012	916.6666685	n/a	n/a	n/a	n/a	n/a	n/a	n/a	"2020-03-13 13:07:36.038989"	"2020-03-13 13:07:36.513724"	7	1.91877148333333
"S200313"	"Processing_Speed"	"LEFT"	"DOWN"	278.611799999993	816.6666683	n/a	n/a	n/a	n/a	n/a	n/a	n/a	"2020-03-13 13:07:37.339218"	"2020-03-13 13:07:37.825916"	8	1.91877148333333
"S200313"	"Processing_Speed"	"RIGHT"	"DOWN"	239.294599999994	783.3333349	n/a	n/a	n/a	n/a	n/a	n/a	n/a	"2020-03-13 13:07:38.617535"	"2020-03-13 13:07:39.064848"	9	1.91877148333333
"S200313"	"Processing_Speed"	"RIGHT"	"DOWN"	240.942399999994	950.0000019	n/a	n/a	n/a	n/a	n/a	n/a	n/a	"2020-03-13 13:07:40.024894"	"2020-03-13 13:07:40.472906"	10	1.91877148333333
"S200313"	"Processing_Speed"	"LEFT"	"DOWN"	243.468699999994	1500.000003	n/a	n/a	n/a	n/a	n/a	n/a	n/a	"2020-03-13 13:07:41.981689"	"2020-03-13 13:07:42.432937"	11	1.91877148333333
"S200313"	"Processing_Speed"	"RIGHT"	"DOWN"	286.735800000002	566.6666678	n/a	n/a	n/a	n/a	n/a	n/a	n/a	"2020-03-13 13:07:43.010433"	"2020-03-13 13:07:43.505240"	12	1.91877148333333
"S200313"	"Processing_Speed"	"LEFT"	"DOWN"	249.677399999996	950.0000019	n/a	n/a	n/a	n/a	n/a	n/a	n/a	"2020-03-13 13:07:44.464050"	"2020-03-13 13:07:44.921485"	13	1.91877148333333
"S200313"	"Processing_Speed"	"LEFT"	"DOWN"	244.528500000001	1466.6666696	n/a	n/a	n/a	n/a	n/a	n/a	n/a	"2020-03-13 13:07:46.396570"	"2020-03-13 13:07:46.850382"	14	1.91877148333333
"S200313"	"Processing_Speed"	"RIGHT"	"DOWN"	239.067200000022	983.3333353	n/a	n/a	n/a	n/a	n/a	n/a	n/a	"2020-03-13 13:07:47.841906"	"2020-03-13 13:07:48.289529"	15	1.91877148333333
"S200313"	"Processing_Speed"	"RIGHT"	"DOWN"	245.558799999998	1216.6666691	n/a	n/a	n/a	n/a	n/a	n/a	n/a	"2020-03-13 13:07:49.515831"	"2020-03-13 13:07:49.968935"	16	1.91877148333333
"S200313"	"Processing_Speed"	"RIGHT"	"DOWN"	253.021899999993	1466.6666696	n/a	n/a	n/a	n/a	n/a	n/a	n/a	"2020-03-13 13:07:51.444397"	"2020-03-13 13:07:51.904974"	17	1.91877148333333
"S200313"	"Processing_Speed"	"RIGHT"	"DOWN"	264.183899999978	1366.6666694	n/a	n/a	n/a	n/a	n/a	n/a	n/a	"2020-03-13 13:07:53.280680"	"2020-03-13 13:07:53.753216"	18	1.91877148333333
"S200313"	"Processing_Speed"	"RIGHT"	"DOWN"	308.08110000001	1050.0000021	n/a	n/a	n/a	n/a	n/a	n/a	n/a	"2020-03-13 13:07:54.813396"	"2020-03-13 13:07:55.329210"	19	1.91877148333333
"S200313"	"Processing_Speed"	"RIGHT"	"DOWN"	242.088599999988	1333.333336	n/a	n/a	n/a	n/a	n/a	n/a	n/a	"2020-03-13 13:07:56.671350"	"2020-03-13 13:07:57.120181"	20	1.91877148333333
"S200313"	"Processing_Speed"	"LEFT"	"DOWN"	235.315000000014	1333.333336	n/a	n/a	n/a	n/a	n/a	n/a	n/a	"2020-03-13 13:07:58.462070"	"2020-03-13 13:07:58.905281"	21	1.91877148333333
"S200313"	"Processing_Speed"	"LEFT"	"DOWN"	292.522300000002	700.0000014	n/a	n/a	n/a	n/a	n/a	n/a	n/a	"2020-03-13 13:07:59.614137"	"2020-03-13 13:08:00.114170"	22	1.91877148333333
"S200313"	"Processing_Speed"	"LEFT"	"DOWN"	394.948199999988	1083.3333355	n/a	n/a	n/a	n/a	n/a	n/a	n/a	"2020-03-13 13:08:01.206571"	"2020-03-13 13:08:01.809436"	23	1.91877148333333
"S200313"	"Processing_Speed"	"LEFT"	"DOWN"	295.343500000001	600.0000012	n/a	n/a	n/a	n/a	n/a	n/a	n/a	"2020-03-13 13:08:02.418264"	"2020-03-13 13:08:02.923438"	24	1.91877148333333
"S200313"	"Processing_Speed"	"RIGHT"	"DOWN"	237.411399999985	600.0000012	n/a	n/a	n/a	n/a	n/a	n/a	n/a	"2020-03-13 13:08:03.531979"	"2020-03-13 13:08:03.977268"	25	1.91877148333333
"S200313"	"Processing_Speed"	"LEFT"	"DOWN"	272.042700000014	783.3333349	n/a	n/a	n/a	n/a	n/a	n/a	n/a	"2020-03-13 13:08:04.769269"	"2020-03-13 13:08:05.250369"	26	1.91877148333333
"S200313"	"Processing_Speed"	"RIGHT"	"DOWN"	272.921999999994	533.3333344	n/a	n/a	n/a	n/a	n/a	n/a	n/a	"2020-03-13 13:08:05.792472"	"2020-03-13 13:08:06.273749"	27	1.91877148333333
"S200313"	"Processing_Speed"	"RIGHT"	"DOWN"	258.363300000013	1116.6666689	n/a	n/a	n/a	n/a	n/a	n/a	n/a	"2020-03-13 13:08:07.398968"	"2020-03-13 13:08:07.865844"	28	1.91877148333333
"S200313"	"Processing_Speed"	"RIGHT"	"DOWN"	267.518600000017	883.3333351	n/a	n/a	n/a	n/a	n/a	n/a	n/a	"2020-03-13 13:08:08.757210"	"2020-03-13 13:08:09.233220"	29	1.91877148333333
"S200313"	"Processing_Speed"	"RIGHT"	"DOWN"	251.096500000017	666.666668	n/a	n/a	n/a	n/a	n/a	n/a	n/a	"2020-03-13 13:08:09.910609"	"2020-03-13 13:08:10.371010"	30	1.91877148333333
"S200313"	"Processing_Speed"	"LEFT"	"DOWN"	282.814599999995	666.666668	n/a	n/a	n/a	n/a	n/a	n/a	n/a	"2020-03-13 13:08:11.046749"	"2020-03-13 13:08:11.536825"	31	1.91877148333333
"S200313"	"Processing_Speed"	"LEFT"	"DOWN"	256.631999999996	1183.3333357	n/a	n/a	n/a	n/a	n/a	n/a	n/a	"2020-03-13 13:08:12.728936"	"2020-03-13 13:08:13.193678"	32	1.91877148333333
"S200313"	"Processing_Speed"	"RIGHT"	"DOWN"	237.553899999995	633.3333346	n/a	n/a	n/a	n/a	n/a	n/a	n/a	"2020-03-13 13:08:13.835955"	"2020-03-13 13:08:14.281685"	33	1.91877148333333
"S200313"	"Processing_Speed"	"LEFT"	"DOWN"	274.627399999986	1300.0000026	n/a	n/a	n/a	n/a	n/a	n/a	n/a	"2020-03-13 13:08:15.590908"	"2020-03-13 13:08:16.074306"	34	1.91877148333333
"S200313"	"Processing_Speed"	"RIGHT"	"DOWN"	308.581700000019	1433.3333362	n/a	n/a	n/a	n/a	n/a	n/a	n/a	"2020-03-13 13:08:17.516945"	"2020-03-13 13:08:18.032738"	35	1.91877148333333
"S200313"	"Processing_Speed"	"RIGHT"	"DOWN"	247.517700000003	816.6666683	n/a	n/a	n/a	n/a	n/a	n/a	n/a	"2020-03-13 13:08:18.857462"	"2020-03-13 13:08:19.313211"	36	1.91877148333333
"S200313"	"Processing_Speed"	"RIGHT"	"DOWN"	258.118800000005	916.6666685	n/a	n/a	n/a	n/a	n/a	n/a	n/a	"2020-03-13 13:08:20.238915"	"2020-03-13 13:08:20.706481"	37	1.91877148333333
"S200313"	"Processing_Speed"	"RIGHT"	"DOWN"	250.639000000007	1300.0000026	n/a	n/a	n/a	n/a	n/a	n/a	n/a	"2020-03-13 13:08:22.015259"	"2020-03-13 13:08:22.473523"	38	1.91877148333333
"S200313"	"Processing_Speed"	"RIGHT"	"DOWN"	393.76759999999	733.3333348	n/a	n/a	n/a	n/a	n/a	n/a	n/a	"2020-03-13 13:08:23.215141"	"2020-03-13 13:08:23.817492"	39	1.91877148333333
"S200313"	"Processing_Speed"	"RIGHT"	"DOWN"	243.238500000018	700.0000014	n/a	n/a	n/a	n/a	n/a	n/a	n/a	"2020-03-13 13:08:24.526066"	"2020-03-13 13:08:24.976927"	40	1.91877148333333
"S200313"	"Processing_Speed"	"LEFT"	"DOWN"	254.614099999998	633.3333346	n/a	n/a	n/a	n/a	n/a	n/a	n/a	"2020-03-13 13:08:25.618513"	"2020-03-13 13:08:26.081188"	41	1.91877148333333
"S200313"	"Processing_Speed"	"RIGHT"	"DOWN"	242.805599999997	1083.3333355	n/a	n/a	n/a	n/a	n/a	n/a	n/a	"2020-03-13 13:08:27.174522"	"2020-03-13 13:08:27.624916"	42	1.91877148333333
"S200313"	"Processing_Speed"	"RIGHT"	"DOWN"	229.234200000008	1266.6666692	n/a	n/a	n/a	n/a	n/a	n/a	n/a	"2020-03-13 13:08:28.899810"	"2020-03-13 13:08:29.336745"	43	1.91877148333333
"S200313"	"Processing_Speed"	"LEFT"	"DOWN"	270.713900000004	566.6666678	n/a	n/a	n/a	n/a	n/a	n/a	n/a	"2020-03-13 13:08:29.914491"	"2020-03-13 13:08:30.393687"	44	1.91877148333333
"S200313"	"Processing_Speed"	"LEFT"	"DOWN"	270.437700000002	1016.6666687	n/a	n/a	n/a	n/a	n/a	n/a	n/a	"2020-03-13 13:08:31.419060"	"2020-03-13 13:08:31.897442"	45	1.91877148333333
"S200313"	"Processing_Speed"	"RIGHT"	"DOWN"	256.317800000005	1183.3333357	n/a	n/a	n/a	n/a	n/a	n/a	n/a	"2020-03-13 13:08:33.088947"	"2020-03-13 13:08:33.553877"	46	1.91877148333333
"S200313"	"Processing_Speed"	"LEFT"	"DOWN"	238.379400000014	1400.0000028	n/a	n/a	n/a	n/a	n/a	n/a	n/a	"2020-03-13 13:08:34.962879"	"2020-03-13 13:08:35.409535"	47	1.91877148333333
"S200313"	"Processing_Speed"	"RIGHT"	"DOWN"	373.113100000012	850.0000017	n/a	n/a	n/a	n/a	n/a	n/a	n/a	"2020-03-13 13:08:36.267867"	"2020-03-13 13:08:36.849558"	48	1.91877148333333
"S200313"	"Processing_Speed"	"LEFT"	"DOWN"	251.186300000001	500.000001	n/a	n/a	n/a	n/a	n/a	n/a	n/a	"2020-03-13 13:08:37.358379"	"2020-03-13 13:08:37.817150"	49	1.91877148333333
"S200313"	"Processing_Speed"	"LEFT"	"DOWN"	274.23109999998	733.3333348	n/a	n/a	n/a	n/a	n/a	n/a	n/a	"2020-03-13 13:08:38.559143"	"2020-03-13 13:08:39.041323"	50	1.91877148333333
"S200313"	"Processing_Speed"	"RIGHT"	"DOWN"	235.122399999995	500.000001	n/a	n/a	n/a	n/a	n/a	n/a	n/a	"2020-03-13 13:08:39.550524"	"2020-03-13 13:08:39.993030"	51	1.91877148333333
"S200313"	"Processing_Speed"	"LEFT"	"DOWN"	238.409699999977	1433.3333362	n/a	n/a	n/a	n/a	n/a	n/a	n/a	"2020-03-13 13:08:41.434464"	"2020-03-13 13:08:41.882359"	52	1.91877148333333
"S200313"	"Processing_Speed"	"RIGHT"	"DOWN"	221.580100000011	1150.0000023	n/a	n/a	n/a	n/a	n/a	n/a	n/a	"2020-03-13 13:08:43.043767"	"2020-03-13 13:08:43.473146"	53	1.91877148333333
"S200313"	"Processing_Speed"	"LEFT"	"DOWN"	269.413300000025	1050.0000021	n/a	n/a	n/a	n/a	n/a	n/a	n/a	"2020-03-13 13:08:44.532084"	"2020-03-13 13:08:45.009378"	54	1.91877148333333
"S200313"	"Processing_Speed"	"LEFT"	"DOWN"	313.219299999986	533.3333344	n/a	n/a	n/a	n/a	n/a	n/a	n/a	"2020-03-13 13:08:45.551673"	"2020-03-13 13:08:46.072847"	55	1.91877148333333
"S200313"	"Processing_Speed"	"LEFT"	"DOWN"	309.201299999984	1266.6666692	n/a	n/a	n/a	n/a	n/a	n/a	n/a	"2020-03-13 13:08:47.347760"	"2020-03-13 13:08:47.865245"	56	1.91877148333333
"S200313"	"Processing_Speed"	"RIGHT"	"DOWN"	383.1682	1016.6666687	n/a	n/a	n/a	n/a	n/a	n/a	n/a	"2020-03-13 13:08:48.889915"	"2020-03-13 13:08:49.482380"	57	1.91877148333333
"S200313"	"Processing_Speed"	"LEFT"	"DOWN"	266.166700000014	883.3333351	n/a	n/a	n/a	n/a	n/a	n/a	n/a	"2020-03-13 13:08:50.375338"	"2020-03-13 13:08:50.849634"	58	1.91877148333333
"S200313"	"Processing_Speed"	"RIGHT"	"DOWN"	379.144999999994	1500.000003	n/a	n/a	n/a	n/a	n/a	n/a	n/a	"2020-03-13 13:08:52.358526"	"2020-03-13 13:08:52.945425"	59	1.91877148333333
"S200313"	"Processing_Speed"	"RIGHT"	"DOWN"	262.892600000015	1400.0000028	n/a	n/a	n/a	n/a	n/a	n/a	n/a	"2020-03-13 13:08:54.354382"	"2020-03-13 13:08:54.825356"	60	1.91877148333333
"S200313"	"Response_Inhibition"	"LEFT"	"LEFT"	399.165400000015	700.0000014	""	n/a	n/a	n/a	n/a	n/a	n/a	"2020-03-13 13:12:35.449784"	"2020-03-13 13:12:36.057501"	1	5.36699701666667
"S200313"	"Response_Inhibition"	"LEFT"	"LEFT"	282.400633399979	1216.6666691	""	n/a	n/a	n/a	n/a	n/a	n/a	"2020-03-13 13:12:37.283008"	"2020-03-13 13:12:37.777700"	2	5.36699701666667
"S200313"	"Response_Inhibition"	"LEFT"	"LEFT"	324.767699999995	850.0000017	""	n/a	n/a	n/a	n/a	n/a	n/a	"2020-03-13 13:12:38.636354"	"2020-03-13 13:12:39.169435"	3	5.36699701666667
"S200313"	"Response_Inhibition"	"RIGHT"	"RIGHT"	466.368399999965	716.6666681	""	n/a	n/a	n/a	n/a	n/a	n/a	"2020-03-13 13:12:39.895128"	"2020-03-13 13:12:40.569411"	4	5.36699701666667
"S200313"	"Response_Inhibition"	"RIGHT"	"RIGHT"	295.663600000012	983.3333353	""	n/a	n/a	n/a	n/a	n/a	n/a	"2020-03-13 13:12:41.561258"	"2020-03-13 13:12:42.064847"	5	5.36699701666667
"S200313"	"Response_Inhibition"	"RIGHT"	"RIGHT"	563.6078	1483.3333363	""	n/a	n/a	n/a	n/a	n/a	n/a	"2020-03-13 13:12:43.557528"	"2020-03-13 13:12:44.331447"	6	5.36699701666667
"S200313"	"Response_Inhibition"	"RIGHT"	"RIGHT"	289.828499999999	1083.3333355	""	n/a	n/a	n/a	n/a	n/a	n/a	"2020-03-13 13:12:45.423547"	"2020-03-13 13:12:45.921492"	7	5.36699701666667
"S200313"	"Response_Inhibition"	"RIGHT"	"RIGHT"	658.849099999998	1100.0000022	""	n/a	n/a	n/a	n/a	n/a	n/a	"2020-03-13 13:12:47.030332"	"2020-03-13 13:12:47.896752"	8	5.36699701666667
"S200313"	"Response_Inhibition"	"RIGHT"	"RIGHT"	471.985500000017	1366.6666694	""	n/a	n/a	n/a	n/a	n/a	n/a	"2020-03-13 13:12:49.273319"	"2020-03-13 13:12:49.951976"	9	5.36699701666667
"S200313"	"Response_Inhibition"	"LEFT"	"LEFT"	485.058399999957	1083.3333355	""	n/a	n/a	n/a	n/a	n/a	n/a	"2020-03-13 13:12:51.044227"	"2020-03-13 13:12:51.736964"	10	5.36699701666667
"S200313"	"Response_Inhibition"	"LEFT"	"LEFT"	339.273999999989	1100.0000022	""	n/a	n/a	n/a	n/a	n/a	n/a	"2020-03-13 13:12:52.845628"	"2020-03-13 13:12:53.393115"	11	5.36699701666667
"S200313"	"Response_Inhibition"	"RIGHT"	"RIGHT"	474.02390000002	1133.3333356	""	n/a	n/a	n/a	n/a	n/a	n/a	"2020-03-13 13:12:54.535208"	"2020-03-13 13:12:55.217000"	12	5.36699701666667
"S200313"	"Response_Inhibition"	"RIGHT"	"RIGHT"	325.931500000024	1233.3333358	""	n/a	n/a	n/a	n/a	n/a	n/a	"2020-03-13 13:12:56.459370"	"2020-03-13 13:12:56.992848"	13	5.36699701666667
"S200313"	"Response_Inhibition"	"RIGHT"	"RIGHT"	291.794700000025	1300.0000026	""	n/a	n/a	n/a	n/a	n/a	n/a	"2020-03-13 13:12:58.301773"	"2020-03-13 13:12:58.800927"	14	5.36699701666667
"S200313"	"Response_Inhibition"	"LEFT"	"LEFT"	391.533100000004	616.6666679	""	n/a	n/a	n/a	n/a	n/a	n/a	"2020-03-13 13:12:59.426258"	"2020-03-13 13:13:00.024987"	15	5.36699701666667
"S200313"	"Response_Inhibition"	"LEFT"	"LEFT"	339.353500000016	1466.6666696	""	n/a	n/a	n/a	n/a	n/a	n/a	"2020-03-13 13:13:01.501346"	"2020-03-13 13:13:02.049217"	16	5.36699701666667
"S200313"	"Response_Inhibition"	"LEFT"	"LEFT"	311.504599999978	783.3333349	""	n/a	n/a	n/a	n/a	n/a	n/a	"2020-03-13 13:13:02.841783"	"2020-03-13 13:13:03.361223"	17	5.36699701666667
"S200313"	"Response_Inhibition"	"LEFT"	"LEFT"	290.378766899989	1050.0000021	""	n/a	n/a	n/a	n/a	n/a	n/a	"2020-03-13 13:13:04.419430"	"2020-03-13 13:13:04.920795"	18	5.36699701666667
"S200313"	"Response_Inhibition"	"LEFT"	"LEFT"	480.861899999979	950.0000019	""	n/a	n/a	n/a	n/a	n/a	n/a	"2020-03-13 13:13:05.880263"	"2020-03-13 13:13:06.569159"	19	5.36699701666667
"S200313"	"Response_Inhibition"	"RIGHT"	"Time_Max_Exceeded"	1500.05660019997	1000.000002	""	n/a	n/a	n/a	n/a	n/a	n/a	"2020-03-13 13:13:07.577967"	"2020-03-13 13:13:09.081191"	20	5.36699701666667
"S200313"	"Response_Inhibition"	"RIGHT"	"Time_Max_Exceeded"	1500.06413359997	850.0000017	"RIGHT"	-616.731	n/a	n/a	n/a	n/a	n/a	"2020-03-13 13:13:09.941726"	"2020-03-13 13:13:11.445465"	21	5.36699701666667
"S200313"	"Response_Inhibition"	"RIGHT"	"RIGHT"	369.837899999993	633.3333346	""	n/a	n/a	n/a	n/a	n/a	n/a	"2020-03-13 13:13:12.087610"	"2020-03-13 13:13:12.664991"	22	5.36699701666667
"S200313"	"Response_Inhibition"	"LEFT"	"LEFT"	279.075500100022	733.3333348	""	n/a	n/a	n/a	n/a	n/a	n/a	"2020-03-13 13:13:13.406967"	"2020-03-13 13:13:13.897281"	23	5.36699701666667
"S200313"	"Response_Inhibition"	"LEFT"	"Time_Max_Exceeded"	1500.06540049998	1433.3333362	""	n/a	n/a	n/a	n/a	n/a	n/a	"2020-03-13 13:13:15.339599"	"2020-03-13 13:13:16.842259"	24	5.36699701666667
"S200313"	"Response_Inhibition"	"RIGHT"	"RIGHT"	495.330700000011	766.6666682	""	n/a	n/a	n/a	n/a	n/a	n/a	"2020-03-13 13:13:17.618674"	"2020-03-13 13:13:18.321747"	25	5.36699701666667
"S200313"	"Response_Inhibition"	"RIGHT"	"RIGHT"	460.474200000021	1466.6666696	""	n/a	n/a	n/a	n/a	n/a	n/a	"2020-03-13 13:13:19.797055"	"2020-03-13 13:13:20.464941"	26	5.36699701666667
"S200313"	"Response_Inhibition"	"RIGHT"	"RIGHT"	408.771600000023	1166.666669	""	n/a	n/a	n/a	n/a	n/a	n/a	"2020-03-13 13:13:21.640749"	"2020-03-13 13:13:22.256853"	27	5.36699701666667
"S200313"	"Response_Inhibition"	"LEFT"	"LEFT"	554.407400000002	1133.3333356	""	n/a	n/a	n/a	n/a	n/a	n/a	"2020-03-13 13:13:23.398492"	"2020-03-13 13:13:24.160886"	28	5.36699701666667
"S200313"	"Response_Inhibition"	"RIGHT"	"RIGHT"	296.058400499993	700.0000014	""	n/a	n/a	n/a	n/a	n/a	n/a	"2020-03-13 13:13:24.869693"	"2020-03-13 13:13:25.377058"	29	5.36699701666667
"S200313"	"Response_Inhibition"	"LEFT"	"LEFT"	211.307099999999	1500.000003	""	n/a	n/a	n/a	n/a	n/a	n/a	"2020-03-13 13:13:26.886162"	"2020-03-13 13:13:27.303807"	30	5.36699701666667
"S200313"	"Response_Inhibition"	"RIGHT"	"RIGHT"	235.507100000007	733.3333348	""	n/a	n/a	n/a	n/a	n/a	n/a	"2020-03-13 13:13:28.045270"	"2020-03-13 13:13:28.489037"	31	5.36699701666667
"S200313"	"Response_Inhibition"	"RIGHT"	"RIGHT"	224.38470000003	1383.3333361	""	n/a	n/a	n/a	n/a	n/a	n/a	"2020-03-13 13:13:29.880973"	"2020-03-13 13:13:30.313287"	32	5.36699701666667
"S200313"	"Response_Inhibition"	"RIGHT"	"RIGHT"	279.852099999971	783.3333349	""	n/a	n/a	n/a	n/a	n/a	n/a	"2020-03-13 13:13:31.105839"	"2020-03-13 13:13:31.593619"	33	5.36699701666667
"S200313"	"Response_Inhibition"	"RIGHT"	"RIGHT"	239.232133800011	916.6666685	""	n/a	n/a	n/a	n/a	n/a	n/a	"2020-03-13 13:13:32.518898"	"2020-03-13 13:13:32.970844"	34	5.36699701666667
"S200313"	"Response_Inhibition"	"LEFT"	"LEFT"	233.803199999954	1416.6666695	""	n/a	n/a	n/a	n/a	n/a	n/a	"2020-03-13 13:13:34.399349"	"2020-03-13 13:13:34.840879"	35	5.36699701666667
"S200313"	"Response_Inhibition"	"RIGHT"	"RIGHT"	219.026200400042	1033.3333354	""	n/a	n/a	n/a	n/a	n/a	n/a	"2020-03-13 13:13:35.883401"	"2020-03-13 13:13:36.314743"	36	5.36699701666667
"S200313"	"Response_Inhibition"	"RIGHT"	"RIGHT"	317.431199999987	816.6666683	""	n/a	n/a	n/a	n/a	n/a	n/a	"2020-03-13 13:13:37.139678"	"2020-03-13 13:13:37.665529"	37	5.36699701666667
"S200313"	"Response_Inhibition"	"RIGHT"	"RIGHT"	270.194233799965	750.0000015	""	n/a	n/a	n/a	n/a	n/a	n/a	"2020-03-13 13:13:38.423519"	"2020-03-13 13:13:38.905236"	38	5.36699701666667
"S200313"	"Response_Inhibition"	"LEFT"	"LEFT"	270.023900000012	833.333335	""	n/a	n/a	n/a	n/a	n/a	n/a	"2020-03-13 13:13:39.747072"	"2020-03-13 13:13:40.225098"	39	5.36699701666667
"S200313"	"Response_Inhibition"	"RIGHT"	"RIGHT"	261.42440000001	1450.0000029	""	n/a	n/a	n/a	n/a	n/a	n/a	"2020-03-13 13:13:41.683153"	"2020-03-13 13:13:42.152746"	40	5.36699701666667
"S200313"	"Response_Inhibition"	"RIGHT"	"RIGHT"	284.891799999968	866.6666684	""	n/a	n/a	n/a	n/a	n/a	n/a	"2020-03-13 13:13:43.028026"	"2020-03-13 13:13:43.521646"	41	5.36699701666667
"S200313"	"Response_Inhibition"	"RIGHT"	"RIGHT"	272.108299999957	1366.6666694	""	n/a	n/a	n/a	n/a	n/a	n/a	"2020-03-13 13:13:44.897198"	"2020-03-13 13:13:45.377268"	42	5.36699701666667
"S200313"	"Response_Inhibition"	"RIGHT"	"RIGHT"	305.72189999998	1333.333336	""	n/a	n/a	n/a	n/a	n/a	n/a	"2020-03-13 13:13:46.719750"	"2020-03-13 13:13:47.232144"	43	5.36699701666667
"S200313"	"Response_Inhibition"	"LEFT"	"LEFT"	267.628400300001	866.6666684	""	n/a	n/a	n/a	n/a	n/a	n/a	"2020-03-13 13:13:48.107198"	"2020-03-13 13:13:48.586272"	44	5.36699701666667
"S200313"	"Response_Inhibition"	"RIGHT"	"Time_Max_Exceeded"	1500.04653380003	800.0000016	""	n/a	n/a	n/a	n/a	n/a	n/a	"2020-03-13 13:13:49.394647"	"2020-03-13 13:13:50.898368"	45	5.36699701666667
"S200313"	"Response_Inhibition"	"RIGHT"	"Time_Max_Exceeded"	1500.05036679998	1066.6666688	""	n/a	n/a	n/a	n/a	n/a	n/a	"2020-03-13 13:13:51.974313"	"2020-03-13 13:13:53.477941"	46	5.36699701666667
"S200313"	"Response_Inhibition"	"LEFT"	"Time_Max_Exceeded"	1500.06559999997	1100.0000022	""	n/a	n/a	n/a	n/a	n/a	n/a	"2020-03-13 13:13:54.586116"	"2020-03-13 13:13:56.086185"	47	5.36699701666667
"S200313"	"Response_Inhibition"	"LEFT"	"LEFT"	369.736200000034	766.6666682	""	n/a	n/a	n/a	n/a	n/a	n/a	"2020-03-13 13:13:56.863490"	"2020-03-13 13:13:57.441465"	48	5.36699701666667
"S200313"	"Response_Inhibition"	"RIGHT"	"Time_Max_Exceeded"	1500.05873360006	1200.0000024	""	n/a	n/a	n/a	n/a	n/a	n/a	"2020-03-13 13:13:58.649476"	"2020-03-13 13:14:00.153078"	49	5.36699701666667
"S200313"	"Response_Inhibition"	"RIGHT"	"Time_Max_Exceeded"	1500.04666670001	600.0000012	""	n/a	n/a	n/a	n/a	n/a	n/a	"2020-03-13 13:14:00.762658"	"2020-03-13 13:14:02.265708"	50	5.36699701666667
"S200313"	"Response_Inhibition"	"LEFT"	"LEFT"	280.904767100011	1416.6666695	""	n/a	n/a	n/a	n/a	n/a	n/a	"2020-03-13 13:14:03.692536"	"2020-03-13 13:14:04.185072"	51	5.36699701666667
"S200313"	"Response_Inhibition"	"RIGHT"	"RIGHT"	524.950499999932	666.666668	""	n/a	n/a	n/a	n/a	n/a	n/a	"2020-03-13 13:14:04.860618"	"2020-03-13 13:14:05.593639"	52	5.36699701666667
"S200313"	"Response_Inhibition"	"RIGHT"	"RIGHT"	716.694899999993	1416.6666695	""	n/a	n/a	n/a	n/a	n/a	n/a	"2020-03-13 13:14:07.020729"	"2020-03-13 13:14:07.943983"	53	5.36699701666667
"S200313"	"Response_Inhibition"	"LEFT"	"LEFT"	665.644600000064	1116.6666689	""	n/a	n/a	n/a	n/a	n/a	n/a	"2020-03-13 13:14:09.071380"	"2020-03-13 13:14:09.945404"	54	5.36699701666667
"S200313"	"Response_Inhibition"	"LEFT"	"Time_Max_Exceeded"	1500.05776679999	1033.3333354	""	n/a	n/a	n/a	n/a	n/a	n/a	"2020-03-13 13:14:10.987324"	"2020-03-13 13:14:12.490440"	55	5.36699701666667
"S200313"	"Response_Inhibition"	"RIGHT"	"RIGHT"	336.740200000008	1116.6666689	""	n/a	n/a	n/a	n/a	n/a	n/a	"2020-03-13 13:14:13.616452"	"2020-03-13 13:14:14.160620"	56	5.36699701666667
"S200313"	"Response_Inhibition"	"LEFT"	"LEFT"	546.760400000039	533.3333344	""	n/a	n/a	n/a	n/a	n/a	n/a	"2020-03-13 13:14:14.702736"	"2020-03-13 13:14:15.456978"	57	5.36699701666667
"S200313"	"Response_Inhibition"	"RIGHT"	"RIGHT"	674.56930000003	1316.6666693	""	n/a	n/a	n/a	n/a	n/a	n/a	"2020-03-13 13:14:16.782404"	"2020-03-13 13:14:17.663769"	58	5.36699701666667
"S200313"	"Response_Inhibition"	"LEFT"	"LEFT"	295.048400200019	966.6666686	""	n/a	n/a	n/a	n/a	n/a	n/a	"2020-03-13 13:14:18.638416"	"2020-03-13 13:14:19.146555"	59	5.36699701666667
"S200313"	"Response_Inhibition"	"LEFT"	"LEFT"	556.088633899972	1366.6666694	""	n/a	n/a	n/a	n/a	n/a	n/a	"2020-03-13 13:14:20.521480"	"2020-03-13 13:14:21.289675"	60	5.36699701666667
"S200313"	"Response_Inhibition"	"RIGHT"	"RIGHT"	655.135200000018	1150.0000023	""	n/a	n/a	n/a	n/a	n/a	n/a	"2020-03-13 13:14:22.450159"	"2020-03-13 13:14:23.312803"	61	5.36699701666667
"S200313"	"Response_Inhibition"	"RIGHT"	"RIGHT"	312.473899999986	950.0000019	""	n/a	n/a	n/a	n/a	n/a	n/a	"2020-03-13 13:14:24.272790"	"2020-03-13 13:14:24.793125"	62	5.36699701666667
"S200313"	"Response_Inhibition"	"RIGHT"	"Time_Max_Exceeded"	1500.05370029999	1100.0000022	""	n/a	n/a	n/a	n/a	n/a	n/a	"2020-03-13 13:14:25.903551"	"2020-03-13 13:14:27.406690"	63	5.36699701666667
"S200313"	"Response_Inhibition"	"LEFT"	"Time_Max_Exceeded"	1500.05686720003	816.6666683	""	n/a	n/a	n/a	n/a	n/a	n/a	"2020-03-13 13:14:28.232372"	"2020-03-13 13:14:29.736508"	64	5.36699701666667
"S200313"	"Response_Inhibition"	"RIGHT"	"RIGHT"	564.052300000071	1500.000003	""	n/a	n/a	n/a	n/a	n/a	n/a	"2020-03-13 13:14:31.245310"	"2020-03-13 13:14:32.017240"	65	5.36699701666667
"S200313"	"Response_Inhibition"	"LEFT"	"LEFT"	296.547400000009	1150.0000023	""	n/a	n/a	n/a	n/a	n/a	n/a	"2020-03-13 13:14:33.176421"	"2020-03-13 13:14:33.680019"	66	5.36699701666667
"S200313"	"Response_Inhibition"	"LEFT"	"LEFT"	659.144800000036	1316.6666693	""	n/a	n/a	n/a	n/a	n/a	n/a	"2020-03-13 13:14:35.005619"	"2020-03-13 13:14:35.873413"	67	5.36699701666667
"S200313"	"Response_Inhibition"	"RIGHT"	"RIGHT"	325.833100000068	633.3333346	""	n/a	n/a	n/a	n/a	n/a	n/a	"2020-03-13 13:14:36.514867"	"2020-03-13 13:14:37.049423"	68	5.36699701666667
"S200313"	"Response_Inhibition"	"LEFT"	"LEFT"	491.042499999935	900.0000018	""	n/a	n/a	n/a	n/a	n/a	n/a	"2020-03-13 13:14:37.957725"	"2020-03-13 13:14:38.656889"	69	5.36699701666667
"S200313"	"Response_Inhibition"	"LEFT"	"Time_Max_Exceeded"	1500.05120059996	716.6666681	""	n/a	n/a	n/a	n/a	n/a	n/a	"2020-03-13 13:14:39.383321"	"2020-03-13 13:14:40.886125"	70	5.36699701666667
"S200313"	"Response_Inhibition"	"LEFT"	"Time_Max_Exceeded"	1500.04810019994	800.0000016	""	n/a	n/a	n/a	n/a	n/a	n/a	"2020-03-13 13:14:41.695142"	"2020-03-13 13:14:43.199254"	71	5.36699701666667
"S200313"	"Response_Inhibition"	"RIGHT"	"RIGHT"	365.210600000069	883.3333351	""	n/a	n/a	n/a	n/a	n/a	n/a	"2020-03-13 13:14:44.091950"	"2020-03-13 13:14:44.665472"	72	5.36699701666667
"S200313"	"Response_Inhibition"	"LEFT"	"LEFT"	580.856499999982	650.0000013	""	n/a	n/a	n/a	n/a	n/a	n/a	"2020-03-13 13:14:45.323927"	"2020-03-13 13:14:46.113107"	73	5.36699701666667
"S200313"	"Response_Inhibition"	"LEFT"	"LEFT"	583.256900000038	600.0000012	""	n/a	n/a	n/a	n/a	n/a	n/a	"2020-03-13 13:14:46.721346"	"2020-03-13 13:14:47.513421"	74	5.36699701666667
"S200313"	"Response_Inhibition"	"RIGHT"	"RIGHT"	525.137599999994	650.0000013	""	n/a	n/a	n/a	n/a	n/a	n/a	"2020-03-13 13:14:48.172176"	"2020-03-13 13:14:48.905695"	75	5.36699701666667
"S200313"	"Response_Inhibition"	"LEFT"	"LEFT"	580.021599999895	1466.6666696	""	n/a	n/a	n/a	n/a	n/a	n/a	"2020-03-13 13:14:50.381105"	"2020-03-13 13:14:51.168399"	76	5.36699701666667
"S200313"	"Response_Inhibition"	"LEFT"	"LEFT"	564.018499999975	1300.0000026	""	n/a	n/a	n/a	n/a	n/a	n/a	"2020-03-13 13:14:52.477259"	"2020-03-13 13:14:53.249936"	77	5.36699701666667
"S200313"	"Response_Inhibition"	"RIGHT"	"RIGHT"	567.168400000014	1183.3333357	""	n/a	n/a	n/a	n/a	n/a	n/a	"2020-03-13 13:14:54.441971"	"2020-03-13 13:14:55.217431"	78	5.36699701666667
"S200313"	"Response_Inhibition"	"LEFT"	"LEFT"	476.0268	1450.0000029	""	n/a	n/a	n/a	n/a	n/a	n/a	"2020-03-13 13:14:56.677037"	"2020-03-13 13:14:57.361820"	79	5.36699701666667
"S200313"	"Response_Inhibition"	"RIGHT"	"RIGHT"	662.031800000022	1216.6666691	""	n/a	n/a	n/a	n/a	n/a	n/a	"2020-03-13 13:14:58.586577"	"2020-03-13 13:14:59.457050"	80	5.36699701666667
"S200313"	"Response_Inhibition"	"LEFT"	"LEFT"	450.794999999971	916.6666685	""	n/a	n/a	n/a	n/a	n/a	n/a	"2020-03-13 13:15:00.381836"	"2020-03-13 13:15:01.040392"	81	5.36699701666667
"S200313"	"Response_Inhibition"	"LEFT"	"LEFT"	337.384799999995	933.3333352	""	n/a	n/a	n/a	n/a	n/a	n/a	"2020-03-13 13:15:01.983789"	"2020-03-13 13:15:02.528128"	82	5.36699701666667
"S200313"	"Response_Inhibition"	"LEFT"	"Time_Max_Exceeded"	1500.04803370003	533.3333344	""	n/a	n/a	n/a	n/a	n/a	n/a	"2020-03-13 13:15:03.070884"	"2020-03-13 13:15:04.574304"	83	5.36699701666667
"S200313"	"Response_Inhibition"	"LEFT"	"LEFT"	554.496100000051	1366.6666694	""	n/a	n/a	n/a	n/a	n/a	n/a	"2020-03-13 13:15:05.950188"	"2020-03-13 13:15:06.712360"	84	5.36699701666667
"S200313"	"Response_Inhibition"	"RIGHT"	"Time_Max_Exceeded"	1500.05606699999	616.6666679	""	n/a	n/a	n/a	n/a	n/a	n/a	"2020-03-13 13:15:07.337887"	"2020-03-13 13:15:08.840848"	85	5.36699701666667
"S200313"	"Response_Inhibition"	"RIGHT"	"RIGHT"	543.408199999931	583.3333345	""	n/a	n/a	n/a	n/a	n/a	n/a	"2020-03-13 13:15:09.434055"	"2020-03-13 13:15:10.185047"	86	5.36699701666667
"S200313"	"Response_Inhibition"	"LEFT"	"LEFT"	598.236500000098	1233.3333358	""	n/a	n/a	n/a	n/a	n/a	n/a	"2020-03-13 13:15:11.426640"	"2020-03-13 13:15:12.234229"	87	5.36699701666667
"S200313"	"Response_Inhibition"	"LEFT"	"LEFT"	527.242899999919	1383.3333361	""	n/a	n/a	n/a	n/a	n/a	n/a	"2020-03-13 13:15:13.625555"	"2020-03-13 13:15:14.361206"	88	5.36699701666667
"S200313"	"Response_Inhibition"	"RIGHT"	"Time_Max_Exceeded"	1500.05383339995	683.3333347	""	n/a	n/a	n/a	n/a	n/a	n/a	"2020-03-13 13:15:15.054526"	"2020-03-13 13:15:16.557982"	89	5.36699701666667
"S200313"	"Response_Inhibition"	"RIGHT"	"RIGHT"	550.262500000031	683.3333347	""	n/a	n/a	n/a	n/a	n/a	n/a	"2020-03-13 13:15:17.251014"	"2020-03-13 13:15:18.009589"	90	5.36699701666667
"S200313"	"Response_Inhibition"	"RIGHT"	"RIGHT"	665.443200000027	533.3333344	""	n/a	n/a	n/a	n/a	n/a	n/a	"2020-03-13 13:15:18.551644"	"2020-03-13 13:15:19.425777"	91	5.36699701666667
"S200313"	"Response_Inhibition"	"LEFT"	"LEFT"	487.719299999981	783.3333349	""	n/a	n/a	n/a	n/a	n/a	n/a	"2020-03-13 13:15:20.217231"	"2020-03-13 13:15:20.913000"	92	5.36699701666667
"S200313"	"Response_Inhibition"	"RIGHT"	"RIGHT"	585.337299999992	550.0000011	""	n/a	n/a	n/a	n/a	n/a	n/a	"2020-03-13 13:15:21.471784"	"2020-03-13 13:15:22.265304"	93	5.36699701666667
"S200313"	"Response_Inhibition"	"RIGHT"	"RIGHT"	263.416600000028	1400.0000028	""	n/a	n/a	n/a	n/a	n/a	n/a	"2020-03-13 13:15:23.673509"	"2020-03-13 13:15:24.145493"	94	5.36699701666667
"S200313"	"Response_Inhibition"	"LEFT"	"LEFT"	603.370599999948	1066.6666688	""	n/a	n/a	n/a	n/a	n/a	n/a	"2020-03-13 13:15:25.221549"	"2020-03-13 13:15:26.032078"	95	5.36699701666667
"S200313"	"Response_Inhibition"	"LEFT"	"Time_Max_Exceeded"	1500.05823360001	1150.0000023	""	n/a	n/a	n/a	n/a	n/a	n/a	"2020-03-13 13:15:27.190494"	"2020-03-13 13:15:28.694001"	96	5.36699701666667
"S200313"	"Response_Inhibition"	"LEFT"	"LEFT"	459.806800000024	1183.3333357	""	n/a	n/a	n/a	n/a	n/a	n/a	"2020-03-13 13:15:29.886407"	"2020-03-13 13:15:30.554178"	97	5.36699701666667
"S200313"	"Response_Inhibition"	"RIGHT"	"RIGHT"	475.783700000079	1050.0000021	""	n/a	n/a	n/a	n/a	n/a	n/a	"2020-03-13 13:15:31.613206"	"2020-03-13 13:15:32.297676"	98	5.36699701666667
"S200313"	"Response_Inhibition"	"RIGHT"	"RIGHT"	328.507933399996	1466.6666696	""	n/a	n/a	n/a	n/a	n/a	n/a	"2020-03-13 13:15:33.773532"	"2020-03-13 13:15:34.313630"	99	5.36699701666667
"S200313"	"Response_Inhibition"	"RIGHT"	"Time_Max_Exceeded"	1500.0538004	566.6666678	""	n/a	n/a	n/a	n/a	n/a	n/a	"2020-03-13 13:15:34.889046"	"2020-03-13 13:15:36.392107"	100	5.36699701666667
"S200313"	"Response_Inhibition"	"RIGHT"	"RIGHT"	434.055100000023	733.3333348	""	n/a	n/a	n/a	n/a	n/a	n/a	"2020-03-13 13:15:37.135290"	"2020-03-13 13:15:37.777027"	101	5.36699701666667
"S200313"	"Response_Inhibition"	"RIGHT"	"RIGHT"	301.872133899988	1150.0000023	""	n/a	n/a	n/a	n/a	n/a	n/a	"2020-03-13 13:15:38.936346"	"2020-03-13 13:15:39.449817"	102	5.36699701666667
"S200313"	"Response_Inhibition"	"LEFT"	"Time_Max_Exceeded"	1500.04930009993	1333.333336	""	n/a	n/a	n/a	n/a	n/a	n/a	"2020-03-13 13:15:40.791565"	"2020-03-13 13:15:42.295031"	103	5.36699701666667
"S200313"	"Response_Inhibition"	"RIGHT"	"Time_Max_Exceeded"	1500.05790030002	1250.0000025	""	n/a	n/a	n/a	n/a	n/a	n/a	"2020-03-13 13:15:43.554939"	"2020-03-13 13:15:45.058075"	104	5.36699701666667
"S200313"	"Response_Inhibition"	"RIGHT"	"RIGHT"	627.188900000078	1050.0000021	""	n/a	n/a	n/a	n/a	n/a	n/a	"2020-03-13 13:15:46.118254"	"2020-03-13 13:15:46.951742"	105	5.36699701666667
"S200313"	"Response_Inhibition"	"LEFT"	"LEFT"	385.525700000017	1000.000002	""	n/a	n/a	n/a	n/a	n/a	n/a	"2020-03-13 13:15:47.960236"	"2020-03-13 13:15:48.553880"	106	5.36699701666667
"S200313"	"Response_Inhibition"	"LEFT"	"LEFT"	379.359099999988	683.3333347	""	n/a	n/a	n/a	n/a	n/a	n/a	"2020-03-13 13:15:49.245637"	"2020-03-13 13:15:49.832068"	107	5.36699701666667
"S200313"	"Response_Inhibition"	"LEFT"	"LEFT"	344.73939999998	1000.000002	""	n/a	n/a	n/a	n/a	n/a	n/a	"2020-03-13 13:15:50.840315"	"2020-03-13 13:15:51.393393"	108	5.36699701666667
"S200313"	"Response_Inhibition"	"LEFT"	"LEFT"	465.140800600017	1266.6666692	""	n/a	n/a	n/a	n/a	n/a	n/a	"2020-03-13 13:15:52.668188"	"2020-03-13 13:15:53.344089"	109	5.36699701666667
"S200313"	"Response_Inhibition"	"RIGHT"	"RIGHT"	589.903000000049	1266.6666692	""	n/a	n/a	n/a	n/a	n/a	n/a	"2020-03-13 13:15:54.618865"	"2020-03-13 13:15:55.417489"	110	5.36699701666667
"S200313"	"Response_Inhibition"	"RIGHT"	"Time_Max_Exceeded"	1500.05370050008	1350.0000027	""	n/a	n/a	n/a	n/a	n/a	n/a	"2020-03-13 13:15:56.776756"	"2020-03-13 13:15:58.279701"	111	5.36699701666667
"S200313"	"Response_Inhibition"	"LEFT"	"Time_Max_Exceeded"	1500.04670040005	1283.3333359	""	n/a	n/a	n/a	n/a	n/a	n/a	"2020-03-13 13:15:59.573180"	"2020-03-13 13:16:01.076583"	112	5.36699701666667
"S200313"	"Response_Inhibition"	"LEFT"	"LEFT"	381.377999999927	750.0000015	""	n/a	n/a	n/a	n/a	n/a	n/a	"2020-03-13 13:16:01.835804"	"2020-03-13 13:16:02.425123"	113	5.36699701666667
"S200313"	"Response_Inhibition"	"LEFT"	"LEFT"	558.667299999911	1200.0000024	""	n/a	n/a	n/a	n/a	n/a	n/a	"2020-03-13 13:16:03.634237"	"2020-03-13 13:16:04.400038"	114	5.36699701666667
"S200313"	"Response_Inhibition"	"LEFT"	"LEFT"	474.964699999987	733.3333348	""	n/a	n/a	n/a	n/a	n/a	n/a	"2020-03-13 13:16:05.141505"	"2020-03-13 13:16:05.825360"	115	5.36699701666667
"S200313"	"Response_Inhibition"	"RIGHT"	"RIGHT"	673.622899999941	533.3333344	""	n/a	n/a	n/a	n/a	n/a	n/a	"2020-03-13 13:16:06.367156"	"2020-03-13 13:16:07.247893"	116	5.36699701666667
"S200313"	"Response_Inhibition"	"RIGHT"	"RIGHT"	392.34399999998	1000.000002	""	n/a	n/a	n/a	n/a	n/a	n/a	"2020-03-13 13:16:08.256903"	"2020-03-13 13:16:08.857403"	117	5.36699701666667
"S200313"	"Response_Inhibition"	"RIGHT"	"RIGHT"	469.672100000025	1216.6666691	""	n/a	n/a	n/a	n/a	n/a	n/a	"2020-03-13 13:16:10.083276"	"2020-03-13 13:16:10.761340"	118	5.36699701666667
"S200313"	"Response_Inhibition"	"RIGHT"	"Time_Max_Exceeded"	1500.05906670007	966.6666686	""	n/a	n/a	n/a	n/a	n/a	n/a	"2020-03-13 13:16:11.737111"	"2020-03-13 13:16:13.239786"	119	5.36699701666667
"S200313"	"Response_Inhibition"	"LEFT"	"LEFT"	503.27720000007	1016.6666687	""	n/a	n/a	n/a	n/a	n/a	n/a	"2020-03-13 13:16:14.266352"	"2020-03-13 13:16:14.977494"	120	5.36699701666667
"S200313"	"Response_Inhibition"	"LEFT"	"Time_Max_Exceeded"	1500.05173370001	583.3333345	""	n/a	n/a	n/a	n/a	n/a	n/a	"2020-03-13 13:16:15.570215"	"2020-03-13 13:16:17.073221"	121	5.36699701666667
"S200313"	"Response_Inhibition"	"RIGHT"	"RIGHT"	518.71570000003	933.3333352	""	n/a	n/a	n/a	n/a	n/a	n/a	"2020-03-13 13:16:18.017725"	"2020-03-13 13:16:18.744160"	122	5.36699701666667
"S200313"	"Response_Inhibition"	"LEFT"	"Time_Max_Exceeded"	1500.05213369999	950.0000019	""	n/a	n/a	n/a	n/a	n/a	n/a	"2020-03-13 13:16:19.702218"	"2020-03-13 13:16:21.206165"	123	5.36699701666667
"S200313"	"Response_Inhibition"	"LEFT"	"Time_Max_Exceeded"	1500.04943350003	633.3333346	""	n/a	n/a	n/a	n/a	n/a	n/a	"2020-03-13 13:16:21.848808"	"2020-03-13 13:16:23.351425"	124	5.36699701666667
"S200313"	"Response_Inhibition"	"RIGHT"	"RIGHT"	340.186266999963	1416.6666695	""	n/a	n/a	n/a	n/a	n/a	n/a	"2020-03-13 13:16:24.777313"	"2020-03-13 13:16:25.329197"	125	5.36699701666667
"S200313"	"Response_Inhibition"	"RIGHT"	"RIGHT"	619.306800000004	500.000001	""	n/a	n/a	n/a	n/a	n/a	n/a	"2020-03-13 13:16:25.837156"	"2020-03-13 13:16:26.664719"	126	5.36699701666667
"S200313"	"Response_Inhibition"	"RIGHT"	"RIGHT"	421.111300000007	1266.6666692	""	n/a	n/a	n/a	n/a	n/a	n/a	"2020-03-13 13:16:27.939660"	"2020-03-13 13:16:28.569282"	127	5.36699701666667
"S200313"	"Response_Inhibition"	"LEFT"	"LEFT"	532.127400000036	1266.6666692	""	n/a	n/a	n/a	n/a	n/a	n/a	"2020-03-13 13:16:29.845076"	"2020-03-13 13:16:30.585106"	128	5.36699701666667
"S200313"	"Response_Inhibition"	"LEFT"	"LEFT"	692.281699999967	683.3333347	""	n/a	n/a	n/a	n/a	n/a	n/a	"2020-03-13 13:16:31.276876"	"2020-03-13 13:16:32.177190"	129	5.36699701666667
"S200313"	"Response_Inhibition"	"LEFT"	"LEFT"	340.952099999981	1050.0000021	""	n/a	n/a	n/a	n/a	n/a	n/a	"2020-03-13 13:16:33.235412"	"2020-03-13 13:16:33.785480"	130	5.36699701666667
"S200313"	"Response_Inhibition"	"RIGHT"	"RIGHT"	646.453400000041	1016.6666687	""	n/a	n/a	n/a	n/a	n/a	n/a	"2020-03-13 13:16:34.810316"	"2020-03-13 13:16:35.664370"	131	5.36699701666667
"S200313"	"Response_Inhibition"	"LEFT"	"LEFT"	340.463100000079	883.3333351	""	n/a	n/a	n/a	n/a	n/a	n/a	"2020-03-13 13:16:36.556744"	"2020-03-13 13:16:37.106648"	132	5.36699701666667
"S200313"	"Response_Inhibition"	"RIGHT"	"RIGHT"	333.466299999941	950.0000019	""	n/a	n/a	n/a	n/a	n/a	n/a	"2020-03-13 13:16:38.067573"	"2020-03-13 13:16:38.607754"	133	5.36699701666667
"S200313"	"Response_Inhibition"	"RIGHT"	"RIGHT"	256.78906679995	900.0000018	""	n/a	n/a	n/a	n/a	n/a	n/a	"2020-03-13 13:16:39.516734"	"2020-03-13 13:16:39.984739"	134	5.36699701666667
"S200313"	"Response_Inhibition"	"RIGHT"	"RIGHT"	303.672567100008	516.6666677	""	n/a	n/a	n/a	n/a	n/a	n/a	"2020-03-13 13:16:40.510360"	"2020-03-13 13:16:41.024942"	135	5.36699701666667
"S200313"	"Response_Inhibition"	"LEFT"	"LEFT"	281.644966999962	666.666668	""	n/a	n/a	n/a	n/a	n/a	n/a	"2020-03-13 13:16:41.700503"	"2020-03-13 13:16:42.192059"	136	5.36699701666667
"S200313"	"Response_Inhibition"	"LEFT"	"LEFT"	584.008400000016	983.3333353	""	n/a	n/a	n/a	n/a	n/a	n/a	"2020-03-13 13:16:43.185366"	"2020-03-13 13:16:43.976833"	137	5.36699701666667
"S200313"	"Response_Inhibition"	"LEFT"	"LEFT"	286.716099999921	1216.6666691	""	n/a	n/a	n/a	n/a	n/a	n/a	"2020-03-13 13:16:45.201777"	"2020-03-13 13:16:45.695844"	138	5.36699701666667
"S200313"	"Response_Inhibition"	"RIGHT"	"RIGHT"	277.952266899928	783.3333349	""	n/a	n/a	n/a	n/a	n/a	n/a	"2020-03-13 13:16:46.487616"	"2020-03-13 13:16:46.976581"	139	5.36699701666667
"S200313"	"Response_Inhibition"	"LEFT"	"LEFT"	261.818299999959	1250.0000025	""	n/a	n/a	n/a	n/a	n/a	n/a	"2020-03-13 13:16:48.234857"	"2020-03-13 13:16:48.704963"	140	5.36699701666667
"S200313"	"Response_Inhibition"	"LEFT"	"LEFT"	322.857399999975	516.6666677	""	n/a	n/a	n/a	n/a	n/a	n/a	"2020-03-13 13:16:49.230130"	"2020-03-13 13:16:49.761020"	141	5.36699701666667
"S200313"	"Response_Inhibition"	"LEFT"	"LEFT"	288.263500000085	583.3333345	""	n/a	n/a	n/a	n/a	n/a	n/a	"2020-03-13 13:16:50.352570"	"2020-03-13 13:16:50.850338"	142	5.36699701666667
"S200313"	"Response_Inhibition"	"RIGHT"	"RIGHT"	238.094166899982	1316.6666693	""	n/a	n/a	n/a	n/a	n/a	n/a	"2020-03-13 13:16:52.175572"	"2020-03-13 13:16:52.624390"	143	5.36699701666667
"S200313"	"Response_Inhibition"	"LEFT"	"LEFT"	315.248300000007	1316.6666693	""	n/a	n/a	n/a	n/a	n/a	n/a	"2020-03-13 13:16:53.949869"	"2020-03-13 13:16:54.473454"	144	5.36699701666667
"S200313"	"Response_Inhibition"	"LEFT"	"LEFT"	351.458033500044	900.0000018	""	n/a	n/a	n/a	n/a	n/a	n/a	"2020-03-13 13:16:55.382253"	"2020-03-13 13:16:55.944445"	145	5.36699701666667
"S200313"	"Response_Inhibition"	"LEFT"	"LEFT"	297.266599999944	1350.0000027	""	n/a	n/a	n/a	n/a	n/a	n/a	"2020-03-13 13:16:57.303501"	"2020-03-13 13:16:57.809666"	146	5.36699701666667
"S200313"	"Response_Inhibition"	"LEFT"	"LEFT"	300.931433899987	550.0000011	""	n/a	n/a	n/a	n/a	n/a	n/a	"2020-03-13 13:16:58.368508"	"2020-03-13 13:16:58.883086"	147	5.36699701666667
"S200313"	"Response_Inhibition"	"RIGHT"	"RIGHT"	220.121400000039	833.333335	""	n/a	n/a	n/a	n/a	n/a	n/a	"2020-03-13 13:16:59.724416"	"2020-03-13 13:17:00.151892"	148	5.36699701666667
"S200313"	"Response_Inhibition"	"RIGHT"	"RIGHT"	237.768299999971	1433.3333362	""	n/a	n/a	n/a	n/a	n/a	n/a	"2020-03-13 13:17:01.595365"	"2020-03-13 13:17:02.041136"	149	5.36699701666667
"S200313"	"Response_Inhibition"	"LEFT"	"LEFT"	253.667199999995	633.3333346	""	n/a	n/a	n/a	n/a	n/a	n/a	"2020-03-13 13:17:02.683088"	"2020-03-13 13:17:03.143902"	150	5.36699701666667
"S200313"	"Response_Inhibition"	"RIGHT"	"RIGHT"	257.80156670002	1283.3333359	""	n/a	n/a	n/a	n/a	n/a	n/a	"2020-03-13 13:17:04.436299"	"2020-03-13 13:17:04.904110"	151	5.36699701666667
"S200313"	"Response_Inhibition"	"RIGHT"	"RIGHT"	560.817499999985	583.3333345	""	n/a	n/a	n/a	n/a	n/a	n/a	"2020-03-13 13:17:05.496481"	"2020-03-13 13:17:06.264604"	152	5.36699701666667
"S200313"	"Response_Inhibition"	"RIGHT"	"RIGHT"	438.449200000036	850.0000017	""	n/a	n/a	n/a	n/a	n/a	n/a	"2020-03-13 13:17:07.122833"	"2020-03-13 13:17:07.769167"	153	5.36699701666667
"S200313"	"Response_Inhibition"	"LEFT"	"LEFT"	240.644300099917	1483.3333363	""	n/a	n/a	n/a	n/a	n/a	n/a	"2020-03-13 13:17:09.260684"	"2020-03-13 13:17:09.712933"	154	5.36699701666667
"S200313"	"Response_Inhibition"	"LEFT"	"LEFT"	349.53900000005	850.0000017	""	n/a	n/a	n/a	n/a	n/a	n/a	"2020-03-13 13:17:10.571803"	"2020-03-13 13:17:11.129081"	155	5.36699701666667
"S200313"	"Response_Inhibition"	"LEFT"	"LEFT"	381.099167200021	1166.666669	""	n/a	n/a	n/a	n/a	n/a	n/a	"2020-03-13 13:17:12.304927"	"2020-03-13 13:17:12.897668"	156	5.36699701666667
"S200313"	"Response_Inhibition"	"LEFT"	"LEFT"	624.773000000005	500.000001	""	n/a	n/a	n/a	n/a	n/a	n/a	"2020-03-13 13:17:13.408647"	"2020-03-13 13:17:14.241569"	157	5.36699701666667
"S200313"	"Response_Inhibition"	"LEFT"	"LEFT"	477.949599999988	1400.0000028	""	n/a	n/a	n/a	n/a	n/a	n/a	"2020-03-13 13:17:15.651019"	"2020-03-13 13:17:16.335941"	158	5.36699701666667
"S200313"	"Response_Inhibition"	"RIGHT"	"RIGHT"	660.959100000014	900.0000018	""	n/a	n/a	n/a	n/a	n/a	n/a	"2020-03-13 13:17:17.244455"	"2020-03-13 13:17:18.113348"	159	5.36699701666667
"S200313"	"Response_Inhibition"	"LEFT"	"LEFT"	457.319400000074	566.6666678	""	n/a	n/a	n/a	n/a	n/a	n/a	"2020-03-13 13:17:18.687979"	"2020-03-13 13:17:19.353790"	160	5.36699701666667
"S200313"	"Response_Selection"	"RIGHT"	"RIGHT"	436.052800000027	866.6666684	n/a	n/a	n/a	n/a	n/a	n/a	n/a	"2020-03-13 13:09:55.628989"	"2020-03-13 13:09:56.272859"	1	3.00897086666667
"S200313"	"Response_Selection"	"RIGHT"	"RIGHT"	302.33869999995	1450.0000029	n/a	n/a	n/a	n/a	n/a	n/a	n/a	"2020-03-13 13:09:57.732035"	"2020-03-13 13:09:58.243570"	2	3.00897086666667
"S200313"	"Response_Selection"	"RIGHT"	"RIGHT"	303.156999999999	550.0000011	n/a	n/a	n/a	n/a	n/a	n/a	n/a	"2020-03-13 13:09:58.802012"	"2020-03-13 13:09:59.313584"	3	3.00897086666667
"S200313"	"Response_Selection"	"RIGHT"	"RIGHT"	288.235600000007	983.3333353	n/a	n/a	n/a	n/a	n/a	n/a	n/a	"2020-03-13 13:10:00.304940"	"2020-03-13 13:10:00.800813"	4	3.00897086666667
"S200313"	"Response_Selection"	"LEFT"	"LEFT"	292.25630000002	1266.6666692	n/a	n/a	n/a	n/a	n/a	n/a	n/a	"2020-03-13 13:10:02.076968"	"2020-03-13 13:10:02.577056"	5	3.00897086666667
"S200313"	"Response_Selection"	"RIGHT"	"RIGHT"	251.793899999996	883.3333351	n/a	n/a	n/a	n/a	n/a	n/a	n/a	"2020-03-13 13:10:03.469581"	"2020-03-13 13:10:03.928288"	6	3.00897086666667
"S200313"	"Response_Selection"	"LEFT"	"LEFT"	261.787499999969	1250.0000025	n/a	n/a	n/a	n/a	n/a	n/a	n/a	"2020-03-13 13:10:05.187141"	"2020-03-13 13:10:05.657311"	7	3.00897086666667
"S200313"	"Response_Selection"	"LEFT"	"LEFT"	308.62970000004	1450.0000029	n/a	n/a	n/a	n/a	n/a	n/a	n/a	"2020-03-13 13:10:07.116932"	"2020-03-13 13:10:07.634517"	8	3.00897086666667
"S200313"	"Response_Selection"	"RIGHT"	"RIGHT"	244.362499999966	1250.0000025	n/a	n/a	n/a	n/a	n/a	n/a	n/a	"2020-03-13 13:10:08.892841"	"2020-03-13 13:10:09.345228"	9	3.00897086666667
"S200313"	"Response_Selection"	"LEFT"	"LEFT"	253.42900000004	1216.6666691	n/a	n/a	n/a	n/a	n/a	n/a	n/a	"2020-03-13 13:10:10.571633"	"2020-03-13 13:10:11.033631"	10	3.00897086666667
"S200313"	"Response_Selection"	"LEFT"	"LEFT"	313.568599999996	933.3333352	n/a	n/a	n/a	n/a	n/a	n/a	n/a	"2020-03-13 13:10:11.975867"	"2020-03-13 13:10:12.497483"	11	3.00897086666667
"S200313"	"Response_Selection"	"LEFT"	"LEFT"	294.954500000017	600.0000012	n/a	n/a	n/a	n/a	n/a	n/a	n/a	"2020-03-13 13:10:13.106606"	"2020-03-13 13:10:13.611409"	12	3.00897086666667
"S200313"	"Response_Selection"	"LEFT"	"LEFT"	278.654500000016	916.6666685	n/a	n/a	n/a	n/a	n/a	n/a	n/a	"2020-03-13 13:10:14.538071"	"2020-03-13 13:10:15.025129"	13	3.00897086666667
"S200313"	"Response_Selection"	"LEFT"	"LEFT"	268.947500000024	1466.6666696	n/a	n/a	n/a	n/a	n/a	n/a	n/a	"2020-03-13 13:10:16.500552"	"2020-03-13 13:10:16.976334"	14	3.00897086666667
"S200313"	"Response_Selection"	"RIGHT"	"RIGHT"	312.245500000017	1400.0000028	n/a	n/a	n/a	n/a	n/a	n/a	n/a	"2020-03-13 13:10:18.385172"	"2020-03-13 13:10:18.905444"	15	3.00897086666667
"S200313"	"Response_Selection"	"RIGHT"	"RIGHT"	275.806199999977	1083.3333355	n/a	n/a	n/a	n/a	n/a	n/a	n/a	"2020-03-13 13:10:19.997037"	"2020-03-13 13:10:20.480958"	16	3.00897086666667
"S200313"	"Response_Selection"	"RIGHT"	"RIGHT"	435.070399999972	1316.6666693	n/a	n/a	n/a	n/a	n/a	n/a	n/a	"2020-03-13 13:10:21.806298"	"2020-03-13 13:10:22.447843"	17	3.00897086666667
"S200313"	"Response_Selection"	"RIGHT"	"RIGHT"	417.13390000001	783.3333349	n/a	n/a	n/a	n/a	n/a	n/a	n/a	"2020-03-13 13:10:23.240292"	"2020-03-13 13:10:23.865290"	18	3.00897086666667
"S200313"	"Response_Selection"	"RIGHT"	"RIGHT"	294.090599999947	633.3333346	n/a	n/a	n/a	n/a	n/a	n/a	n/a	"2020-03-13 13:10:24.506688"	"2020-03-13 13:10:25.009555"	19	3.00897086666667
"S200313"	"Response_Selection"	"RIGHT"	"RIGHT"	266.53749999997	1116.6666689	n/a	n/a	n/a	n/a	n/a	n/a	n/a	"2020-03-13 13:10:26.134276"	"2020-03-13 13:10:26.609427"	20	3.00897086666667
"S200313"	"Response_Selection"	"LEFT"	"LEFT"	255.034000000023	983.3333353	n/a	n/a	n/a	n/a	n/a	n/a	n/a	"2020-03-13 13:10:27.601884"	"2020-03-13 13:10:28.064790"	21	3.00897086666667
"S200313"	"Response_Selection"	"RIGHT"	"RIGHT"	259.996999999998	700.0000014	n/a	n/a	n/a	n/a	n/a	n/a	n/a	"2020-03-13 13:10:28.773450"	"2020-03-13 13:10:29.241925"	22	3.00897086666667
"S200313"	"Response_Selection"	"LEFT"	"LEFT"	272.161299999993	750.0000015	n/a	n/a	n/a	n/a	n/a	n/a	n/a	"2020-03-13 13:10:30.000593"	"2020-03-13 13:10:30.481230"	23	3.00897086666667
"S200313"	"Response_Selection"	"RIGHT"	"RIGHT"	276.683800000001	1033.3333354	n/a	n/a	n/a	n/a	n/a	n/a	n/a	"2020-03-13 13:10:31.524591"	"2020-03-13 13:10:32.009157"	24	3.00897086666667
"S200313"	"Response_Selection"	"RIGHT"	"RIGHT"	274.072200000035	1133.3333356	n/a	n/a	n/a	n/a	n/a	n/a	n/a	"2020-03-13 13:10:33.150971"	"2020-03-13 13:10:33.632727"	25	3.00897086666667
"S200313"	"Response_Selection"	"RIGHT"	"RIGHT"	379.678300000023	500.000001	n/a	n/a	n/a	n/a	n/a	n/a	n/a	"2020-03-13 13:10:34.141670"	"2020-03-13 13:10:34.729617"	26	3.00897086666667
"S200313"	"Response_Selection"	"LEFT"	"LEFT"	282.83620000002	1500.000003	n/a	n/a	n/a	n/a	n/a	n/a	n/a	"2020-03-13 13:10:36.238255"	"2020-03-13 13:10:36.729445"	27	3.00897086666667
"S200313"	"Response_Selection"	"LEFT"	"LEFT"	299.529900000039	683.3333347	n/a	n/a	n/a	n/a	n/a	n/a	n/a	"2020-03-13 13:10:37.421676"	"2020-03-13 13:10:37.928008"	28	3.00897086666667
"S200313"	"Response_Selection"	"LEFT"	"LEFT"	308.484000000021	1316.6666693	n/a	n/a	n/a	n/a	n/a	n/a	n/a	"2020-03-13 13:10:39.252817"	"2020-03-13 13:10:39.769836"	29	3.00897086666667
"S200313"	"Response_Selection"	"LEFT"	"LEFT"	285.085399999957	650.0000013	n/a	n/a	n/a	n/a	n/a	n/a	n/a	"2020-03-13 13:10:40.428175"	"2020-03-13 13:10:40.923390"	30	3.00897086666667
"S200313"	"Response_Selection"	"LEFT"	"LEFT"	358.825200000013	1166.666669	n/a	n/a	n/a	n/a	n/a	n/a	n/a	"2020-03-13 13:10:42.098241"	"2020-03-13 13:10:42.664750"	31	3.00897086666667
"S200313"	"Response_Selection"	"LEFT"	"LEFT"	273.281699999984	966.6666686	n/a	n/a	n/a	n/a	n/a	n/a	n/a	"2020-03-13 13:10:43.640155"	"2020-03-13 13:10:44.120315"	32	3.00897086666667
"S200313"	"Response_Selection"	"RIGHT"	"RIGHT"	277.463999999952	1466.6666696	n/a	n/a	n/a	n/a	n/a	n/a	n/a	"2020-03-13 13:10:45.596098"	"2020-03-13 13:10:46.081170"	33	3.00897086666667
"S200313"	"Response_Selection"	"LEFT"	"LEFT"	262.876500000004	1016.6666687	n/a	n/a	n/a	n/a	n/a	n/a	n/a	"2020-03-13 13:10:47.106424"	"2020-03-13 13:10:47.578571"	34	3.00897086666667
"S200313"	"Response_Selection"	"LEFT"	"LEFT"	302.035100000012	533.3333344	n/a	n/a	n/a	n/a	n/a	n/a	n/a	"2020-03-13 13:10:48.123229"	"2020-03-13 13:10:48.632784"	35	3.00897086666667
"S200313"	"Response_Selection"	"RIGHT"	"RIGHT"	259.503999999993	1500.000003	n/a	n/a	n/a	n/a	n/a	n/a	n/a	"2020-03-13 13:10:50.141391"	"2020-03-13 13:10:50.608109"	36	3.00897086666667
"S200313"	"Response_Selection"	"RIGHT"	"RIGHT"	272.656799999993	583.3333345	n/a	n/a	n/a	n/a	n/a	n/a	n/a	"2020-03-13 13:10:51.200541"	"2020-03-13 13:10:51.680027"	37	3.00897086666667
"S200313"	"Response_Selection"	"RIGHT"	"RIGHT"	272.313499999996	600.0000012	n/a	n/a	n/a	n/a	n/a	n/a	n/a	"2020-03-13 13:10:52.288392"	"2020-03-13 13:10:52.767733"	38	3.00897086666667
"S200313"	"Response_Selection"	"RIGHT"	"RIGHT"	303.3863	833.333335	n/a	n/a	n/a	n/a	n/a	n/a	n/a	"2020-03-13 13:10:53.610032"	"2020-03-13 13:10:54.122215"	39	3.00897086666667
"S200313"	"Response_Selection"	"LEFT"	"LEFT"	277.19460000003	633.3333346	n/a	n/a	n/a	n/a	n/a	n/a	n/a	"2020-03-13 13:10:54.764024"	"2020-03-13 13:10:55.249603"	40	3.00897086666667
"S200313"	"Response_Selection"	"LEFT"	"LEFT"	313.621099999978	1133.3333356	n/a	n/a	n/a	n/a	n/a	n/a	n/a	"2020-03-13 13:10:56.391795"	"2020-03-13 13:10:56.912119"	41	3.00897086666667
"S200313"	"Response_Selection"	"LEFT"	"LEFT"	351.415099999997	1400.0000028	n/a	n/a	n/a	n/a	n/a	n/a	n/a	"2020-03-13 13:10:58.321489"	"2020-03-13 13:10:58.880944"	42	3.00897086666667
"S200313"	"Response_Selection"	"LEFT"	"LEFT"	320.246399999974	783.3333349	n/a	n/a	n/a	n/a	n/a	n/a	n/a	"2020-03-13 13:10:59.672778"	"2020-03-13 13:11:00.202544"	43	3.00897086666667
"S200313"	"Response_Selection"	"RIGHT"	"RIGHT"	392.956700000013	1300.0000026	n/a	n/a	n/a	n/a	n/a	n/a	n/a	"2020-03-13 13:11:01.512424"	"2020-03-13 13:11:02.113150"	44	3.00897086666667
"S200313"	"Response_Selection"	"RIGHT"	"RIGHT"	266.961400000014	916.6666685	n/a	n/a	n/a	n/a	n/a	n/a	n/a	"2020-03-13 13:11:03.038484"	"2020-03-13 13:11:03.513212"	45	3.00897086666667
"S200313"	"Response_Selection"	"RIGHT"	"RIGHT"	370.264399999996	733.3333348	n/a	n/a	n/a	n/a	n/a	n/a	n/a	"2020-03-13 13:11:04.255095"	"2020-03-13 13:11:04.833116"	46	3.00897086666667
"S200313"	"Response_Selection"	"LEFT"	"LEFT"	299.525500000016	1083.3333355	n/a	n/a	n/a	n/a	n/a	n/a	n/a	"2020-03-13 13:11:05.925211"	"2020-03-13 13:11:06.433581"	47	3.00897086666667
"S200313"	"Response_Selection"	"RIGHT"	"RIGHT"	272.511699999995	966.6666686	n/a	n/a	n/a	n/a	n/a	n/a	n/a	"2020-03-13 13:11:07.408253"	"2020-03-13 13:11:07.889650"	48	3.00897086666667
"S200313"	"Response_Selection"	"LEFT"	"RIGHT"	335.431800000038	583.3333345	n/a	n/a	n/a	n/a	n/a	n/a	n/a	"2020-03-13 13:11:08.481786"	"2020-03-13 13:11:09.024911"	49	3.00897086666667
"S200313"	"Response_Selection"	"LEFT"	"LEFT"	308.606300000008	883.3333351	n/a	n/a	n/a	n/a	n/a	n/a	n/a	"2020-03-13 13:11:09.916335"	"2020-03-13 13:11:10.433678"	50	3.00897086666667
"S200313"	"Response_Selection"	"RIGHT"	"RIGHT"	406.030999999984	1216.6666691	n/a	n/a	n/a	n/a	n/a	n/a	n/a	"2020-03-13 13:11:11.659427"	"2020-03-13 13:11:12.273544"	51	3.00897086666667
"S200313"	"Response_Selection"	"RIGHT"	"RIGHT"	400.739700000031	1166.666669	n/a	n/a	n/a	n/a	n/a	n/a	n/a	"2020-03-13 13:11:13.448681"	"2020-03-13 13:11:14.057192"	52	3.00897086666667
"S200313"	"Response_Selection"	"LEFT"	"LEFT"	305.249199999992	1350.0000027	n/a	n/a	n/a	n/a	n/a	n/a	n/a	"2020-03-13 13:11:15.415696"	"2020-03-13 13:11:15.929512"	53	3.00897086666667
"S200313"	"Response_Selection"	"LEFT"	"LEFT"	355.397399999958	700.0000014	n/a	n/a	n/a	n/a	n/a	n/a	n/a	"2020-03-13 13:11:16.638057"	"2020-03-13 13:11:17.201151"	54	3.00897086666667
"S200313"	"Response_Selection"	"LEFT"	"LEFT"	276.84320000003	866.6666684	n/a	n/a	n/a	n/a	n/a	n/a	n/a	"2020-03-13 13:11:18.076080"	"2020-03-13 13:11:18.560827"	55	3.00897086666667
"S200313"	"Response_Selection"	"RIGHT"	"RIGHT"	280.382400000008	1350.0000027	n/a	n/a	n/a	n/a	n/a	n/a	n/a	"2020-03-13 13:11:19.920618"	"2020-03-13 13:11:20.409344"	56	3.00897086666667
"S200313"	"Response_Selection"	"RIGHT"	"RIGHT"	366.679800000043	1416.6666695	n/a	n/a	n/a	n/a	n/a	n/a	n/a	"2020-03-13 13:11:21.834767"	"2020-03-13 13:11:22.409691"	57	3.00897086666667
"S200313"	"Response_Selection"	"RIGHT"	"RIGHT"	425.720600000034	533.3333344	n/a	n/a	n/a	n/a	n/a	n/a	n/a	"2020-03-13 13:11:22.951114"	"2020-03-13 13:11:23.583738"	58	3.00897086666667
"S200313"	"Response_Selection"	"RIGHT"	"RIGHT"	422.299599999974	1266.6666692	n/a	n/a	n/a	n/a	n/a	n/a	n/a	"2020-03-13 13:11:24.859082"	"2020-03-13 13:11:25.489710"	59	3.00897086666667
"S200313"	"Response_Selection"	"RIGHT"	"RIGHT"	308.361899999966	1066.6666688	n/a	n/a	n/a	n/a	n/a	n/a	n/a	"2020-03-13 13:11:26.564931"	"2020-03-13 13:11:27.081457"	60	3.00897086666667
"S200313"	"Response_Selection"	"LEFT"	"LEFT"	267.170999999962	1300.0000026	n/a	n/a	n/a	n/a	n/a	n/a	n/a	"2020-03-13 13:11:28.390089"	"2020-03-13 13:11:28.864229"	61	3.00897086666667
"S200313"	"Response_Selection"	"LEFT"	"LEFT"	324.004200000047	1116.6666689	n/a	n/a	n/a	n/a	n/a	n/a	n/a	"2020-03-13 13:11:29.989300"	"2020-03-13 13:11:30.521550"	62	3.00897086666667
"S200313"	"Response_Selection"	"LEFT"	"LEFT"	324.371400000018	833.333335	n/a	n/a	n/a	n/a	n/a	n/a	n/a	"2020-03-13 13:11:31.364570"	"2020-03-13 13:11:31.897032"	63	3.00897086666667
"S200313"	"Response_Selection"	"LEFT"	"LEFT"	342.824199999995	1416.6666695	n/a	n/a	n/a	n/a	n/a	n/a	n/a	"2020-03-13 13:11:33.322316"	"2020-03-13 13:11:33.872970"	64	3.00897086666667
"S200313"	"Response_Selection"	"LEFT"	"LEFT"	342.492199999981	1033.3333354	n/a	n/a	n/a	n/a	n/a	n/a	n/a	"2020-03-13 13:11:34.914458"	"2020-03-13 13:11:35.464088"	65	3.00897086666667
"S200313"	"Response_Selection"	"RIGHT"	"RIGHT"	392.140100000006	1200.0000024	n/a	n/a	n/a	n/a	n/a	n/a	n/a	"2020-03-13 13:11:36.673219"	"2020-03-13 13:11:37.273610"	66	3.00897086666667
"S200313"	"Response_Selection"	"RIGHT"	"RIGHT"	336.02719999999	750.0000015	n/a	n/a	n/a	n/a	n/a	n/a	n/a	"2020-03-13 13:11:38.033328"	"2020-03-13 13:11:38.577601"	67	3.00897086666667
"S200313"	"Response_Selection"	"RIGHT"	"RIGHT"	324.461999999983	650.0000013	n/a	n/a	n/a	n/a	n/a	n/a	n/a	"2020-03-13 13:11:39.237071"	"2020-03-13 13:11:39.768863"	68	3.00897086666667
"S200313"	"Response_Selection"	"LEFT"	"LEFT"	370.031399999959	550.0000011	n/a	n/a	n/a	n/a	n/a	n/a	n/a	"2020-03-13 13:11:40.326978"	"2020-03-13 13:11:40.905547"	69	3.00897086666667
"S200313"	"Response_Selection"	"LEFT"	"LEFT"	291.412900000012	1066.6666688	n/a	n/a	n/a	n/a	n/a	n/a	n/a	"2020-03-13 13:11:41.981962"	"2020-03-13 13:11:42.480982"	70	3.00897086666667
"S200313"	"Response_Selection"	"LEFT"	"LEFT"	367.252899999983	800.0000016	n/a	n/a	n/a	n/a	n/a	n/a	n/a	"2020-03-13 13:11:43.289636"	"2020-03-13 13:11:43.863761"	71	3.00897086666667
"S200313"	"Response_Selection"	"RIGHT"	"RIGHT"	312.229900000034	800.0000016	n/a	n/a	n/a	n/a	n/a	n/a	n/a	"2020-03-13 13:11:44.673171"	"2020-03-13 13:11:45.193053"	72	3.00897086666667
"S200313"	"Response_Selection"	"LEFT"	"LEFT"	321.105200000034	733.3333348	n/a	n/a	n/a	n/a	n/a	n/a	n/a	"2020-03-13 13:11:45.935908"	"2020-03-13 13:11:46.465647"	73	3.00897086666667
"S200313"	"Response_Selection"	"RIGHT"	"RIGHT"	303.376600000036	1366.6666694	n/a	n/a	n/a	n/a	n/a	n/a	n/a	"2020-03-13 13:11:47.841205"	"2020-03-13 13:11:48.352870"	74	3.00897086666667
"S200313"	"Response_Selection"	"RIGHT"	"RIGHT"	291.527699999961	683.3333347	n/a	n/a	n/a	n/a	n/a	n/a	n/a	"2020-03-13 13:11:49.045590"	"2020-03-13 13:11:49.545630"	75	3.00897086666667
"S200313"	"Response_Selection"	"LEFT"	"LEFT"	296.230199999968	1366.6666694	n/a	n/a	n/a	n/a	n/a	n/a	n/a	"2020-03-13 13:11:50.921317"	"2020-03-13 13:11:51.425399"	76	3.00897086666667
"S200313"	"Response_Selection"	"LEFT"	"LEFT"	279.206400000021	1200.0000024	n/a	n/a	n/a	n/a	n/a	n/a	n/a	"2020-03-13 13:11:52.633680"	"2020-03-13 13:11:53.121333"	77	3.00897086666667
"S200313"	"Response_Selection"	"RIGHT"	"RIGHT"	374.290400000007	1016.6666687	n/a	n/a	n/a	n/a	n/a	n/a	n/a	"2020-03-13 13:11:54.146535"	"2020-03-13 13:11:54.728871"	78	3.00897086666667
"S200313"	"Response_Selection"	"LEFT"	"LEFT"	395.740499999988	500.000001	n/a	n/a	n/a	n/a	n/a	n/a	n/a	"2020-03-13 13:11:55.237714"	"2020-03-13 13:11:55.840985"	79	3.00897086666667
"S200313"	"Response_Selection"	"RIGHT"	"RIGHT"	273.761699999966	933.3333352	n/a	n/a	n/a	n/a	n/a	n/a	n/a	"2020-03-13 13:11:56.782800"	"2020-03-13 13:11:57.264168"	80	3.00897086666667
