"Participant"	"Task"	"Stimulus_Side"	"Response"	"RT"	"ITI"	"Previous_Response"	"Previous_RT"	"Stop_Signal"	"Stop_Signal_RT"	"Conflict"	"Cue_Response"	"Cue_Response_RT"	"Trial_Onset"	"Trial_End"	"Trial_Order"	"Duration"
"S200221"	"Conflict_Resolution"	"RIGHT"	"RIGHT"	430.119700000091	950.0000019	n/a	n/a	n/a	n/a	"False"	n/a	n/a	"2020-02-21 11:04:51.947581"	"2020-02-21 11:04:52.587346"	1	6.61093728333333
"S200221"	"Conflict_Resolution"	"LEFT"	"LEFT"	777.711599999975	1050.0000021	n/a	n/a	n/a	n/a	"True"	n/a	n/a	"2020-02-21 11:04:53.656134"	"2020-02-21 11:04:54.642272"	2	6.61093728333333
"S200221"	"Conflict_Resolution"	"LEFT"	"LEFT"	368.8085	1066.6666688	n/a	n/a	n/a	n/a	"False"	n/a	n/a	"2020-02-21 11:04:55.729424"	"2020-02-21 11:04:56.305556"	3	6.61093728333333
"S200221"	"Conflict_Resolution"	"RIGHT"	"RIGHT"	392.918300000019	883.3333351	n/a	n/a	n/a	n/a	"False"	n/a	n/a	"2020-02-21 11:04:57.209609"	"2020-02-21 11:04:57.809716"	4	6.61093728333333
"S200221"	"Conflict_Resolution"	"LEFT"	"LEFT"	378.658399999949	683.3333347	n/a	n/a	n/a	n/a	"False"	n/a	n/a	"2020-02-21 11:04:58.510914"	"2020-02-21 11:04:59.098264"	5	6.61093728333333
"S200221"	"Conflict_Resolution"	"LEFT"	"LEFT"	345.989700000018	666.666668	n/a	n/a	n/a	n/a	"False"	n/a	n/a	"2020-02-21 11:04:59.784598"	"2020-02-21 11:05:00.338290"	6	6.61093728333333
"S200221"	"Conflict_Resolution"	"RIGHT"	"RIGHT"	403.249999999957	833.333335	n/a	n/a	n/a	n/a	"False"	n/a	n/a	"2020-02-21 11:05:01.190663"	"2020-02-21 11:05:01.801947"	7	6.61093728333333
"S200221"	"Conflict_Resolution"	"LEFT"	"LEFT"	482.948800000031	816.6666683	n/a	n/a	n/a	n/a	"True"	n/a	n/a	"2020-02-21 11:05:02.638675"	"2020-02-21 11:05:03.329710"	8	6.61093728333333
"S200221"	"Conflict_Resolution"	"LEFT"	"LEFT"	359.579499999995	950.0000019	n/a	n/a	n/a	n/a	"False"	n/a	n/a	"2020-02-21 11:05:04.298890"	"2020-02-21 11:05:04.865999"	9	6.61093728333333
"S200221"	"Conflict_Resolution"	"RIGHT"	"RIGHT"	469.379499999945	1150.0000023	n/a	n/a	n/a	n/a	"True"	n/a	n/a	"2020-02-21 11:05:06.036642"	"2020-02-21 11:05:06.714257"	10	6.61093728333333
"S200221"	"Conflict_Resolution"	"RIGHT"	"RIGHT"	558.978000000025	533.3333344	n/a	n/a	n/a	n/a	"True"	n/a	n/a	"2020-02-21 11:05:07.267146"	"2020-02-21 11:05:08.033513"	11	6.61093728333333
"S200221"	"Conflict_Resolution"	"RIGHT"	"RIGHT"	507.484099999942	883.3333351	n/a	n/a	n/a	n/a	"True"	n/a	n/a	"2020-02-21 11:05:08.934269"	"2020-02-21 11:05:09.650043"	12	6.61093728333333
"S200221"	"Conflict_Resolution"	"RIGHT"	"RIGHT"	488.008000000036	550.0000011	n/a	n/a	n/a	n/a	"True"	n/a	n/a	"2020-02-21 11:05:10.217606"	"2020-02-21 11:05:10.914971"	13	6.61093728333333
"S200221"	"Conflict_Resolution"	"RIGHT"	"RIGHT"	401.797899999906	683.3333347	n/a	n/a	n/a	n/a	"False"	n/a	n/a	"2020-02-21 11:05:11.616151"	"2020-02-21 11:05:12.225557"	14	6.61093728333333
"S200221"	"Conflict_Resolution"	"LEFT"	"LEFT"	590.494199999966	1350.0000027	n/a	n/a	n/a	n/a	"True"	n/a	n/a	"2020-02-21 11:05:13.595034"	"2020-02-21 11:05:14.394436"	15	6.61093728333333
"S200221"	"Conflict_Resolution"	"LEFT"	"LEFT"	699.176800000032	1266.6666692	n/a	n/a	n/a	n/a	"True"	n/a	n/a	"2020-02-21 11:05:15.679068"	"2020-02-21 11:05:16.586111"	16	6.61093728333333
"S200221"	"Conflict_Resolution"	"RIGHT"	"RIGHT"	398.423800000046	1133.3333356	n/a	n/a	n/a	n/a	"False"	n/a	n/a	"2020-02-21 11:05:17.739643"	"2020-02-21 11:05:18.346031"	17	6.61093728333333
"S200221"	"Conflict_Resolution"	"LEFT"	"LEFT"	484.948499999973	1200.0000024	n/a	n/a	n/a	n/a	"True"	n/a	n/a	"2020-02-21 11:05:19.565175"	"2020-02-21 11:05:20.257924"	18	6.61093728333333
"S200221"	"Conflict_Resolution"	"LEFT"	"LEFT"	467.03320000006	1250.0000025	n/a	n/a	n/a	n/a	"False"	n/a	n/a	"2020-02-21 11:05:21.527129"	"2020-02-21 11:05:22.203394"	19	6.61093728333333
"S200221"	"Conflict_Resolution"	"RIGHT"	"RIGHT"	407.044599999949	750.0000015	n/a	n/a	n/a	n/a	"False"	n/a	n/a	"2020-02-21 11:05:22.971166"	"2020-02-21 11:05:23.585888"	20	6.61093728333333
"S200221"	"Conflict_Resolution"	"RIGHT"	"RIGHT"	644.564199999991	1233.3333358	n/a	n/a	n/a	n/a	"True"	n/a	n/a	"2020-02-21 11:05:24.837715"	"2020-02-21 11:05:25.691030"	21	6.61093728333333
"S200221"	"Conflict_Resolution"	"LEFT"	"LEFT"	382.746099999963	733.3333348	n/a	n/a	n/a	n/a	"False"	n/a	n/a	"2020-02-21 11:05:26.443785"	"2020-02-21 11:05:27.034221"	22	6.61093728333333
"S200221"	"Conflict_Resolution"	"RIGHT"	"RIGHT"	365.145799999937	983.3333353	n/a	n/a	n/a	n/a	"False"	n/a	n/a	"2020-02-21 11:05:28.037424"	"2020-02-21 11:05:28.610898"	23	6.61093728333333
"S200221"	"Conflict_Resolution"	"RIGHT"	"RIGHT"	411.837600000013	800.0000016	n/a	n/a	n/a	n/a	"False"	n/a	n/a	"2020-02-21 11:05:29.430389"	"2020-02-21 11:05:30.050121"	24	6.61093728333333
"S200221"	"Conflict_Resolution"	"LEFT"	"LEFT"	514.345899999967	1466.6666696	n/a	n/a	n/a	n/a	"True"	n/a	n/a	"2020-02-21 11:05:31.535612"	"2020-02-21 11:05:32.258325"	25	6.61093728333333
"S200221"	"Conflict_Resolution"	"RIGHT"	"RIGHT"	399.011599999994	533.3333344	n/a	n/a	n/a	n/a	"False"	n/a	n/a	"2020-02-21 11:05:32.810597"	"2020-02-21 11:05:33.417649"	26	6.61093728333333
"S200221"	"Conflict_Resolution"	"RIGHT"	"RIGHT"	382.368799999995	1383.3333361	n/a	n/a	n/a	n/a	"False"	n/a	n/a	"2020-02-21 11:05:34.819950"	"2020-02-21 11:05:35.410253"	27	6.61093728333333
"S200221"	"Conflict_Resolution"	"RIGHT"	"LEFT"	413.164999999935	1383.3333361	n/a	n/a	n/a	n/a	"True"	n/a	n/a	"2020-02-21 11:05:36.813146"	"2020-02-21 11:05:37.434103"	28	6.61093728333333
"S200221"	"Conflict_Resolution"	"RIGHT"	"RIGHT"	433.619599999929	1483.3333363	n/a	n/a	n/a	n/a	"False"	n/a	n/a	"2020-02-21 11:05:38.937274"	"2020-02-21 11:05:39.577618"	29	6.61093728333333
"S200221"	"Conflict_Resolution"	"LEFT"	"LEFT"	537.311199999976	1500.000003	n/a	n/a	n/a	n/a	"True"	n/a	n/a	"2020-02-21 11:05:41.096516"	"2020-02-21 11:05:41.841565"	30	6.61093728333333
"S200221"	"Conflict_Resolution"	"RIGHT"	"RIGHT"	364.196600000014	1433.3333362	n/a	n/a	n/a	n/a	"False"	n/a	n/a	"2020-02-21 11:05:43.294151"	"2020-02-21 11:05:43.866662"	31	6.61093728333333
"S200221"	"Conflict_Resolution"	"RIGHT"	"RIGHT"	565.880200000038	1183.3333357	n/a	n/a	n/a	n/a	"True"	n/a	n/a	"2020-02-21 11:05:45.068060"	"2020-02-21 11:05:45.843330"	32	6.61093728333333
"S200221"	"Conflict_Resolution"	"LEFT"	"LEFT"	455.418099999974	1100.0000022	n/a	n/a	n/a	n/a	"False"	n/a	n/a	"2020-02-21 11:05:46.963040"	"2020-02-21 11:05:47.626127"	33	6.61093728333333
"S200221"	"Conflict_Resolution"	"LEFT"	"LEFT"	403.62360000006	1016.6666687	n/a	n/a	n/a	n/a	"False"	n/a	n/a	"2020-02-21 11:05:48.661930"	"2020-02-21 11:05:49.273529"	34	6.61093728333333
"S200221"	"Conflict_Resolution"	"LEFT"	"LEFT"	473.223799999914	1300.0000026	n/a	n/a	n/a	n/a	"True"	n/a	n/a	"2020-02-21 11:05:50.592914"	"2020-02-21 11:05:51.273700"	35	6.61093728333333
"S200221"	"Conflict_Resolution"	"LEFT"	"LEFT"	544.484199999943	1350.0000027	n/a	n/a	n/a	n/a	"False"	n/a	n/a	"2020-02-21 11:05:52.641730"	"2020-02-21 11:05:53.394300"	36	6.61093728333333
"S200221"	"Conflict_Resolution"	"RIGHT"	"RIGHT"	371.97829999991	1416.6666695	n/a	n/a	n/a	n/a	"False"	n/a	n/a	"2020-02-21 11:05:54.830585"	"2020-02-21 11:05:55.410117"	37	6.61093728333333
"S200221"	"Conflict_Resolution"	"RIGHT"	"RIGHT"	541.195300000027	783.3333349	n/a	n/a	n/a	n/a	"True"	n/a	n/a	"2020-02-21 11:05:56.213287"	"2020-02-21 11:05:56.961673"	38	6.61093728333333
"S200221"	"Conflict_Resolution"	"LEFT"	"LEFT"	564.517900000055	1416.6666695	n/a	n/a	n/a	n/a	"True"	n/a	n/a	"2020-02-21 11:05:58.397309"	"2020-02-21 11:05:59.169989"	39	6.61093728333333
"S200221"	"Conflict_Resolution"	"LEFT"	"LEFT"	608.266500000013	916.6666685	n/a	n/a	n/a	n/a	"True"	n/a	n/a	"2020-02-21 11:06:00.106242"	"2020-02-21 11:06:00.921670"	40	6.61093728333333
"S200221"	"Conflict_Resolution"	"LEFT"	"LEFT"	544.754699999999	516.6666677	n/a	n/a	n/a	n/a	"True"	n/a	n/a	"2020-02-21 11:06:01.457485"	"2020-02-21 11:06:02.209674"	41	6.61093728333333
"S200221"	"Conflict_Resolution"	"LEFT"	"LEFT"	462.278900000001	1150.0000023	n/a	n/a	n/a	n/a	"True"	n/a	n/a	"2020-02-21 11:06:03.379545"	"2020-02-21 11:06:04.049951"	42	6.61093728333333
"S200221"	"Conflict_Resolution"	"RIGHT"	"RIGHT"	532.357400000024	1216.6666691	n/a	n/a	n/a	n/a	"True"	n/a	n/a	"2020-02-21 11:06:05.285227"	"2020-02-21 11:06:06.026332"	43	6.61093728333333
"S200221"	"Conflict_Resolution"	"LEFT"	"LEFT"	443.463899999983	1266.6666692	n/a	n/a	n/a	n/a	"False"	n/a	n/a	"2020-02-21 11:06:07.310783"	"2020-02-21 11:06:07.961639"	44	6.61093728333333
"S200221"	"Conflict_Resolution"	"RIGHT"	"RIGHT"	714.053600000057	683.3333347	n/a	n/a	n/a	n/a	"True"	n/a	n/a	"2020-02-21 11:06:08.664383"	"2020-02-21 11:06:09.585515"	45	6.61093728333333
"S200221"	"Conflict_Resolution"	"LEFT"	"LEFT"	548.405600000024	566.6666678	n/a	n/a	n/a	n/a	"True"	n/a	n/a	"2020-02-21 11:06:10.173946"	"2020-02-21 11:06:10.929811"	46	6.61093728333333
"S200221"	"Conflict_Resolution"	"LEFT"	"LEFT"	392.835900000023	900.0000018	n/a	n/a	n/a	n/a	"False"	n/a	n/a	"2020-02-21 11:06:11.848945"	"2020-02-21 11:06:12.450024"	47	6.61093728333333
"S200221"	"Conflict_Resolution"	"RIGHT"	"RIGHT"	413.873899999999	1366.6666694	n/a	n/a	n/a	n/a	"False"	n/a	n/a	"2020-02-21 11:06:13.836527"	"2020-02-21 11:06:14.457575"	48	6.61093728333333
"S200221"	"Conflict_Resolution"	"LEFT"	"LEFT"	577.026400000022	900.0000018	n/a	n/a	n/a	n/a	"True"	n/a	n/a	"2020-02-21 11:06:15.377404"	"2020-02-21 11:06:16.161690"	49	6.61093728333333
"S200221"	"Conflict_Resolution"	"RIGHT"	"RIGHT"	544.530899999927	1266.6666692	n/a	n/a	n/a	n/a	"True"	n/a	n/a	"2020-02-21 11:06:17.449649"	"2020-02-21 11:06:18.202395"	50	6.61093728333333
"S200221"	"Conflict_Resolution"	"RIGHT"	"RIGHT"	418.403300000023	1033.3333354	n/a	n/a	n/a	n/a	"False"	n/a	n/a	"2020-02-21 11:06:19.255521"	"2020-02-21 11:06:19.882043"	51	6.61093728333333
"S200221"	"Conflict_Resolution"	"RIGHT"	"RIGHT"	594.025500000043	900.0000018	n/a	n/a	n/a	n/a	"True"	n/a	n/a	"2020-02-21 11:06:20.799856"	"2020-02-21 11:06:21.601657"	52	6.61093728333333
"S200221"	"Conflict_Resolution"	"RIGHT"	"RIGHT"	564.137500000015	1233.3333358	n/a	n/a	n/a	n/a	"False"	n/a	n/a	"2020-02-21 11:06:22.853984"	"2020-02-21 11:06:23.626459"	53	6.61093728333333
"S200221"	"Conflict_Resolution"	"RIGHT"	"RIGHT"	553.571799999986	583.3333345	n/a	n/a	n/a	n/a	"True"	n/a	n/a	"2020-02-21 11:06:24.232382"	"2020-02-21 11:06:24.994035"	54	6.61093728333333
"S200221"	"Conflict_Resolution"	"LEFT"	"LEFT"	398.080099999902	1366.6666694	n/a	n/a	n/a	n/a	"False"	n/a	n/a	"2020-02-21 11:06:26.379587"	"2020-02-21 11:06:26.985653"	55	6.61093728333333
"S200221"	"Conflict_Resolution"	"RIGHT"	"RIGHT"	382.690400000001	1333.333336	n/a	n/a	n/a	n/a	"False"	n/a	n/a	"2020-02-21 11:06:28.339054"	"2020-02-21 11:06:28.929927"	56	6.61093728333333
"S200221"	"Conflict_Resolution"	"RIGHT"	"RIGHT"	361.414400000058	700.0000014	n/a	n/a	n/a	n/a	"False"	n/a	n/a	"2020-02-21 11:06:29.648894"	"2020-02-21 11:06:30.218311"	57	6.61093728333333
"S200221"	"Conflict_Resolution"	"LEFT"	"RIGHT"	709.86860000005	966.6666686	n/a	n/a	n/a	n/a	"True"	n/a	n/a	"2020-02-21 11:06:31.204011"	"2020-02-21 11:06:32.122408"	58	6.61093728333333
"S200221"	"Conflict_Resolution"	"LEFT"	"LEFT"	511.470799999984	1316.6666693	n/a	n/a	n/a	n/a	"True"	n/a	n/a	"2020-02-21 11:06:33.458914"	"2020-02-21 11:06:34.177622"	59	6.61093728333333
"S200221"	"Conflict_Resolution"	"LEFT"	"LEFT"	405.866299999957	583.3333345	n/a	n/a	n/a	n/a	"False"	n/a	n/a	"2020-02-21 11:06:34.780451"	"2020-02-21 11:06:35.394502"	60	6.61093728333333
"S200221"	"Conflict_Resolution"	"RIGHT"	"RIGHT"	556.420800000069	783.3333349	n/a	n/a	n/a	n/a	"False"	n/a	n/a	"2020-02-21 11:06:36.197576"	"2020-02-21 11:06:36.961880"	61	6.61093728333333
"S200221"	"Conflict_Resolution"	"RIGHT"	"RIGHT"	640.957099999923	1316.6666693	n/a	n/a	n/a	n/a	"True"	n/a	n/a	"2020-02-21 11:06:38.296483"	"2020-02-21 11:06:39.146243"	62	6.61093728333333
"S200221"	"Conflict_Resolution"	"RIGHT"	"RIGHT"	469.425200000046	800.0000016	n/a	n/a	n/a	n/a	"True"	n/a	n/a	"2020-02-21 11:06:39.964223"	"2020-02-21 11:06:40.642512"	63	6.61093728333333
"S200221"	"Conflict_Resolution"	"LEFT"	"LEFT"	460.98870000003	1216.6666691	n/a	n/a	n/a	n/a	"False"	n/a	n/a	"2020-02-21 11:06:41.877266"	"2020-02-21 11:06:42.545737"	64	6.61093728333333
"S200221"	"Conflict_Resolution"	"RIGHT"	"RIGHT"	683.243199999993	650.0000013	n/a	n/a	n/a	n/a	"False"	n/a	n/a	"2020-02-21 11:06:43.214930"	"2020-02-21 11:06:44.105700"	65	6.61093728333333
"S200221"	"Conflict_Resolution"	"LEFT"	"LEFT"	435.491700000057	866.6666684	n/a	n/a	n/a	n/a	"False"	n/a	n/a	"2020-02-21 11:06:44.990902"	"2020-02-21 11:06:45.634143"	66	6.61093728333333
"S200221"	"Conflict_Resolution"	"RIGHT"	"RIGHT"	713.97909999996	833.333335	n/a	n/a	n/a	n/a	"True"	n/a	n/a	"2020-02-21 11:06:46.488261"	"2020-02-21 11:06:47.410236"	67	6.61093728333333
"S200221"	"Conflict_Resolution"	"LEFT"	"LEFT"	570.555499999955	1450.0000029	n/a	n/a	n/a	n/a	"True"	n/a	n/a	"2020-02-21 11:06:48.879539"	"2020-02-21 11:06:49.658463"	68	6.61093728333333
"S200221"	"Conflict_Resolution"	"RIGHT"	"RIGHT"	595.844899999975	1000.000002	n/a	n/a	n/a	n/a	"True"	n/a	n/a	"2020-02-21 11:06:50.678571"	"2020-02-21 11:06:51.481577"	69	6.61093728333333
"S200221"	"Conflict_Resolution"	"RIGHT"	"RIGHT"	420.147899999961	1466.6666696	n/a	n/a	n/a	n/a	"False"	n/a	n/a	"2020-02-21 11:06:52.965725"	"2020-02-21 11:06:53.594098"	70	6.61093728333333
"S200221"	"Conflict_Resolution"	"RIGHT"	"RIGHT"	422.733500000049	550.0000011	n/a	n/a	n/a	n/a	"False"	n/a	n/a	"2020-02-21 11:06:54.163318"	"2020-02-21 11:06:54.793803"	71	6.61093728333333
"S200221"	"Conflict_Resolution"	"RIGHT"	"RIGHT"	643.792899999994	633.3333346	n/a	n/a	n/a	n/a	"True"	n/a	n/a	"2020-02-21 11:06:55.446615"	"2020-02-21 11:06:56.298168"	72	6.61093728333333
"S200221"	"Conflict_Resolution"	"RIGHT"	"RIGHT"	520.652000000041	700.0000014	n/a	n/a	n/a	n/a	"True"	n/a	n/a	"2020-02-21 11:06:57.017078"	"2020-02-21 11:06:57.745738"	73	6.61093728333333
"S200221"	"Conflict_Resolution"	"LEFT"	"LEFT"	605.279300000007	1400.0000028	n/a	n/a	n/a	n/a	"True"	n/a	n/a	"2020-02-21 11:06:59.164484"	"2020-02-21 11:06:59.977500"	74	6.61093728333333
"S200221"	"Conflict_Resolution"	"LEFT"	"LEFT"	498.068900000021	1066.6666688	n/a	n/a	n/a	n/a	"True"	n/a	n/a	"2020-02-21 11:07:01.064404"	"2020-02-21 11:07:01.770124"	75	6.61093728333333
"S200221"	"Conflict_Resolution"	"LEFT"	"LEFT"	473.499400000037	683.3333347	n/a	n/a	n/a	n/a	"True"	n/a	n/a	"2020-02-21 11:07:02.472815"	"2020-02-21 11:07:03.153532"	76	6.61093728333333
"S200221"	"Conflict_Resolution"	"RIGHT"	"RIGHT"	542.374900000027	1000.000002	n/a	n/a	n/a	n/a	"False"	n/a	n/a	"2020-02-21 11:07:04.171195"	"2020-02-21 11:07:04.922298"	77	6.61093728333333
"S200221"	"Conflict_Resolution"	"RIGHT"	"RIGHT"	392.751299999986	1100.0000022	n/a	n/a	n/a	n/a	"False"	n/a	n/a	"2020-02-21 11:07:06.041361"	"2020-02-21 11:07:06.641715"	78	6.61093728333333
"S200221"	"Conflict_Resolution"	"LEFT"	"LEFT"	464.306800000031	716.6666681	n/a	n/a	n/a	n/a	"False"	n/a	n/a	"2020-02-21 11:07:07.378138"	"2020-02-21 11:07:08.050189"	79	6.61093728333333
"S200221"	"Conflict_Resolution"	"LEFT"	"LEFT"	425.317599999971	1316.6666693	n/a	n/a	n/a	n/a	"False"	n/a	n/a	"2020-02-21 11:07:09.384454"	"2020-02-21 11:07:10.018312"	80	6.61093728333333
"S200221"	"Conflict_Resolution"	"LEFT"	"LEFT"	422.005099999978	966.6666686	n/a	n/a	n/a	n/a	"False"	n/a	n/a	"2020-02-21 11:07:11.004127"	"2020-02-21 11:07:11.633986"	81	6.61093728333333
"S200221"	"Conflict_Resolution"	"RIGHT"	"RIGHT"	431.761000000051	1316.6666693	n/a	n/a	n/a	n/a	"False"	n/a	n/a	"2020-02-21 11:07:12.969817"	"2020-02-21 11:07:13.611004"	82	6.61093728333333
"S200221"	"Conflict_Resolution"	"RIGHT"	"RIGHT"	679.842000000008	1333.333336	n/a	n/a	n/a	n/a	"True"	n/a	n/a	"2020-02-21 11:07:14.961575"	"2020-02-21 11:07:15.850325"	83	6.61093728333333
"S200221"	"Conflict_Resolution"	"LEFT"	"LEFT"	429.700599999933	766.6666682	n/a	n/a	n/a	n/a	"False"	n/a	n/a	"2020-02-21 11:07:16.636722"	"2020-02-21 11:07:17.273628"	84	6.61093728333333
"S200221"	"Conflict_Resolution"	"LEFT"	"LEFT"	434.993999999961	1300.0000026	n/a	n/a	n/a	n/a	"False"	n/a	n/a	"2020-02-21 11:07:18.591122"	"2020-02-21 11:07:19.233662"	85	6.61093728333333
"S200221"	"Conflict_Resolution"	"RIGHT"	"RIGHT"	502.025900000035	950.0000019	n/a	n/a	n/a	n/a	"True"	n/a	n/a	"2020-02-21 11:07:20.203433"	"2020-02-21 11:07:20.914048"	86	6.61093728333333
"S200221"	"Conflict_Resolution"	"RIGHT"	"RIGHT"	376.663200000053	1266.6666692	n/a	n/a	n/a	n/a	"False"	n/a	n/a	"2020-02-21 11:07:22.201720"	"2020-02-21 11:07:22.786201"	87	6.61093728333333
"S200221"	"Conflict_Resolution"	"LEFT"	"LEFT"	403.582299999925	1050.0000021	n/a	n/a	n/a	n/a	"False"	n/a	n/a	"2020-02-21 11:07:23.854215"	"2020-02-21 11:07:24.468466"	88	6.61093728333333
"S200221"	"Conflict_Resolution"	"LEFT"	"LEFT"	563.003900000012	950.0000019	n/a	n/a	n/a	n/a	"True"	n/a	n/a	"2020-02-21 11:07:25.439267"	"2020-02-21 11:07:26.210155"	89	6.61093728333333
"S200221"	"Conflict_Resolution"	"LEFT"	"LEFT"	518.53600000004	733.3333348	n/a	n/a	n/a	n/a	"True"	n/a	n/a	"2020-02-21 11:07:26.963432"	"2020-02-21 11:07:27.690229"	90	6.61093728333333
"S200221"	"Conflict_Resolution"	"RIGHT"	"RIGHT"	553.259700000012	1083.3333355	n/a	n/a	n/a	n/a	"True"	n/a	n/a	"2020-02-21 11:07:28.792540"	"2020-02-21 11:07:29.554078"	91	6.61093728333333
"S200221"	"Conflict_Resolution"	"LEFT"	"LEFT"	541.191400000002	783.3333349	n/a	n/a	n/a	n/a	"True"	n/a	n/a	"2020-02-21 11:07:30.356499"	"2020-02-21 11:07:31.106144"	92	6.61093728333333
"S200221"	"Conflict_Resolution"	"RIGHT"	"RIGHT"	392.479800000046	1283.3333359	n/a	n/a	n/a	n/a	"False"	n/a	n/a	"2020-02-21 11:07:32.409582"	"2020-02-21 11:07:33.010229"	93	6.61093728333333
"S200221"	"Conflict_Resolution"	"LEFT"	"LEFT"	459.116600000016	1016.6666687	n/a	n/a	n/a	n/a	"True"	n/a	n/a	"2020-02-21 11:07:34.047142"	"2020-02-21 11:07:34.714376"	94	6.61093728333333
"S200221"	"Conflict_Resolution"	"LEFT"	"LEFT"	395.884500000079	1416.6666695	n/a	n/a	n/a	n/a	"False"	n/a	n/a	"2020-02-21 11:07:36.149917"	"2020-02-21 11:07:36.754169"	95	6.61093728333333
"S200221"	"Conflict_Resolution"	"LEFT"	"LEFT"	422.037899999964	566.6666678	n/a	n/a	n/a	n/a	"False"	n/a	n/a	"2020-02-21 11:07:37.339762"	"2020-02-21 11:07:37.969902"	96	6.61093728333333
"S200221"	"Conflict_Resolution"	"LEFT"	"LEFT"	454.257299999995	1400.0000028	n/a	n/a	n/a	n/a	"False"	n/a	n/a	"2020-02-21 11:07:39.387668"	"2020-02-21 11:07:40.050183"	97	6.61093728333333
"S200221"	"Conflict_Resolution"	"LEFT"	"LEFT"	501.084299999889	1000.000002	n/a	n/a	n/a	n/a	"True"	n/a	n/a	"2020-02-21 11:07:41.068596"	"2020-02-21 11:07:41.779150"	98	6.61093728333333
"S200221"	"Conflict_Resolution"	"LEFT"	"LEFT"	435.452800000007	583.3333345	n/a	n/a	n/a	n/a	"True"	n/a	n/a	"2020-02-21 11:07:42.382029"	"2020-02-21 11:07:43.026258"	99	6.61093728333333
"S200221"	"Conflict_Resolution"	"LEFT"	"LEFT"	353.031600000008	850.0000017	n/a	n/a	n/a	n/a	"False"	n/a	n/a	"2020-02-21 11:07:43.896920"	"2020-02-21 11:07:44.458468"	100	6.61093728333333
"S200221"	"Conflict_Resolution"	"LEFT"	"LEFT"	461.570800000004	916.6666685	n/a	n/a	n/a	n/a	"False"	n/a	n/a	"2020-02-21 11:07:45.396739"	"2020-02-21 11:07:46.065980"	101	6.61093728333333
"S200221"	"Conflict_Resolution"	"LEFT"	"LEFT"	367.411700000048	533.3333344	n/a	n/a	n/a	n/a	"True"	n/a	n/a	"2020-02-21 11:07:46.618716"	"2020-02-21 11:07:47.193699"	102	6.61093728333333
"S200221"	"Conflict_Resolution"	"LEFT"	"LEFT"	454.598400000009	766.6666682	n/a	n/a	n/a	n/a	"True"	n/a	n/a	"2020-02-21 11:07:47.979782"	"2020-02-21 11:07:48.644048"	103	6.61093728333333
"S200221"	"Conflict_Resolution"	"RIGHT"	"RIGHT"	626.212500000065	1033.3333354	n/a	n/a	n/a	n/a	"True"	n/a	n/a	"2020-02-21 11:07:49.695288"	"2020-02-21 11:07:50.529487"	104	6.61093728333333
"S200221"	"Conflict_Resolution"	"LEFT"	"LEFT"	386.934200000042	1450.0000029	n/a	n/a	n/a	n/a	"False"	n/a	n/a	"2020-02-21 11:07:51.998772"	"2020-02-21 11:07:52.593533"	105	6.61093728333333
"S200221"	"Conflict_Resolution"	"RIGHT"	"RIGHT"	681.362599999943	500.000001	n/a	n/a	n/a	n/a	"True"	n/a	n/a	"2020-02-21 11:07:53.112793"	"2020-02-21 11:07:54.002432"	106	6.61093728333333
"S200221"	"Conflict_Resolution"	"LEFT"	"LEFT"	394.959999999969	816.6666683	n/a	n/a	n/a	n/a	"False"	n/a	n/a	"2020-02-21 11:07:54.838883"	"2020-02-21 11:07:55.442031"	107	6.61093728333333
"S200221"	"Conflict_Resolution"	"LEFT"	"LEFT"	502.458400000023	1366.6666694	n/a	n/a	n/a	n/a	"True"	n/a	n/a	"2020-02-21 11:07:56.827795"	"2020-02-21 11:07:57.538244"	108	6.61093728333333
"S200221"	"Conflict_Resolution"	"RIGHT"	"LEFT"	852.09240000006	600.0000012	n/a	n/a	n/a	n/a	"True"	n/a	n/a	"2020-02-21 11:07:58.157542"	"2020-02-21 11:07:59.217543"	109	6.61093728333333
"S200221"	"Conflict_Resolution"	"RIGHT"	"RIGHT"	668.928899999969	1050.0000021	n/a	n/a	n/a	n/a	"True"	n/a	n/a	"2020-02-21 11:08:00.285240"	"2020-02-21 11:08:01.161666"	110	6.61093728333333
"S200221"	"Conflict_Resolution"	"RIGHT"	"RIGHT"	607.614300000023	1133.3333356	n/a	n/a	n/a	n/a	"True"	n/a	n/a	"2020-02-21 11:08:02.314125"	"2020-02-21 11:08:03.129757"	111	6.61093728333333
"S200221"	"Conflict_Resolution"	"RIGHT"	"RIGHT"	514.192600000001	500.000001	n/a	n/a	n/a	n/a	"False"	n/a	n/a	"2020-02-21 11:08:03.647376"	"2020-02-21 11:08:04.370334"	112	6.61093728333333
"S200221"	"Conflict_Resolution"	"RIGHT"	"RIGHT"	690.965099999858	1433.3333362	n/a	n/a	n/a	n/a	"True"	n/a	n/a	"2020-02-21 11:08:05.822815"	"2020-02-21 11:08:06.722162"	113	6.61093728333333
"S200221"	"Conflict_Resolution"	"RIGHT"	"RIGHT"	418.460999999979	850.0000017	n/a	n/a	n/a	n/a	"True"	n/a	n/a	"2020-02-21 11:08:07.591710"	"2020-02-21 11:08:08.217571"	114	6.61093728333333
"S200221"	"Conflict_Resolution"	"RIGHT"	"RIGHT"	390.165100000104	983.3333353	n/a	n/a	n/a	n/a	"True"	n/a	n/a	"2020-02-21 11:08:09.220175"	"2020-02-21 11:08:09.818223"	115	6.61093728333333
"S200221"	"Conflict_Resolution"	"LEFT"	"LEFT"	535.792599999922	516.6666677	n/a	n/a	n/a	n/a	"False"	n/a	n/a	"2020-02-21 11:08:10.354397"	"2020-02-21 11:08:11.097721"	116	6.61093728333333
"S200221"	"Conflict_Resolution"	"RIGHT"	"RIGHT"	790.942399999949	1366.6666694	n/a	n/a	n/a	n/a	"True"	n/a	n/a	"2020-02-21 11:08:12.482826"	"2020-02-21 11:08:13.481816"	117	6.61093728333333
"S200221"	"Conflict_Resolution"	"RIGHT"	"RIGHT"	548.920100000032	583.3333345	n/a	n/a	n/a	n/a	"False"	n/a	n/a	"2020-02-21 11:08:14.085389"	"2020-02-21 11:08:14.840998"	118	6.61093728333333
"S200221"	"Conflict_Resolution"	"LEFT"	"LEFT"	507.155300000022	1466.6666696	n/a	n/a	n/a	n/a	"False"	n/a	n/a	"2020-02-21 11:08:16.326918"	"2020-02-21 11:08:17.042922"	119	6.61093728333333
"S200221"	"Conflict_Resolution"	"LEFT"	"LEFT"	817.666599999939	616.6666679	n/a	n/a	n/a	n/a	"True"	n/a	n/a	"2020-02-21 11:08:17.680283"	"2020-02-21 11:08:18.705681"	120	6.61093728333333
"S200221"	"Conflict_Resolution"	"RIGHT"	"RIGHT"	544.03329999991	733.3333348	n/a	n/a	n/a	n/a	"False"	n/a	n/a	"2020-02-21 11:08:19.457507"	"2020-02-21 11:08:20.210095"	121	6.61093728333333
"S200221"	"Conflict_Resolution"	"RIGHT"	"RIGHT"	767.409000000043	733.3333348	n/a	n/a	n/a	n/a	"True"	n/a	n/a	"2020-02-21 11:08:20.962725"	"2020-02-21 11:08:21.937792"	122	6.61093728333333
"S200221"	"Conflict_Resolution"	"LEFT"	"LEFT"	532.718299999942	1200.0000024	n/a	n/a	n/a	n/a	"False"	n/a	n/a	"2020-02-21 11:08:23.157418"	"2020-02-21 11:08:23.897557"	123	6.61093728333333
"S200221"	"Conflict_Resolution"	"RIGHT"	"RIGHT"	410.10950000009	1083.3333355	n/a	n/a	n/a	n/a	"False"	n/a	n/a	"2020-02-21 11:08:25.000231"	"2020-02-21 11:08:25.617601"	124	6.61093728333333
"S200221"	"Conflict_Resolution"	"LEFT"	"LEFT"	651.103299999932	633.3333346	n/a	n/a	n/a	n/a	"False"	n/a	n/a	"2020-02-21 11:08:26.271376"	"2020-02-21 11:08:27.129803"	125	6.61093728333333
"S200221"	"Conflict_Resolution"	"LEFT"	"LEFT"	390.500200000133	1166.666669	n/a	n/a	n/a	n/a	"False"	n/a	n/a	"2020-02-21 11:08:28.315710"	"2020-02-21 11:08:28.912832"	126	6.61093728333333
"S200221"	"Conflict_Resolution"	"LEFT"	"LEFT"	601.484999999911	1100.0000022	n/a	n/a	n/a	n/a	"True"	n/a	n/a	"2020-02-21 11:08:30.032632"	"2020-02-21 11:08:30.842394"	127	6.61093728333333
"S200221"	"Conflict_Resolution"	"RIGHT"	"RIGHT"	450.303600000098	850.0000017	n/a	n/a	n/a	n/a	"False"	n/a	n/a	"2020-02-21 11:08:31.711920"	"2020-02-21 11:08:32.369693"	128	6.61093728333333
"S200221"	"Conflict_Resolution"	"LEFT"	"LEFT"	1014.8329000001	1166.666669	n/a	n/a	n/a	n/a	"True"	n/a	n/a	"2020-02-21 11:08:33.555328"	"2020-02-21 11:08:34.779287"	129	6.61093728333333
"S200221"	"Conflict_Resolution"	"LEFT"	"LEFT"	391.566399999874	1500.000003	n/a	n/a	n/a	n/a	"False"	n/a	n/a	"2020-02-21 11:08:36.298103"	"2020-02-21 11:08:36.898577"	130	6.61093728333333
"S200221"	"Conflict_Resolution"	"RIGHT"	"RIGHT"	768.412200000057	1100.0000022	n/a	n/a	n/a	n/a	"True"	n/a	n/a	"2020-02-21 11:08:38.017595"	"2020-02-21 11:08:38.993684"	131	6.61093728333333
"S200221"	"Conflict_Resolution"	"RIGHT"	"RIGHT"	402.589300000045	900.0000018	n/a	n/a	n/a	n/a	"False"	n/a	n/a	"2020-02-21 11:08:39.911276"	"2020-02-21 11:08:40.521646"	132	6.61093728333333
"S200221"	"Conflict_Resolution"	"RIGHT"	"RIGHT"	345.308100000011	1050.0000021	n/a	n/a	n/a	n/a	"False"	n/a	n/a	"2020-02-21 11:08:41.592310"	"2020-02-21 11:08:42.146739"	133	6.61093728333333
"S200221"	"Conflict_Resolution"	"RIGHT"	"RIGHT"	475.758000000042	1416.6666695	n/a	n/a	n/a	n/a	"True"	n/a	n/a	"2020-02-21 11:08:43.582328"	"2020-02-21 11:08:44.266264"	134	6.61093728333333
"S200221"	"Conflict_Resolution"	"LEFT"	"LEFT"	427.743700000065	783.3333349	n/a	n/a	n/a	n/a	"False"	n/a	n/a	"2020-02-21 11:08:45.070116"	"2020-02-21 11:08:45.706414"	135	6.61093728333333
"S200221"	"Conflict_Resolution"	"LEFT"	"LEFT"	761.261299999887	850.0000017	n/a	n/a	n/a	n/a	"True"	n/a	n/a	"2020-02-21 11:08:46.577020"	"2020-02-21 11:08:47.546012"	136	6.61093728333333
"S200221"	"Conflict_Resolution"	"LEFT"	"LEFT"	419.640800000025	1000.000002	n/a	n/a	n/a	n/a	"False"	n/a	n/a	"2020-02-21 11:08:48.566724"	"2020-02-21 11:08:49.194091"	137	6.61093728333333
"S200221"	"Conflict_Resolution"	"LEFT"	"LEFT"	578.438200000164	633.3333346	n/a	n/a	n/a	n/a	"True"	n/a	n/a	"2020-02-21 11:08:49.847032"	"2020-02-21 11:08:50.634389"	138	6.61093728333333
"S200221"	"Conflict_Resolution"	"LEFT"	"LEFT"	611.309099999971	866.6666684	n/a	n/a	n/a	n/a	"True"	n/a	n/a	"2020-02-21 11:08:51.518611"	"2020-02-21 11:08:52.337624"	139	6.61093728333333
"S200221"	"Conflict_Resolution"	"RIGHT"	"RIGHT"	719.839299999876	933.3333352	n/a	n/a	n/a	n/a	"True"	n/a	n/a	"2020-02-21 11:08:53.290606"	"2020-02-21 11:08:54.217747"	140	6.61093728333333
"S200221"	"Conflict_Resolution"	"RIGHT"	"RIGHT"	593.935000000101	650.0000013	n/a	n/a	n/a	n/a	"True"	n/a	n/a	"2020-02-21 11:08:54.888306"	"2020-02-21 11:08:55.689946"	141	6.61093728333333
"S200221"	"Conflict_Resolution"	"RIGHT"	"RIGHT"	495.398200000182	933.3333352	n/a	n/a	n/a	n/a	"False"	n/a	n/a	"2020-02-21 11:08:56.642602"	"2020-02-21 11:08:57.346298"	142	6.61093728333333
"S200221"	"Conflict_Resolution"	"LEFT"	"LEFT"	842.496800000163	1250.0000025	n/a	n/a	n/a	n/a	"True"	n/a	n/a	"2020-02-21 11:08:58.615603"	"2020-02-21 11:08:59.665253"	143	6.61093728333333
"S200221"	"Conflict_Resolution"	"RIGHT"	"RIGHT"	1003.34079999993	1466.6666696	n/a	n/a	n/a	n/a	"True"	n/a	n/a	"2020-02-21 11:09:01.150850"	"2020-02-21 11:09:02.361672"	144	6.61093728333333
"S200221"	"Conflict_Resolution"	"LEFT"	"LEFT"	576.389699999936	1116.6666689	n/a	n/a	n/a	n/a	"False"	n/a	n/a	"2020-02-21 11:09:03.497468"	"2020-02-21 11:09:04.281643"	145	6.61093728333333
"S200221"	"Conflict_Resolution"	"RIGHT"	"RIGHT"	436.48189999999	600.0000012	n/a	n/a	n/a	n/a	"False"	n/a	n/a	"2020-02-21 11:09:04.901857"	"2020-02-21 11:09:05.545783"	146	6.61093728333333
"S200221"	"Conflict_Resolution"	"LEFT"	"LEFT"	575.337199999922	533.3333344	n/a	n/a	n/a	n/a	"False"	n/a	n/a	"2020-02-21 11:09:06.098613"	"2020-02-21 11:09:06.883858"	147	6.61093728333333
"S200221"	"Conflict_Resolution"	"LEFT"	"LEFT"	815.622400000166	716.6666681	n/a	n/a	n/a	n/a	"True"	n/a	n/a	"2020-02-21 11:09:07.618011"	"2020-02-21 11:09:08.641599"	148	6.61093728333333
"S200221"	"Conflict_Resolution"	"LEFT"	"LEFT"	476.681499999813	616.6666679	n/a	n/a	n/a	n/a	"False"	n/a	n/a	"2020-02-21 11:09:09.276856"	"2020-02-21 11:09:09.963219"	149	6.61093728333333
"S200221"	"Conflict_Resolution"	"RIGHT"	"RIGHT"	714.267099999915	1283.3333359	n/a	n/a	n/a	n/a	"True"	n/a	n/a	"2020-02-21 11:09:11.264821"	"2020-02-21 11:09:12.187246"	150	6.61093728333333
"S200221"	"Conflict_Resolution"	"RIGHT"	"RIGHT"	379.559500000141	1183.3333357	n/a	n/a	n/a	n/a	"False"	n/a	n/a	"2020-02-21 11:09:13.390214"	"2020-02-21 11:09:13.977853"	151	6.61093728333333
"S200221"	"Conflict_Resolution"	"RIGHT"	"RIGHT"	564.700700000003	633.3333346	n/a	n/a	n/a	n/a	"False"	n/a	n/a	"2020-02-21 11:09:14.629112"	"2020-02-21 11:09:15.401919"	152	6.61093728333333
"S200221"	"Conflict_Resolution"	"LEFT"	"LEFT"	730.766599999924	1216.6666691	n/a	n/a	n/a	n/a	"True"	n/a	n/a	"2020-02-21 11:09:16.639384"	"2020-02-21 11:09:17.578234"	153	6.61093728333333
"S200221"	"Conflict_Resolution"	"RIGHT"	"RIGHT"	638.52380000003	750.0000015	n/a	n/a	n/a	n/a	"True"	n/a	n/a	"2020-02-21 11:09:18.347710"	"2020-02-21 11:09:19.194325"	154	6.61093728333333
"S200221"	"Conflict_Resolution"	"LEFT"	"LEFT"	404.318700000204	1150.0000023	n/a	n/a	n/a	n/a	"False"	n/a	n/a	"2020-02-21 11:09:20.365220"	"2020-02-21 11:09:20.978307"	155	6.61093728333333
"S200221"	"Conflict_Resolution"	"LEFT"	"LEFT"	716.553299999987	1116.6666689	n/a	n/a	n/a	n/a	"True"	n/a	n/a	"2020-02-21 11:09:22.117693"	"2020-02-21 11:09:23.040819"	156	6.61093728333333
"S200221"	"Conflict_Resolution"	"RIGHT"	"RIGHT"	634.532600000057	1483.3333363	n/a	n/a	n/a	n/a	"True"	n/a	n/a	"2020-02-21 11:09:24.543444"	"2020-02-21 11:09:25.386361"	157	6.61093728333333
"S200221"	"Conflict_Resolution"	"RIGHT"	"RIGHT"	422.33750000014	1150.0000023	n/a	n/a	n/a	n/a	"False"	n/a	n/a	"2020-02-21 11:09:26.556145"	"2020-02-21 11:09:27.187215"	158	6.61093728333333
"S200221"	"Conflict_Resolution"	"RIGHT"	"RIGHT"	362.013100000013	1216.6666691	n/a	n/a	n/a	n/a	"False"	n/a	n/a	"2020-02-21 11:09:28.423909"	"2020-02-21 11:09:28.993948"	159	6.61093728333333
"S200221"	"Conflict_Resolution"	"LEFT"	"LEFT"	707.047300000113	666.666668	n/a	n/a	n/a	n/a	"True"	n/a	n/a	"2020-02-21 11:09:29.679111"	"2020-02-21 11:09:30.594392"	160	6.61093728333333
"S200221"	"Processing_Speed"	"RIGHT"	"DOWN"	372.881100000001	916.6666685	n/a	n/a	n/a	n/a	n/a	n/a	n/a	"2020-02-21 10:52:59.254077"	"2020-02-21 10:52:59.845507"	1	2.0530629
"S200221"	"Processing_Speed"	"LEFT"	"DOWN"	274.612699999992	1050.0000021	n/a	n/a	n/a	n/a	n/a	n/a	n/a	"2020-02-21 10:53:00.904081"	"2020-02-21 10:53:01.386013"	2	2.0530629
"S200221"	"Processing_Speed"	"RIGHT"	"DOWN"	309.533600000009	1466.6666696	n/a	n/a	n/a	n/a	n/a	n/a	n/a	"2020-02-21 10:53:02.860821"	"2020-02-21 10:53:03.379009"	3	2.0530629
"S200221"	"Processing_Speed"	"LEFT"	"DOWN"	331.764899999996	883.3333351	n/a	n/a	n/a	n/a	n/a	n/a	n/a	"2020-02-21 10:53:04.270574"	"2020-02-21 10:53:04.811175"	4	2.0530629
"S200221"	"Processing_Speed"	"RIGHT"	"DOWN"	236.260399999992	1266.6666692	n/a	n/a	n/a	n/a	n/a	n/a	n/a	"2020-02-21 10:53:06.086329"	"2020-02-21 10:53:06.530045"	5	2.0530629
"S200221"	"Processing_Speed"	"RIGHT"	"DOWN"	431.469200000009	1216.6666691	n/a	n/a	n/a	n/a	n/a	n/a	n/a	"2020-02-21 10:53:07.755278"	"2020-02-21 10:53:08.393863"	6	2.0530629
"S200221"	"Processing_Speed"	"LEFT"	"DOWN"	323.387400000001	916.6666685	n/a	n/a	n/a	n/a	n/a	n/a	n/a	"2020-02-21 10:53:09.319227"	"2020-02-21 10:53:09.850252"	7	2.0530629
"S200221"	"Processing_Speed"	"LEFT"	"DOWN"	300.724199999991	1266.6666692	n/a	n/a	n/a	n/a	n/a	n/a	n/a	"2020-02-21 10:53:11.125717"	"2020-02-21 10:53:11.634963"	8	2.0530629
"S200221"	"Processing_Speed"	"RIGHT"	"DOWN"	287.820300000021	983.3333353	n/a	n/a	n/a	n/a	n/a	n/a	n/a	"2020-02-21 10:53:12.626347"	"2020-02-21 10:53:13.123008"	9	2.0530629
"S200221"	"Processing_Speed"	"LEFT"	"DOWN"	261.863199999993	1433.3333362	n/a	n/a	n/a	n/a	n/a	n/a	n/a	"2020-02-21 10:53:14.564569"	"2020-02-21 10:53:15.035298"	10	2.0530629
"S200221"	"Processing_Speed"	"RIGHT"	"DOWN"	308.08110000001	666.666668	n/a	n/a	n/a	n/a	n/a	n/a	n/a	"2020-02-21 10:53:15.710559"	"2020-02-21 10:53:16.225935"	11	2.0530629
"S200221"	"Processing_Speed"	"LEFT"	"DOWN"	247.353699999991	600.0000012	n/a	n/a	n/a	n/a	n/a	n/a	n/a	"2020-02-21 10:53:16.835510"	"2020-02-21 10:53:17.291312"	12	2.0530629
"S200221"	"Processing_Speed"	"LEFT"	"DOWN"	306.803699999989	666.666668	n/a	n/a	n/a	n/a	n/a	n/a	n/a	"2020-02-21 10:53:17.967562"	"2020-02-21 10:53:18.483227"	13	2.0530629
"S200221"	"Processing_Speed"	"LEFT"	"DOWN"	317.544499999997	1400.0000028	n/a	n/a	n/a	n/a	n/a	n/a	n/a	"2020-02-21 10:53:19.892843"	"2020-02-21 10:53:20.417675"	14	2.0530629
"S200221"	"Processing_Speed"	"LEFT"	"DOWN"	280.86780000001	983.3333353	n/a	n/a	n/a	n/a	n/a	n/a	n/a	"2020-02-21 10:53:21.409787"	"2020-02-21 10:53:21.898735"	15	2.0530629
"S200221"	"Processing_Speed"	"LEFT"	"DOWN"	403.1454	500.000001	n/a	n/a	n/a	n/a	n/a	n/a	n/a	"2020-02-21 10:53:22.407897"	"2020-02-21 10:53:23.019076"	16	2.0530629
"S200221"	"Processing_Speed"	"LEFT"	"DOWN"	287.256200000002	1183.3333357	n/a	n/a	n/a	n/a	n/a	n/a	n/a	"2020-02-21 10:53:24.210816"	"2020-02-21 10:53:24.705753"	17	2.0530629
"S200221"	"Processing_Speed"	"RIGHT"	"DOWN"	312.564400000014	600.0000012	n/a	n/a	n/a	n/a	n/a	n/a	n/a	"2020-02-21 10:53:25.314554"	"2020-02-21 10:53:25.835455"	18	2.0530629
"S200221"	"Processing_Speed"	"LEFT"	"DOWN"	313.753899999995	1500.000003	n/a	n/a	n/a	n/a	n/a	n/a	n/a	"2020-02-21 10:53:27.344987"	"2020-02-21 10:53:27.865969"	19	2.0530629
"S200221"	"Processing_Speed"	"RIGHT"	"DOWN"	242.010800000003	1150.0000023	n/a	n/a	n/a	n/a	n/a	n/a	n/a	"2020-02-21 10:53:29.024916"	"2020-02-21 10:53:29.475348"	20	2.0530629
"S200221"	"Processing_Speed"	"RIGHT"	"DOWN"	231.266099999999	1183.3333357	n/a	n/a	n/a	n/a	n/a	n/a	n/a	"2020-02-21 10:53:30.667028"	"2020-02-21 10:53:31.106427"	21	2.0530629
"S200221"	"Processing_Speed"	"RIGHT"	"DOWN"	324.232600000016	700.0000014	n/a	n/a	n/a	n/a	n/a	n/a	n/a	"2020-02-21 10:53:31.815136"	"2020-02-21 10:53:32.347481"	22	2.0530629
"S200221"	"Processing_Speed"	"RIGHT"	"DOWN"	223.117700000017	783.3333349	n/a	n/a	n/a	n/a	n/a	n/a	n/a	"2020-02-21 10:53:33.139698"	"2020-02-21 10:53:33.569900"	23	2.0530629
"S200221"	"Processing_Speed"	"LEFT"	"DOWN"	273.551600000019	1366.6666694	n/a	n/a	n/a	n/a	n/a	n/a	n/a	"2020-02-21 10:53:34.945318"	"2020-02-21 10:53:35.426573"	24	2.0530629
"S200221"	"Processing_Speed"	"RIGHT"	"DOWN"	232.232199999999	1366.6666694	n/a	n/a	n/a	n/a	n/a	n/a	n/a	"2020-02-21 10:53:36.802663"	"2020-02-21 10:53:37.243105"	25	2.0530629
"S200221"	"Processing_Speed"	"LEFT"	"DOWN"	322.989000000007	700.0000014	n/a	n/a	n/a	n/a	n/a	n/a	n/a	"2020-02-21 10:53:37.951212"	"2020-02-21 10:53:38.481871"	26	2.0530629
"S200221"	"Processing_Speed"	"RIGHT"	"DOWN"	238.148300000006	850.0000017	n/a	n/a	n/a	n/a	n/a	n/a	n/a	"2020-02-21 10:53:39.340507"	"2020-02-21 10:53:39.786499"	27	2.0530629
"S200221"	"Processing_Speed"	"LEFT"	"DOWN"	257.220399999994	950.0000019	n/a	n/a	n/a	n/a	n/a	n/a	n/a	"2020-02-21 10:53:40.745731"	"2020-02-21 10:53:41.211262"	28	2.0530629
"S200221"	"Processing_Speed"	"LEFT"	"DOWN"	281.326500000006	1116.6666689	n/a	n/a	n/a	n/a	n/a	n/a	n/a	"2020-02-21 10:53:42.337265"	"2020-02-21 10:53:42.825861"	29	2.0530629
"S200221"	"Processing_Speed"	"RIGHT"	"DOWN"	244.845599999991	1083.3333355	n/a	n/a	n/a	n/a	n/a	n/a	n/a	"2020-02-21 10:53:43.917382"	"2020-02-21 10:53:44.371183"	30	2.0530629
"S200221"	"Processing_Speed"	"RIGHT"	"DOWN"	254.874900000004	1400.0000028	n/a	n/a	n/a	n/a	n/a	n/a	n/a	"2020-02-21 10:53:45.779855"	"2020-02-21 10:53:46.243203"	31	2.0530629
"S200221"	"Processing_Speed"	"RIGHT"	"DOWN"	277.482700000007	1433.3333362	n/a	n/a	n/a	n/a	n/a	n/a	n/a	"2020-02-21 10:53:47.685404"	"2020-02-21 10:53:48.171290"	32	2.0530629
"S200221"	"Processing_Speed"	"LEFT"	"DOWN"	334.150899999997	783.3333349	n/a	n/a	n/a	n/a	n/a	n/a	n/a	"2020-02-21 10:53:48.964301"	"2020-02-21 10:53:49.506464"	33	2.0530629
"S200221"	"Processing_Speed"	"RIGHT"	"DOWN"	266.524799999985	1116.6666689	n/a	n/a	n/a	n/a	n/a	n/a	n/a	"2020-02-21 10:53:50.631970"	"2020-02-21 10:53:51.105728"	34	2.0530629
"S200221"	"Processing_Speed"	"RIGHT"	"DOWN"	252.7963	1300.0000026	n/a	n/a	n/a	n/a	n/a	n/a	n/a	"2020-02-21 10:53:52.414345"	"2020-02-21 10:53:52.875133"	35	2.0530629
"S200221"	"Processing_Speed"	"RIGHT"	"DOWN"	244.992599999989	1050.0000021	n/a	n/a	n/a	n/a	n/a	n/a	n/a	"2020-02-21 10:53:53.933400"	"2020-02-21 10:53:54.386074"	36	2.0530629
"S200221"	"Processing_Speed"	"LEFT"	"DOWN"	258.618400000017	1333.333336	n/a	n/a	n/a	n/a	n/a	n/a	n/a	"2020-02-21 10:53:55.728336"	"2020-02-21 10:53:56.195057"	37	2.0530629
"S200221"	"Processing_Speed"	"RIGHT"	"DOWN"	296.327100000013	566.6666678	n/a	n/a	n/a	n/a	n/a	n/a	n/a	"2020-02-21 10:53:56.770017"	"2020-02-21 10:53:57.275392"	38	2.0530629
"S200221"	"Processing_Speed"	"LEFT"	"DOWN"	245.910400000014	1216.6666691	n/a	n/a	n/a	n/a	n/a	n/a	n/a	"2020-02-21 10:53:58.500985"	"2020-02-21 10:53:58.954128"	39	2.0530629
"S200221"	"Processing_Speed"	"LEFT"	"DOWN"	287.282300000015	1016.6666687	n/a	n/a	n/a	n/a	n/a	n/a	n/a	"2020-02-21 10:53:59.979461"	"2020-02-21 10:54:00.475196"	40	2.0530629
"S200221"	"Processing_Speed"	"RIGHT"	"DOWN"	254.076300000008	816.6666683	n/a	n/a	n/a	n/a	n/a	n/a	n/a	"2020-02-21 10:54:01.300654"	"2020-02-21 10:54:01.763064"	41	2.0530629
"S200221"	"Processing_Speed"	"RIGHT"	"DOWN"	290.379900000005	500.000001	n/a	n/a	n/a	n/a	n/a	n/a	n/a	"2020-02-21 10:54:02.271975"	"2020-02-21 10:54:02.770071"	42	2.0530629
"S200221"	"Processing_Speed"	"LEFT"	"DOWN"	266.709700000007	533.3333344	n/a	n/a	n/a	n/a	n/a	n/a	n/a	"2020-02-21 10:54:03.311886"	"2020-02-21 10:54:03.785888"	43	2.0530629
"S200221"	"Processing_Speed"	"LEFT"	"DOWN"	236.695499999996	1466.6666696	n/a	n/a	n/a	n/a	n/a	n/a	n/a	"2020-02-21 10:54:05.261646"	"2020-02-21 10:54:05.705487"	44	2.0530629
"S200221"	"Processing_Speed"	"RIGHT"	"DOWN"	279.269199999987	633.3333346	n/a	n/a	n/a	n/a	n/a	n/a	n/a	"2020-02-21 10:54:06.346951"	"2020-02-21 10:54:06.835306"	45	2.0530629
"S200221"	"Processing_Speed"	"LEFT"	"DOWN"	250.728400000014	1300.0000026	n/a	n/a	n/a	n/a	n/a	n/a	n/a	"2020-02-21 10:54:08.143494"	"2020-02-21 10:54:08.603339"	46	2.0530629
"S200221"	"Processing_Speed"	"LEFT"	"DOWN"	335.769999999997	566.6666678	n/a	n/a	n/a	n/a	n/a	n/a	n/a	"2020-02-21 10:54:09.178812"	"2020-02-21 10:54:09.722248"	47	2.0530629
"S200221"	"Processing_Speed"	"LEFT"	"DOWN"	282.544599999994	733.3333348	n/a	n/a	n/a	n/a	n/a	n/a	n/a	"2020-02-21 10:54:10.463958"	"2020-02-21 10:54:10.953705"	48	2.0530629
"S200221"	"Processing_Speed"	"RIGHT"	"DOWN"	241.282299999995	950.0000019	n/a	n/a	n/a	n/a	n/a	n/a	n/a	"2020-02-21 10:54:11.913617"	"2020-02-21 10:54:12.361810"	49	2.0530629
"S200221"	"Processing_Speed"	"RIGHT"	"DOWN"	242.771099999999	733.3333348	n/a	n/a	n/a	n/a	n/a	n/a	n/a	"2020-02-21 10:54:13.103414"	"2020-02-21 10:54:13.554497"	50	2.0530629
"S200221"	"Processing_Speed"	"RIGHT"	"DOWN"	244.253200000003	883.3333351	n/a	n/a	n/a	n/a	n/a	n/a	n/a	"2020-02-21 10:54:14.446676"	"2020-02-21 10:54:14.898641"	51	2.0530629
"S200221"	"Processing_Speed"	"LEFT"	"DOWN"	269.737600000013	850.0000017	n/a	n/a	n/a	n/a	n/a	n/a	n/a	"2020-02-21 10:54:15.756692"	"2020-02-21 10:54:16.234930"	52	2.0530629
"S200221"	"Processing_Speed"	"LEFT"	"DOWN"	316.881800000004	633.3333346	n/a	n/a	n/a	n/a	n/a	n/a	n/a	"2020-02-21 10:54:16.877562"	"2020-02-21 10:54:17.402530"	53	2.0530629
"S200221"	"Processing_Speed"	"LEFT"	"DOWN"	257.614099999984	1150.0000023	n/a	n/a	n/a	n/a	n/a	n/a	n/a	"2020-02-21 10:54:18.561155"	"2020-02-21 10:54:19.025948"	54	2.0530629
"S200221"	"Processing_Speed"	"RIGHT"	"DOWN"	306.427800000023	533.3333344	n/a	n/a	n/a	n/a	n/a	n/a	n/a	"2020-02-21 10:54:19.568097"	"2020-02-21 10:54:20.082959"	55	2.0530629
"S200221"	"Processing_Speed"	"RIGHT"	"DOWN"	265.742500000016	1333.333336	n/a	n/a	n/a	n/a	n/a	n/a	n/a	"2020-02-21 10:54:21.424764"	"2020-02-21 10:54:21.900340"	56	2.0530629
"S200221"	"Processing_Speed"	"LEFT"	"DOWN"	280.070699999982	1083.3333355	n/a	n/a	n/a	n/a	n/a	n/a	n/a	"2020-02-21 10:54:22.994098"	"2020-02-21 10:54:23.482052"	57	2.0530629
"S200221"	"Processing_Speed"	"LEFT"	"DOWN"	263.259199999993	816.6666683	n/a	n/a	n/a	n/a	n/a	n/a	n/a	"2020-02-21 10:54:24.307586"	"2020-02-21 10:54:24.779484"	58	2.0530629
"S200221"	"Processing_Speed"	"RIGHT"	"DOWN"	225.9794	1500.000003	n/a	n/a	n/a	n/a	n/a	n/a	n/a	"2020-02-21 10:54:26.288684"	"2020-02-21 10:54:26.721834"	59	2.0530629
"S200221"	"Processing_Speed"	"RIGHT"	"DOWN"	279.784500000005	1016.6666687	n/a	n/a	n/a	n/a	n/a	n/a	n/a	"2020-02-21 10:54:27.747074"	"2020-02-21 10:54:28.235286"	60	2.0530629
"S200221"	"Response_Inhibition"	"RIGHT"	"RIGHT"	468.528100000015	716.6666681	n/a	n/a	n/a	n/a	n/a	n/a	n/a	"2020-02-21 10:58:24.413674"	"2020-02-21 10:58:25.089995"	1	5.4070838
"S200221"	"Response_Inhibition"	"RIGHT"	"RIGHT"	259.226000000012	1116.6666689	n/a	n/a	n/a	n/a	n/a	n/a	n/a	"2020-02-21 10:58:26.215594"	"2020-02-21 10:58:26.682669"	2	5.4070838
"S200221"	"Response_Inhibition"	"RIGHT"	"RIGHT"	318.815433700047	500.000001	n/a	n/a	n/a	n/a	n/a	n/a	n/a	"2020-02-21 10:58:27.192375"	"2020-02-21 10:58:27.723017"	3	5.4070838
"S200221"	"Response_Inhibition"	"RIGHT"	"RIGHT"	339.474299999949	1466.6666696	n/a	n/a	n/a	n/a	n/a	n/a	n/a	"2020-02-21 10:58:29.198857"	"2020-02-21 10:58:29.747036"	4	5.4070838
"S200221"	"Response_Inhibition"	"RIGHT"	"RIGHT"	291.449199999988	683.3333347	n/a	n/a	n/a	n/a	n/a	n/a	n/a	"2020-02-21 10:58:30.439220"	"2020-02-21 10:58:30.938174"	5	5.4070838
"S200221"	"Response_Inhibition"	"LEFT"	"LEFT"	397.803100000033	650.0000013	n/a	n/a	n/a	n/a	n/a	n/a	n/a	"2020-02-21 10:58:31.596378"	"2020-02-21 10:58:32.203474"	6	5.4070838
"S200221"	"Response_Inhibition"	"RIGHT"	"RIGHT"	252.911066999998	1350.0000027	n/a	n/a	n/a	n/a	n/a	n/a	n/a	"2020-02-21 10:58:33.562001"	"2020-02-21 10:58:34.025877"	7	5.4070838
"S200221"	"Response_Inhibition"	"RIGHT"	"RIGHT"	300.137300000017	1300.0000026	n/a	n/a	n/a	n/a	n/a	n/a	n/a	"2020-02-21 10:58:35.333940"	"2020-02-21 10:58:35.842021"	8	5.4070838
"S200221"	"Response_Inhibition"	"RIGHT"	"RIGHT"	278.813533799986	1133.3333356	n/a	n/a	n/a	n/a	n/a	n/a	n/a	"2020-02-21 10:58:36.984750"	"2020-02-21 10:58:37.475428"	9	5.4070838
"S200221"	"Response_Inhibition"	"RIGHT"	"RIGHT"	299.73656700001	783.3333349	n/a	n/a	n/a	n/a	n/a	n/a	n/a	"2020-02-21 10:58:38.266780"	"2020-02-21 10:58:38.778969"	10	5.4070838
"S200221"	"Response_Inhibition"	"RIGHT"	"RIGHT"	832.178699999986	1166.666669	n/a	n/a	n/a	n/a	n/a	n/a	n/a	"2020-02-21 10:58:39.954011"	"2020-02-21 10:58:40.994961"	11	5.4070838
"S200221"	"Response_Inhibition"	"LEFT"	"LEFT"	277.378499999998	1433.3333362	n/a	n/a	n/a	n/a	n/a	n/a	n/a	"2020-02-21 10:58:42.436727"	"2020-02-21 10:58:42.922566"	12	5.4070838
"S200221"	"Response_Inhibition"	"RIGHT"	"RIGHT"	398.956400000031	800.0000016	n/a	n/a	n/a	n/a	n/a	n/a	n/a	"2020-02-21 10:58:43.731619"	"2020-02-21 10:58:44.337789"	13	5.4070838
"S200221"	"Response_Inhibition"	"LEFT"	"LEFT"	321.644800000001	533.3333344	n/a	n/a	n/a	n/a	n/a	n/a	n/a	"2020-02-21 10:58:44.880537"	"2020-02-21 10:58:45.410430"	14	5.4070838
"S200221"	"Response_Inhibition"	"LEFT"	"LEFT"	371.393000100001	616.6666679	n/a	n/a	n/a	n/a	n/a	n/a	n/a	"2020-02-21 10:58:46.035791"	"2020-02-21 10:58:46.617485"	15	5.4070838
"S200221"	"Response_Inhibition"	"RIGHT"	"RIGHT"	266.407000000015	950.0000019	n/a	n/a	n/a	n/a	n/a	n/a	n/a	"2020-02-21 10:58:47.575700"	"2020-02-21 10:58:48.051017"	16	5.4070838
"S200221"	"Response_Inhibition"	"RIGHT"	"RIGHT"	284.612599999946	850.0000017	n/a	n/a	n/a	n/a	n/a	n/a	n/a	"2020-02-21 10:58:48.909307"	"2020-02-21 10:58:49.403305"	17	5.4070838
"S200221"	"Response_Inhibition"	"RIGHT"	"RIGHT"	321.918700000026	916.6666685	n/a	n/a	n/a	n/a	n/a	n/a	n/a	"2020-02-21 10:58:50.328035"	"2020-02-21 10:58:50.857908"	18	5.4070838
"S200221"	"Response_Inhibition"	"RIGHT"	"RIGHT"	345.812500000022	1150.0000023	n/a	n/a	n/a	n/a	n/a	n/a	n/a	"2020-02-21 10:58:52.016924"	"2020-02-21 10:58:52.569610"	19	5.4070838
"S200221"	"Response_Inhibition"	"LEFT"	"LEFT"	562.918633499997	1450.0000029	n/a	n/a	n/a	n/a	n/a	n/a	n/a	"2020-02-21 10:58:54.028273"	"2020-02-21 10:58:54.802010"	20	5.4070838
"S200221"	"Response_Inhibition"	"RIGHT"	"RIGHT"	211.623900000006	1100.0000022	n/a	n/a	n/a	n/a	n/a	n/a	n/a	"2020-02-21 10:58:55.910830"	"2020-02-21 10:58:56.331367"	21	5.4070838
"S200221"	"Response_Inhibition"	"RIGHT"	"RIGHT"	447.112900000036	583.3333345	n/a	n/a	n/a	n/a	n/a	n/a	n/a	"2020-02-21 10:58:56.923006"	"2020-02-21 10:58:57.578620"	22	5.4070838
"S200221"	"Response_Inhibition"	"LEFT"	"LEFT"	247.312266700003	916.6666685	n/a	n/a	n/a	n/a	n/a	n/a	n/a	"2020-02-21 10:58:58.504176"	"2020-02-21 10:58:58.962561"	23	5.4070838
"S200221"	"Response_Inhibition"	"RIGHT"	"RIGHT"	195.245200000045	1100.0000022	n/a	n/a	n/a	n/a	n/a	n/a	n/a	"2020-02-21 10:59:00.070615"	"2020-02-21 10:59:00.474178"	24	5.4070838
"S200221"	"Response_Inhibition"	"RIGHT"	"RIGHT"	268.898999999976	1250.0000025	n/a	n/a	n/a	n/a	n/a	n/a	n/a	"2020-02-21 10:59:01.733641"	"2020-02-21 10:59:02.210413"	25	5.4070838
"S200221"	"Response_Inhibition"	"LEFT"	"LEFT"	340.936699999986	866.6666684	n/a	n/a	n/a	n/a	n/a	n/a	n/a	"2020-02-21 10:59:03.085787"	"2020-02-21 10:59:03.635369"	26	5.4070838
"S200221"	"Response_Inhibition"	"LEFT"	"LEFT"	376.291999999978	950.0000019	n/a	n/a	n/a	n/a	n/a	n/a	n/a	"2020-02-21 10:59:04.594170"	"2020-02-21 10:59:05.177897"	27	5.4070838
"S200221"	"Response_Inhibition"	"RIGHT"	"RIGHT"	255.885566799958	900.0000018	n/a	n/a	n/a	n/a	n/a	n/a	n/a	"2020-02-21 10:59:06.087225"	"2020-02-21 10:59:06.555024"	28	5.4070838
"S200221"	"Response_Inhibition"	"RIGHT"	"RIGHT"	370.935599999996	900.0000018	n/a	n/a	n/a	n/a	n/a	n/a	n/a	"2020-02-21 10:59:07.463234"	"2020-02-21 10:59:08.043215"	29	5.4070838
"S200221"	"Response_Inhibition"	"LEFT"	"LEFT"	369.29540040001	1050.0000021	n/a	n/a	n/a	n/a	n/a	n/a	n/a	"2020-02-21 10:59:09.101593"	"2020-02-21 10:59:09.682505"	30	5.4070838
"S200221"	"Response_Inhibition"	"LEFT"	"LEFT"	310.600233899972	933.3333352	n/a	n/a	n/a	n/a	n/a	n/a	n/a	"2020-02-21 10:59:10.625087"	"2020-02-21 10:59:11.146561"	31	5.4070838
"S200221"	"Response_Inhibition"	"LEFT"	"LEFT"	265.269100000012	950.0000019	n/a	n/a	n/a	n/a	n/a	n/a	n/a	"2020-02-21 10:59:12.105238"	"2020-02-21 10:59:12.578841"	32	5.4070838
"S200221"	"Response_Inhibition"	"RIGHT"	"RIGHT"	262.502400000017	1216.6666691	n/a	n/a	n/a	n/a	n/a	n/a	n/a	"2020-02-21 10:59:13.803676"	"2020-02-21 10:59:14.274177"	33	5.4070838
"S200221"	"Response_Inhibition"	"RIGHT"	"RIGHT"	310.764500000005	1000.000002	n/a	n/a	n/a	n/a	n/a	n/a	n/a	"2020-02-21 10:59:15.283944"	"2020-02-21 10:59:15.801641"	34	5.4070838
"S200221"	"Response_Inhibition"	"LEFT"	"LEFT"	381.103300000007	1066.6666688	n/a	n/a	n/a	n/a	n/a	n/a	n/a	"2020-02-21 10:59:16.877039"	"2020-02-21 10:59:17.465973"	35	5.4070838
"S200221"	"Response_Inhibition"	"RIGHT"	"RIGHT"	252.446500000019	1266.6666692	n/a	n/a	n/a	n/a	n/a	n/a	n/a	"2020-02-21 10:59:18.741960"	"2020-02-21 10:59:19.201653"	36	5.4070838
"S200221"	"Response_Inhibition"	"LEFT"	"LEFT"	295.968999999957	1400.0000028	n/a	n/a	n/a	n/a	n/a	n/a	n/a	"2020-02-21 10:59:20.610628"	"2020-02-21 10:59:21.114630"	37	5.4070838
"S200221"	"Response_Inhibition"	"RIGHT"	"RIGHT"	257.999799999993	933.3333352	n/a	n/a	n/a	n/a	n/a	n/a	n/a	"2020-02-21 10:59:22.056046"	"2020-02-21 10:59:22.523418"	38	5.4070838
"S200221"	"Response_Inhibition"	"RIGHT"	"RIGHT"	346.554000000026	1500.000003	n/a	n/a	n/a	n/a	n/a	n/a	n/a	"2020-02-21 10:59:24.032144"	"2020-02-21 10:59:24.585768"	39	5.4070838
"S200221"	"Response_Inhibition"	"RIGHT"	"RIGHT"	324.028100000021	683.3333347	n/a	n/a	n/a	n/a	n/a	n/a	n/a	"2020-02-21 10:59:25.277916"	"2020-02-21 10:59:25.809692"	40	5.4070838
"S200221"	"Response_Inhibition"	"LEFT"	"LEFT"	589.421899999991	1466.6666696	n/a	n/a	n/a	n/a	n/a	n/a	n/a	"2020-02-21 10:59:27.284788"	"2020-02-21 10:59:28.081920"	41	5.4070838
"S200221"	"Response_Inhibition"	"LEFT"	"LEFT"	344.743299999948	583.3333345	n/a	n/a	n/a	n/a	n/a	n/a	n/a	"2020-02-21 10:59:28.674059"	"2020-02-21 10:59:29.225622"	42	5.4070838
"S200221"	"Response_Inhibition"	"RIGHT"	"RIGHT"	236.425533700037	1200.0000024	n/a	n/a	n/a	n/a	n/a	n/a	n/a	"2020-02-21 10:59:30.434508"	"2020-02-21 10:59:30.882341"	43	5.4070838
"S200221"	"Response_Inhibition"	"LEFT"	"LEFT"	340.679499999965	1466.6666696	n/a	n/a	n/a	n/a	n/a	n/a	n/a	"2020-02-21 10:59:32.357898"	"2020-02-21 10:59:32.905620"	44	5.4070838
"S200221"	"Response_Inhibition"	"LEFT"	"LEFT"	398.344533900026	766.6666682	n/a	n/a	n/a	n/a	n/a	n/a	n/a	"2020-02-21 10:59:33.680216"	"2020-02-21 10:59:34.289854"	45	5.4070838
"S200221"	"Response_Inhibition"	"LEFT"	"Time_Max_Exceeded"	1500.04843360008	633.3333346	n/a	n/a	n/a	n/a	n/a	n/a	n/a	"2020-02-21 10:59:34.933133"	"2020-02-21 10:59:36.436023"	46	5.4070838
"S200221"	"Response_Inhibition"	"LEFT"	"LEFT"	289.028667200044	816.6666683	n/a	n/a	n/a	n/a	n/a	n/a	n/a	"2020-02-21 10:59:37.262292"	"2020-02-21 10:59:37.762792"	47	5.4070838
"S200221"	"Response_Inhibition"	"LEFT"	"LEFT"	385.808200000042	716.6666681	n/a	n/a	n/a	n/a	n/a	n/a	n/a	"2020-02-21 10:59:38.488566"	"2020-02-21 10:59:39.081602"	48	5.4070838
"S200221"	"Response_Inhibition"	"RIGHT"	"RIGHT"	257.073700000092	1383.3333361	n/a	n/a	n/a	n/a	n/a	n/a	n/a	"2020-02-21 10:59:40.473673"	"2020-02-21 10:59:40.937704"	49	5.4070838
"S200221"	"Response_Inhibition"	"LEFT"	"LEFT"	254.098800000065	850.0000017	n/a	n/a	n/a	n/a	n/a	n/a	n/a	"2020-02-21 10:59:41.795727"	"2020-02-21 10:59:42.257556"	50	5.4070838
"S200221"	"Response_Inhibition"	"LEFT"	"Time_Max_Exceeded"	1500.0536	516.6666677	n/a	n/a	n/a	n/a	n/a	n/a	n/a	"2020-02-21 10:59:42.782827"	"2020-02-21 10:59:44.282806"	51	5.4070838
"S200221"	"Response_Inhibition"	"RIGHT"	"RIGHT"	306.098000400088	1016.6666687	n/a	n/a	n/a	n/a	n/a	n/a	n/a	"2020-02-21 10:59:45.309042"	"2020-02-21 10:59:45.826370"	52	5.4070838
"S200221"	"Response_Inhibition"	"RIGHT"	"RIGHT"	389.46610000005	650.0000013	n/a	n/a	n/a	n/a	n/a	n/a	n/a	"2020-02-21 10:59:46.484658"	"2020-02-21 10:59:47.081663"	53	5.4070838
"S200221"	"Response_Inhibition"	"LEFT"	"Time_Max_Exceeded"	1500.0540334	1266.6666692	n/a	n/a	n/a	n/a	n/a	n/a	n/a	"2020-02-21 10:59:48.356417"	"2020-02-21 10:59:49.859715"	54	5.4070838
"S200221"	"Response_Inhibition"	"LEFT"	"LEFT"	295.636167099971	850.0000017	n/a	n/a	n/a	n/a	n/a	n/a	n/a	"2020-02-21 10:59:50.718811"	"2020-02-21 10:59:51.225686"	55	5.4070838
"S200221"	"Response_Inhibition"	"LEFT"	"LEFT"	334.360300000071	833.333335	n/a	n/a	n/a	n/a	n/a	n/a	n/a	"2020-02-21 10:59:52.068268"	"2020-02-21 10:59:52.610117"	56	5.4070838
"S200221"	"Response_Inhibition"	"RIGHT"	"RIGHT"	258.262833500076	850.0000017	n/a	n/a	n/a	n/a	n/a	n/a	n/a	"2020-02-21 10:59:53.469203"	"2020-02-21 10:59:53.937529"	57	5.4070838
"S200221"	"Response_Inhibition"	"LEFT"	"LEFT"	345.778033799969	1483.3333363	n/a	n/a	n/a	n/a	n/a	n/a	n/a	"2020-02-21 10:59:55.429296"	"2020-02-21 10:59:55.985843"	58	5.4070838
"S200221"	"Response_Inhibition"	"RIGHT"	"RIGHT"	272.459700300036	1483.3333363	n/a	n/a	n/a	n/a	n/a	n/a	n/a	"2020-02-21 10:59:57.479001"	"2020-02-21 10:59:57.962452"	59	5.4070838
"S200221"	"Response_Inhibition"	"RIGHT"	"RIGHT"	326.253800000018	633.3333346	n/a	n/a	n/a	n/a	n/a	n/a	n/a	"2020-02-21 10:59:58.603970"	"2020-02-21 10:59:59.137581"	60	5.4070838
"S200221"	"Response_Inhibition"	"LEFT"	"LEFT"	318.292199999973	1050.0000021	n/a	n/a	n/a	n/a	n/a	n/a	n/a	"2020-02-21 11:00:00.195575"	"2020-02-21 11:00:00.721749"	61	5.4070838
"S200221"	"Response_Inhibition"	"LEFT"	"LEFT"	270.865000000072	1233.3333358	n/a	n/a	n/a	n/a	n/a	n/a	n/a	"2020-02-21 11:00:01.963646"	"2020-02-21 11:00:02.442184"	62	5.4070838
"S200221"	"Response_Inhibition"	"LEFT"	"LEFT"	374.550099999965	1216.6666691	n/a	n/a	n/a	n/a	n/a	n/a	n/a	"2020-02-21 11:00:03.667586"	"2020-02-21 11:00:04.251213"	63	5.4070838
"S200221"	"Response_Inhibition"	"RIGHT"	"RIGHT"	454.057899999952	1416.6666695	n/a	n/a	n/a	n/a	n/a	n/a	n/a	"2020-02-21 11:00:05.675826"	"2020-02-21 11:00:06.339038"	64	5.4070838
"S200221"	"Response_Inhibition"	"RIGHT"	"RIGHT"	408.401199999957	733.3333348	n/a	n/a	n/a	n/a	n/a	n/a	n/a	"2020-02-21 11:00:07.081896"	"2020-02-21 11:00:07.698449"	65	5.4070838
"S200221"	"Response_Inhibition"	"RIGHT"	"RIGHT"	357.453133799903	1366.6666694	n/a	n/a	n/a	n/a	n/a	n/a	n/a	"2020-02-21 11:00:09.074023"	"2020-02-21 11:00:09.642254"	66	5.4070838
"S200221"	"Response_Inhibition"	"RIGHT"	"RIGHT"	400.885300500027	1283.3333359	n/a	n/a	n/a	n/a	n/a	n/a	n/a	"2020-02-21 11:00:10.934545"	"2020-02-21 11:00:11.545502"	67	5.4070838
"S200221"	"Response_Inhibition"	"RIGHT"	"RIGHT"	269.919500000015	1450.0000029	n/a	n/a	n/a	n/a	n/a	n/a	n/a	"2020-02-21 11:00:13.004060"	"2020-02-21 11:00:13.483058"	68	5.4070838
"S200221"	"Response_Inhibition"	"RIGHT"	"RIGHT"	299.873300400013	533.3333344	n/a	n/a	n/a	n/a	n/a	n/a	n/a	"2020-02-21 11:00:14.026903"	"2020-02-21 11:00:14.539285"	69	5.4070838
"S200221"	"Response_Inhibition"	"RIGHT"	"RIGHT"	260.414699999956	1033.3333354	n/a	n/a	n/a	n/a	n/a	n/a	n/a	"2020-02-21 11:00:15.581660"	"2020-02-21 11:00:16.050249"	70	5.4070838
"S200221"	"Response_Inhibition"	"RIGHT"	"RIGHT"	293.992900000035	633.3333346	n/a	n/a	n/a	n/a	n/a	n/a	n/a	"2020-02-21 11:00:16.692522"	"2020-02-21 11:00:17.194190"	71	5.4070838
"S200221"	"Response_Inhibition"	"LEFT"	"LEFT"	384.185199999934	983.3333353	n/a	n/a	n/a	n/a	n/a	n/a	n/a	"2020-02-21 11:00:18.185916"	"2020-02-21 11:00:18.778377"	72	5.4070838
"S200221"	"Response_Inhibition"	"LEFT"	"LEFT"	355.566766900023	1000.000002	n/a	n/a	n/a	n/a	n/a	n/a	n/a	"2020-02-21 11:00:19.787631"	"2020-02-21 11:00:20.353709"	73	5.4070838
"S200221"	"Response_Inhibition"	"LEFT"	"LEFT"	539.072899999951	500.000001	n/a	n/a	n/a	n/a	n/a	n/a	n/a	"2020-02-21 11:00:20.862810"	"2020-02-21 11:00:21.610728"	74	5.4070838
"S200221"	"Response_Inhibition"	"LEFT"	"LEFT"	341.658199999983	1033.3333354	n/a	n/a	n/a	n/a	n/a	n/a	n/a	"2020-02-21 11:00:22.652646"	"2020-02-21 11:00:23.203411"	75	5.4070838
"S200221"	"Response_Inhibition"	"LEFT"	"LEFT"	482.467300000053	900.0000018	n/a	n/a	n/a	n/a	n/a	n/a	n/a	"2020-02-21 11:00:24.112021"	"2020-02-21 11:00:24.803156"	76	5.4070838
"S200221"	"Response_Inhibition"	"LEFT"	"LEFT"	322.640700000079	900.0000018	n/a	n/a	n/a	n/a	n/a	n/a	n/a	"2020-02-21 11:00:25.711451"	"2020-02-21 11:00:26.243183"	77	5.4070838
"S200221"	"Response_Inhibition"	"LEFT"	"LEFT"	296.54789999995	733.3333348	n/a	n/a	n/a	n/a	n/a	n/a	n/a	"2020-02-21 11:00:26.985857"	"2020-02-21 11:00:27.489746"	78	5.4070838
"S200221"	"Response_Inhibition"	"RIGHT"	"RIGHT"	523.489000000041	516.6666677	n/a	n/a	n/a	n/a	n/a	n/a	n/a	"2020-02-21 11:00:28.014913"	"2020-02-21 11:00:28.746156"	79	5.4070838
"S200221"	"Response_Inhibition"	"RIGHT"	"RIGHT"	338.151699999912	1333.333336	n/a	n/a	n/a	n/a	n/a	n/a	n/a	"2020-02-21 11:00:30.088567"	"2020-02-21 11:00:30.633652"	80	5.4070838
"S200221"	"Response_Inhibition"	"LEFT"	"LEFT"	341.297600000075	1266.6666692	n/a	n/a	n/a	n/a	n/a	n/a	n/a	"2020-02-21 11:00:31.908874"	"2020-02-21 11:00:32.457580"	81	5.4070838
"S200221"	"Response_Inhibition"	"RIGHT"	"RIGHT"	316.849500499989	600.0000012	n/a	n/a	n/a	n/a	n/a	n/a	n/a	"2020-02-21 11:00:33.065806"	"2020-02-21 11:00:33.594034"	82	5.4070838
"S200221"	"Response_Inhibition"	"LEFT"	"LEFT"	321.770700000002	1150.0000023	n/a	n/a	n/a	n/a	n/a	n/a	n/a	"2020-02-21 11:00:34.752779"	"2020-02-21 11:00:35.283346"	83	5.4070838
"S200221"	"Response_Inhibition"	"LEFT"	"LEFT"	327.081700000008	1383.3333361	n/a	n/a	n/a	n/a	n/a	n/a	n/a	"2020-02-21 11:00:36.675128"	"2020-02-21 11:00:37.210337"	84	5.4070838
"S200221"	"Response_Inhibition"	"RIGHT"	"RIGHT"	299.785199999974	1083.3333355	n/a	n/a	n/a	n/a	n/a	n/a	n/a	"2020-02-21 11:00:38.302367"	"2020-02-21 11:00:38.811051"	85	5.4070838
"S200221"	"Response_Inhibition"	"LEFT"	"LEFT"	309.057299999949	633.3333346	n/a	n/a	n/a	n/a	n/a	n/a	n/a	"2020-02-21 11:00:39.452996"	"2020-02-21 11:00:39.970378"	86	5.4070838
"S200221"	"Response_Inhibition"	"LEFT"	"Time_Max_Exceeded"	1500.07536669993	683.3333347	n/a	n/a	n/a	n/a	n/a	n/a	n/a	"2020-02-21 11:00:40.663126"	"2020-02-21 11:00:42.166316"	87	5.4070838
"S200221"	"Response_Inhibition"	"LEFT"	"LEFT"	346.939800000087	1183.3333357	n/a	n/a	n/a	n/a	n/a	n/a	n/a	"2020-02-21 11:00:43.359715"	"2020-02-21 11:00:43.913720"	88	5.4070838
"S200221"	"Response_Inhibition"	"LEFT"	"Time_Max_Exceeded"	1500.04813359995	1366.6666694	n/a	n/a	n/a	n/a	n/a	n/a	n/a	"2020-02-21 11:00:45.289268"	"2020-02-21 11:00:46.792952"	89	5.4070838
"S200221"	"Response_Inhibition"	"RIGHT"	"RIGHT"	357.65756710002	816.6666683	n/a	n/a	n/a	n/a	n/a	n/a	n/a	"2020-02-21 11:00:47.618658"	"2020-02-21 11:00:48.188123"	90	5.4070838
"S200221"	"Response_Inhibition"	"RIGHT"	"RIGHT"	468.425467199993	750.0000015	n/a	n/a	n/a	n/a	n/a	n/a	n/a	"2020-02-21 11:00:48.947368"	"2020-02-21 11:00:49.625707"	91	5.4070838
"S200221"	"Response_Inhibition"	"RIGHT"	"RIGHT"	568.25850000007	783.3333349	n/a	n/a	n/a	n/a	n/a	n/a	n/a	"2020-02-21 11:00:50.417584"	"2020-02-21 11:00:51.194334"	92	5.4070838
"S200221"	"Response_Inhibition"	"RIGHT"	"RIGHT"	682.206399999927	733.3333348	n/a	n/a	n/a	n/a	n/a	n/a	n/a	"2020-02-21 11:00:51.936519"	"2020-02-21 11:00:52.825805"	93	5.4070838
"S200221"	"Response_Inhibition"	"RIGHT"	"Time_Max_Exceeded"	1500.05660020008	700.0000014	n/a	n/a	n/a	n/a	n/a	n/a	n/a	"2020-02-21 11:00:53.534438"	"2020-02-21 11:00:55.037574"	94	5.4070838
"S200221"	"Response_Inhibition"	"RIGHT"	"Time_Max_Exceeded"	1500.05136689997	1316.6666693	n/a	n/a	n/a	n/a	n/a	n/a	n/a	"2020-02-21 11:00:56.363949"	"2020-02-21 11:00:57.866515"	95	5.4070838
"S200221"	"Response_Inhibition"	"LEFT"	"LEFT"	379.012200000034	883.3333351	n/a	n/a	n/a	n/a	n/a	n/a	n/a	"2020-02-21 11:00:58.759435"	"2020-02-21 11:00:59.347037"	96	5.4070838
"S200221"	"Response_Inhibition"	"RIGHT"	"RIGHT"	528.774999999996	550.0000011	n/a	n/a	n/a	n/a	n/a	n/a	n/a	"2020-02-21 11:00:59.905781"	"2020-02-21 11:01:00.643057"	97	5.4070838
"S200221"	"Response_Inhibition"	"RIGHT"	"RIGHT"	313.019599999961	1316.6666693	n/a	n/a	n/a	n/a	n/a	n/a	n/a	"2020-02-21 11:01:01.969129"	"2020-02-21 11:01:02.489785"	98	5.4070838
"S200221"	"Response_Inhibition"	"RIGHT"	"RIGHT"	406.484166899913	1150.0000023	n/a	n/a	n/a	n/a	n/a	n/a	n/a	"2020-02-21 11:01:03.648897"	"2020-02-21 11:01:04.265854"	99	5.4070838
"S200221"	"Response_Inhibition"	"LEFT"	"LEFT"	369.171999999935	1150.0000023	n/a	n/a	n/a	n/a	n/a	n/a	n/a	"2020-02-21 11:01:05.425262"	"2020-02-21 11:01:06.002659"	100	5.4070838
"S200221"	"Response_Inhibition"	"RIGHT"	"RIGHT"	406.671399999937	1400.0000028	n/a	n/a	n/a	n/a	n/a	n/a	n/a	"2020-02-21 11:01:07.411143"	"2020-02-21 11:01:08.025805"	101	5.4070838
"S200221"	"Response_Inhibition"	"RIGHT"	"RIGHT"	357.714999999985	1050.0000021	n/a	n/a	n/a	n/a	n/a	n/a	n/a	"2020-02-21 11:01:09.084770"	"2020-02-21 11:01:09.649510"	102	5.4070838
"S200221"	"Response_Inhibition"	"LEFT"	"LEFT"	561.597399999982	1366.6666694	n/a	n/a	n/a	n/a	n/a	n/a	n/a	"2020-02-21 11:01:11.024391"	"2020-02-21 11:01:11.794352"	103	5.4070838
"S200221"	"Response_Inhibition"	"RIGHT"	"RIGHT"	409.491700600035	1066.6666688	n/a	n/a	n/a	n/a	n/a	n/a	n/a	"2020-02-21 11:01:12.869942"	"2020-02-21 11:01:13.490974"	104	5.4070838
"S200221"	"Response_Inhibition"	"RIGHT"	"RIGHT"	407.354199999986	1366.6666694	n/a	n/a	n/a	n/a	n/a	n/a	n/a	"2020-02-21 11:01:14.867150"	"2020-02-21 11:01:15.483195"	105	5.4070838
"S200221"	"Response_Inhibition"	"LEFT"	"LEFT"	511.314900000002	550.0000011	n/a	n/a	n/a	n/a	n/a	n/a	n/a	"2020-02-21 11:01:16.042666"	"2020-02-21 11:01:16.762597"	106	5.4070838
"S200221"	"Response_Inhibition"	"LEFT"	"Time_Max_Exceeded"	1500.05283339995	1216.6666691	n/a	n/a	n/a	n/a	n/a	n/a	n/a	"2020-02-21 11:01:17.987634"	"2020-02-21 11:01:19.491743"	107	5.4070838
"S200221"	"Response_Inhibition"	"LEFT"	"Time_Max_Exceeded"	1500.0563005001	783.3333349	n/a	n/a	n/a	n/a	n/a	n/a	n/a	"2020-02-21 11:01:20.284623"	"2020-02-21 11:01:21.787635"	108	5.4070838
"S200221"	"Response_Inhibition"	"RIGHT"	"Time_Max_Exceeded"	1500.05026669991	1466.6666696	n/a	n/a	n/a	n/a	n/a	n/a	n/a	"2020-02-21 11:01:23.263476"	"2020-02-21 11:01:24.767023"	109	5.4070838
"S200221"	"Response_Inhibition"	"LEFT"	"LEFT"	385.585800000058	1016.6666687	n/a	n/a	n/a	n/a	n/a	n/a	n/a	"2020-02-21 11:01:25.792906"	"2020-02-21 11:01:26.385967"	110	5.4070838
"S200221"	"Response_Inhibition"	"LEFT"	"LEFT"	399.020667199964	1133.3333356	n/a	n/a	n/a	n/a	n/a	n/a	n/a	"2020-02-21 11:01:27.527497"	"2020-02-21 11:01:28.137945"	111	5.4070838
"S200221"	"Response_Inhibition"	"LEFT"	"LEFT"	369.656400000054	750.0000015	n/a	n/a	n/a	n/a	n/a	n/a	n/a	"2020-02-21 11:01:28.896580"	"2020-02-21 11:01:29.473927"	112	5.4070838
"S200221"	"Response_Inhibition"	"LEFT"	"LEFT"	369.226099999992	1350.0000027	n/a	n/a	n/a	n/a	n/a	n/a	n/a	"2020-02-21 11:01:30.833047"	"2020-02-21 11:01:31.409926"	113	5.4070838
"S200221"	"Response_Inhibition"	"LEFT"	"LEFT"	340.768999999909	666.666668	n/a	n/a	n/a	n/a	n/a	n/a	n/a	"2020-02-21 11:01:32.085151"	"2020-02-21 11:01:32.633877"	114	5.4070838
"S200221"	"Response_Inhibition"	"RIGHT"	"RIGHT"	606.389899999954	833.333335	n/a	n/a	n/a	n/a	n/a	n/a	n/a	"2020-02-21 11:01:33.475937"	"2020-02-21 11:01:34.289883"	115	5.4070838
"S200221"	"Response_Inhibition"	"LEFT"	"LEFT"	295.597799999996	800.0000016	n/a	n/a	n/a	n/a	n/a	n/a	n/a	"2020-02-21 11:01:35.098917"	"2020-02-21 11:01:35.602366"	116	5.4070838
"S200221"	"Response_Inhibition"	"LEFT"	"Time_Max_Exceeded"	1500.05813370009	1333.333336	n/a	n/a	n/a	n/a	n/a	n/a	n/a	"2020-02-21 11:01:36.944866"	"2020-02-21 11:01:38.448135"	117	5.4070838
"S200221"	"Response_Inhibition"	"RIGHT"	"RIGHT"	503.890500000011	616.6666679	n/a	n/a	n/a	n/a	n/a	n/a	n/a	"2020-02-21 11:01:39.074684"	"2020-02-21 11:01:39.786824"	118	5.4070838
"S200221"	"Response_Inhibition"	"RIGHT"	"RIGHT"	486.08569999999	583.3333345	n/a	n/a	n/a	n/a	n/a	n/a	n/a	"2020-02-21 11:01:40.380221"	"2020-02-21 11:01:41.073835"	119	5.4070838
"S200221"	"Response_Inhibition"	"RIGHT"	"RIGHT"	405.10960000006	1266.6666692	n/a	n/a	n/a	n/a	n/a	n/a	n/a	"2020-02-21 11:01:42.349143"	"2020-02-21 11:01:42.963309"	120	5.4070838
"S200221"	"Response_Inhibition"	"LEFT"	"LEFT"	458.097967300022	1416.6666695	n/a	n/a	n/a	n/a	n/a	n/a	n/a	"2020-02-21 11:01:44.388637"	"2020-02-21 11:01:45.057911"	121	5.4070838
"S200221"	"Response_Inhibition"	"LEFT"	"LEFT"	511.159399999997	600.0000012	n/a	n/a	n/a	n/a	n/a	n/a	n/a	"2020-02-21 11:01:45.667055"	"2020-02-21 11:01:46.386209"	122	5.4070838
"S200221"	"Response_Inhibition"	"RIGHT"	"RIGHT"	289.056800000026	766.6666682	n/a	n/a	n/a	n/a	n/a	n/a	n/a	"2020-02-21 11:01:47.160942"	"2020-02-21 11:01:47.657558"	123	5.4070838
"S200221"	"Response_Inhibition"	"RIGHT"	"RIGHT"	397.428000600036	950.0000019	n/a	n/a	n/a	n/a	n/a	n/a	n/a	"2020-02-21 11:01:48.616579"	"2020-02-21 11:01:49.226585"	124	5.4070838
"S200221"	"Response_Inhibition"	"LEFT"	"LEFT"	312.210800000003	966.6666686	n/a	n/a	n/a	n/a	n/a	n/a	n/a	"2020-02-21 11:01:50.202277"	"2020-02-21 11:01:50.723065"	125	5.4070838
"S200221"	"Response_Inhibition"	"RIGHT"	"RIGHT"	282.064233600032	1416.6666695	n/a	n/a	n/a	n/a	n/a	n/a	n/a	"2020-02-21 11:01:52.149397"	"2020-02-21 11:01:52.642610"	126	5.4070838
"S200221"	"Response_Inhibition"	"LEFT"	"LEFT"	350.294700000063	1416.6666695	n/a	n/a	n/a	n/a	n/a	n/a	n/a	"2020-02-21 11:01:54.068345"	"2020-02-21 11:01:54.625852"	127	5.4070838
"S200221"	"Response_Inhibition"	"LEFT"	"LEFT"	539.146899999992	1316.6666693	n/a	n/a	n/a	n/a	n/a	n/a	n/a	"2020-02-21 11:01:55.951395"	"2020-02-21 11:01:56.699003"	128	5.4070838
"S200221"	"Response_Inhibition"	"RIGHT"	"RIGHT"	362.88019999995	866.6666684	n/a	n/a	n/a	n/a	n/a	n/a	n/a	"2020-02-21 11:01:57.575357"	"2020-02-21 11:01:58.146965"	129	5.4070838
"S200221"	"Response_Inhibition"	"LEFT"	"Time_Max_Exceeded"	1500.05286679997	1100.0000022	n/a	n/a	n/a	n/a	n/a	n/a	n/a	"2020-02-21 11:01:59.256353"	"2020-02-21 11:02:00.759158"	130	5.4070838
"S200221"	"Response_Inhibition"	"LEFT"	"LEFT"	407.804866999909	566.6666678	n/a	n/a	n/a	n/a	n/a	n/a	n/a	"2020-02-21 11:02:01.335537"	"2020-02-21 11:02:01.954459"	131	5.4070838
"S200221"	"Response_Inhibition"	"LEFT"	"Time_Max_Exceeded"	1500.06780030003	1166.666669	n/a	n/a	n/a	n/a	n/a	n/a	n/a	"2020-02-21 11:02:03.130003"	"2020-02-21 11:02:04.633722"	132	5.4070838
"S200221"	"Response_Inhibition"	"LEFT"	"LEFT"	336.664099999894	783.3333349	n/a	n/a	n/a	n/a	n/a	n/a	n/a	"2020-02-21 11:02:05.425331"	"2020-02-21 11:02:05.969496"	133	5.4070838
"S200221"	"Response_Inhibition"	"LEFT"	"LEFT"	410.880700000007	733.3333348	n/a	n/a	n/a	n/a	n/a	n/a	n/a	"2020-02-21 11:02:06.711641"	"2020-02-21 11:02:07.329559"	134	5.4070838
"S200221"	"Response_Inhibition"	"LEFT"	"LEFT"	340.10330000001	1100.0000022	n/a	n/a	n/a	n/a	n/a	n/a	n/a	"2020-02-21 11:02:08.437828"	"2020-02-21 11:02:08.986380"	135	5.4070838
"S200221"	"Response_Inhibition"	"RIGHT"	"RIGHT"	535.387700000001	1183.3333357	n/a	n/a	n/a	n/a	n/a	n/a	n/a	"2020-02-21 11:02:10.179077"	"2020-02-21 11:02:10.923099"	136	5.4070838
"S200221"	"Response_Inhibition"	"LEFT"	"LEFT"	347.343300000034	1283.3333359	n/a	n/a	n/a	n/a	n/a	n/a	n/a	"2020-02-21 11:02:12.214399"	"2020-02-21 11:02:12.771495"	137	5.4070838
"S200221"	"Response_Inhibition"	"LEFT"	"LEFT"	409.012800000028	533.3333344	n/a	n/a	n/a	n/a	n/a	n/a	n/a	"2020-02-21 11:02:13.313160"	"2020-02-21 11:02:13.930334"	138	5.4070838
"S200221"	"Response_Inhibition"	"RIGHT"	"RIGHT"	367.191800000001	1216.6666691	n/a	n/a	n/a	n/a	n/a	n/a	n/a	"2020-02-21 11:02:15.155390"	"2020-02-21 11:02:15.730698"	139	5.4070838
"S200221"	"Response_Inhibition"	"LEFT"	"LEFT"	338.223899999889	1116.6666689	n/a	n/a	n/a	n/a	n/a	n/a	n/a	"2020-02-21 11:02:16.856187"	"2020-02-21 11:02:17.401671"	140	5.4070838
"S200221"	"Response_Inhibition"	"LEFT"	"LEFT"	616.168199999947	1200.0000024	n/a	n/a	n/a	n/a	n/a	n/a	n/a	"2020-02-21 11:02:18.609800"	"2020-02-21 11:02:19.434387"	141	5.4070838
"S200221"	"Response_Inhibition"	"LEFT"	"LEFT"	371.963499999993	1083.3333355	n/a	n/a	n/a	n/a	n/a	n/a	n/a	"2020-02-21 11:02:20.526599"	"2020-02-21 11:02:21.105917"	142	5.4070838
"S200221"	"Response_Inhibition"	"RIGHT"	"RIGHT"	404.80279999997	666.666668	n/a	n/a	n/a	n/a	n/a	n/a	n/a	"2020-02-21 11:02:21.780908"	"2020-02-21 11:02:22.394699"	143	5.4070838
"S200221"	"Response_Inhibition"	"RIGHT"	"RIGHT"	630.964899999981	1000.000002	n/a	n/a	n/a	n/a	n/a	n/a	n/a	"2020-02-21 11:02:23.403154"	"2020-02-21 11:02:24.242506"	144	5.4070838
"S200221"	"Response_Inhibition"	"RIGHT"	"RIGHT"	529.597100000046	533.3333344	n/a	n/a	n/a	n/a	n/a	n/a	n/a	"2020-02-21 11:02:24.784871"	"2020-02-21 11:02:25.521948"	145	5.4070838
"S200221"	"Response_Inhibition"	"LEFT"	"Time_Max_Exceeded"	1500.05330009992	1000.000002	n/a	n/a	n/a	n/a	n/a	n/a	n/a	"2020-02-21 11:02:26.530296"	"2020-02-21 11:02:28.033911"	146	5.4070838
"S200221"	"Response_Inhibition"	"LEFT"	"LEFT"	327.929933500023	700.0000014	n/a	n/a	n/a	n/a	n/a	n/a	n/a	"2020-02-21 11:02:28.743161"	"2020-02-21 11:02:29.281624"	147	5.4070838
"S200221"	"Response_Inhibition"	"LEFT"	"LEFT"	411.888500000032	1300.0000026	n/a	n/a	n/a	n/a	n/a	n/a	n/a	"2020-02-21 11:02:30.589951"	"2020-02-21 11:02:31.210966"	148	5.4070838
"S200221"	"Response_Inhibition"	"RIGHT"	"RIGHT"	273.611700200038	1050.0000021	n/a	n/a	n/a	n/a	n/a	n/a	n/a	"2020-02-21 11:02:32.269700"	"2020-02-21 11:02:32.753532"	149	5.4070838
"S200221"	"Response_Inhibition"	"RIGHT"	"Time_Max_Exceeded"	1500.0855006	1233.3333358	n/a	n/a	n/a	n/a	n/a	n/a	n/a	"2020-02-21 11:02:33.995999"	"2020-02-21 11:02:35.499504"	150	5.4070838
"S200221"	"Response_Inhibition"	"RIGHT"	"RIGHT"	534.855900000025	566.6666678	n/a	n/a	n/a	n/a	n/a	n/a	n/a	"2020-02-21 11:02:36.075782"	"2020-02-21 11:02:36.817812"	151	5.4070838
"S200221"	"Response_Inhibition"	"RIGHT"	"Time_Max_Exceeded"	1500.05026680007	966.6666686	n/a	n/a	n/a	n/a	n/a	n/a	n/a	"2020-02-21 11:02:37.792673"	"2020-02-21 11:02:39.297068"	152	5.4070838
"S200221"	"Response_Inhibition"	"LEFT"	"Time_Max_Exceeded"	1500.0587001	1250.0000025	n/a	n/a	n/a	n/a	n/a	n/a	n/a	"2020-02-21 11:02:40.555058"	"2020-02-21 11:02:42.058869"	153	5.4070838
"S200221"	"Response_Inhibition"	"LEFT"	"LEFT"	497.51660000004	1316.6666693	n/a	n/a	n/a	n/a	n/a	n/a	n/a	"2020-02-21 11:02:43.384600"	"2020-02-21 11:02:44.089697"	154	5.4070838
"S200221"	"Response_Inhibition"	"LEFT"	"LEFT"	460.397599999965	683.3333347	n/a	n/a	n/a	n/a	n/a	n/a	n/a	"2020-02-21 11:02:44.782121"	"2020-02-21 11:02:45.451323"	155	5.4070838
"S200221"	"Response_Inhibition"	"RIGHT"	"RIGHT"	358.32419999997	983.3333353	n/a	n/a	n/a	n/a	n/a	n/a	n/a	"2020-02-21 11:02:46.443721"	"2020-02-21 11:02:47.010354"	156	5.4070838
"S200221"	"Response_Inhibition"	"LEFT"	"LEFT"	416.025600000012	583.3333345	n/a	n/a	n/a	n/a	n/a	n/a	n/a	"2020-02-21 11:02:47.602242"	"2020-02-21 11:02:48.225836"	157	5.4070838
"S200221"	"Response_Inhibition"	"RIGHT"	"RIGHT"	315.751299999988	883.3333351	n/a	n/a	n/a	n/a	n/a	n/a	n/a	"2020-02-21 11:02:49.117806"	"2020-02-21 11:02:49.644542"	158	5.4070838
"S200221"	"Response_Inhibition"	"RIGHT"	"RIGHT"	515.948099999946	1433.3333362	n/a	n/a	n/a	n/a	n/a	n/a	n/a	"2020-02-21 11:02:51.086507"	"2020-02-21 11:02:51.811214"	159	5.4070838
"S200221"	"Response_Inhibition"	"LEFT"	"LEFT"	329.774899999961	1500.000003	n/a	n/a	n/a	n/a	n/a	n/a	n/a	"2020-02-21 11:02:53.320306"	"2020-02-21 11:02:53.857981"	160	5.4070838
"S200221"	"Response_Selection"	"LEFT"	"LEFT"	365.272899999979	833.333335	n/a	n/a	n/a	n/a	n/a	n/a	n/a	"2020-02-21 10:55:27.461475"	"2020-02-21 10:55:28.035190"	1	2.98723041666667
"S200221"	"Response_Selection"	"RIGHT"	"RIGHT"	327.469399999984	783.3333349	n/a	n/a	n/a	n/a	n/a	n/a	n/a	"2020-02-21 10:55:28.826897"	"2020-02-21 10:55:29.362508"	2	2.98723041666667
"S200221"	"Response_Selection"	"RIGHT"	"RIGHT"	323.85499999998	683.3333347	n/a	n/a	n/a	n/a	n/a	n/a	n/a	"2020-02-21 10:55:30.055114"	"2020-02-21 10:55:30.586012"	3	2.98723041666667
"S200221"	"Response_Selection"	"LEFT"	"LEFT"	248.995199999968	1366.6666694	n/a	n/a	n/a	n/a	n/a	n/a	n/a	"2020-02-21 10:55:31.961098"	"2020-02-21 10:55:32.417703"	4	2.98723041666667
"S200221"	"Response_Selection"	"RIGHT"	"RIGHT"	270.919699999979	833.333335	n/a	n/a	n/a	n/a	n/a	n/a	n/a	"2020-02-21 10:55:33.259578"	"2020-02-21 10:55:33.739123"	5	2.98723041666667
"S200221"	"Response_Selection"	"LEFT"	"LEFT"	305.635299999949	1133.3333356	n/a	n/a	n/a	n/a	n/a	n/a	n/a	"2020-02-21 10:55:34.880864"	"2020-02-21 10:55:35.395080"	6	2.98723041666667
"S200221"	"Response_Selection"	"RIGHT"	"RIGHT"	260.262000000012	1266.6666692	n/a	n/a	n/a	n/a	n/a	n/a	n/a	"2020-02-21 10:55:36.670125"	"2020-02-21 10:55:37.139100"	7	2.98723041666667
"S200221"	"Response_Selection"	"RIGHT"	"RIGHT"	435.025900000028	500.000001	n/a	n/a	n/a	n/a	n/a	n/a	n/a	"2020-02-21 10:55:37.647282"	"2020-02-21 10:55:38.289971"	8	2.98723041666667
"S200221"	"Response_Selection"	"LEFT"	"LEFT"	291.848200000004	1500.000003	n/a	n/a	n/a	n/a	n/a	n/a	n/a	"2020-02-21 10:55:39.798949"	"2020-02-21 10:55:40.297599"	9	2.98723041666667
"S200221"	"Response_Selection"	"LEFT"	"LEFT"	358.4338	650.0000013	n/a	n/a	n/a	n/a	n/a	n/a	n/a	"2020-02-21 10:55:40.956274"	"2020-02-21 10:55:41.523081"	10	2.98723041666667
"S200221"	"Response_Selection"	"RIGHT"	"RIGHT"	300.650799999971	650.0000013	n/a	n/a	n/a	n/a	n/a	n/a	n/a	"2020-02-21 10:55:42.181731"	"2020-02-21 10:55:42.690641"	11	2.98723041666667
"S200221"	"Response_Selection"	"LEFT"	"LEFT"	329.355200000009	1350.0000027	n/a	n/a	n/a	n/a	n/a	n/a	n/a	"2020-02-21 10:55:44.048854"	"2020-02-21 10:55:44.585883"	12	2.98723041666667
"S200221"	"Response_Selection"	"RIGHT"	"RIGHT"	271.163599999966	1216.6666691	n/a	n/a	n/a	n/a	n/a	n/a	n/a	"2020-02-21 10:55:45.811776"	"2020-02-21 10:55:46.289485"	13	2.98723041666667
"S200221"	"Response_Selection"	"RIGHT"	"RIGHT"	336.378699999955	1400.0000028	n/a	n/a	n/a	n/a	n/a	n/a	n/a	"2020-02-21 10:55:47.697731"	"2020-02-21 10:55:48.243292"	14	2.98723041666667
"S200221"	"Response_Selection"	"LEFT"	"LEFT"	318.943900000022	783.3333349	n/a	n/a	n/a	n/a	n/a	n/a	n/a	"2020-02-21 10:55:49.035443"	"2020-02-21 10:55:49.563064"	15	2.98723041666667
"S200221"	"Response_Selection"	"RIGHT"	"RIGHT"	269.311400000049	633.3333346	n/a	n/a	n/a	n/a	n/a	n/a	n/a	"2020-02-21 10:55:50.204930"	"2020-02-21 10:55:50.682068"	16	2.98723041666667
"S200221"	"Response_Selection"	"LEFT"	"LEFT"	304.800200000045	583.3333345	n/a	n/a	n/a	n/a	n/a	n/a	n/a	"2020-02-21 10:55:51.273463"	"2020-02-21 10:55:51.787122"	17	2.98723041666667
"S200221"	"Response_Selection"	"LEFT"	"LEFT"	330.893000000003	1300.0000026	n/a	n/a	n/a	n/a	n/a	n/a	n/a	"2020-02-21 10:55:53.095862"	"2020-02-21 10:55:53.633890"	18	2.98723041666667
"S200221"	"Response_Selection"	"RIGHT"	"RIGHT"	248.005500000033	1200.0000024	n/a	n/a	n/a	n/a	n/a	n/a	n/a	"2020-02-21 10:55:54.842897"	"2020-02-21 10:55:55.298100"	19	2.98723041666667
"S200221"	"Response_Selection"	"RIGHT"	"RIGHT"	317.545899999971	1450.0000029	n/a	n/a	n/a	n/a	n/a	n/a	n/a	"2020-02-21 10:55:56.756922"	"2020-02-21 10:55:57.281767"	20	2.98723041666667
"S200221"	"Response_Selection"	"LEFT"	"LEFT"	339.465200000006	1316.6666693	n/a	n/a	n/a	n/a	n/a	n/a	n/a	"2020-02-21 10:55:58.607007"	"2020-02-21 10:55:59.153831"	21	2.98723041666667
"S200221"	"Response_Selection"	"LEFT"	"LEFT"	352.783399999964	983.3333353	n/a	n/a	n/a	n/a	n/a	n/a	n/a	"2020-02-21 10:56:00.146115"	"2020-02-21 10:56:00.706167"	22	2.98723041666667
"S200221"	"Response_Selection"	"LEFT"	"LEFT"	288.77829999999	1166.666669	n/a	n/a	n/a	n/a	n/a	n/a	n/a	"2020-02-21 10:56:01.881199"	"2020-02-21 10:56:02.377559"	23	2.98723041666667
"S200221"	"Response_Selection"	"LEFT"	"LEFT"	396.603700000014	500.000001	n/a	n/a	n/a	n/a	n/a	n/a	n/a	"2020-02-21 10:56:02.885850"	"2020-02-21 10:56:03.490960"	24	2.98723041666667
"S200221"	"Response_Selection"	"LEFT"	"LEFT"	308.920199999989	1450.0000029	n/a	n/a	n/a	n/a	n/a	n/a	n/a	"2020-02-21 10:56:04.949278"	"2020-02-21 10:56:05.465936"	25	2.98723041666667
"S200221"	"Response_Selection"	"RIGHT"	"RIGHT"	319.759999999974	600.0000012	n/a	n/a	n/a	n/a	n/a	n/a	n/a	"2020-02-21 10:56:06.074953"	"2020-02-21 10:56:06.601964"	26	2.98723041666667
"S200221"	"Response_Selection"	"RIGHT"	"RIGHT"	357.440300000007	1250.0000025	n/a	n/a	n/a	n/a	n/a	n/a	n/a	"2020-02-21 10:56:07.861005"	"2020-02-21 10:56:08.425739"	27	2.98723041666667
"S200221"	"Response_Selection"	"RIGHT"	"RIGHT"	337.173200000052	966.6666686	n/a	n/a	n/a	n/a	n/a	n/a	n/a	"2020-02-21 10:56:09.401309"	"2020-02-21 10:56:09.946219"	28	2.98723041666667
"S200221"	"Response_Selection"	"LEFT"	"LEFT"	361.891899999989	750.0000015	n/a	n/a	n/a	n/a	n/a	n/a	n/a	"2020-02-21 10:56:10.704812"	"2020-02-21 10:56:11.274593"	29	2.98723041666667
"S200221"	"Response_Selection"	"LEFT"	"LEFT"	294.563499999981	1416.6666695	n/a	n/a	n/a	n/a	n/a	n/a	n/a	"2020-02-21 10:56:12.699595"	"2020-02-21 10:56:13.201929"	30	2.98723041666667
"S200221"	"Response_Selection"	"LEFT"	"LEFT"	320.48709999998	550.0000011	n/a	n/a	n/a	n/a	n/a	n/a	n/a	"2020-02-21 10:56:13.762251"	"2020-02-21 10:56:14.289731"	31	2.98723041666667
"S200221"	"Response_Selection"	"RIGHT"	"RIGHT"	311.768900000004	1416.6666695	n/a	n/a	n/a	n/a	n/a	n/a	n/a	"2020-02-21 10:56:15.715056"	"2020-02-21 10:56:16.233811"	32	2.98723041666667
"S200221"	"Response_Selection"	"RIGHT"	"RIGHT"	304.69869999996	583.3333345	n/a	n/a	n/a	n/a	n/a	n/a	n/a	"2020-02-21 10:56:16.825311"	"2020-02-21 10:56:17.338053"	33	2.98723041666667
"S200221"	"Response_Selection"	"LEFT"	"LEFT"	282.575800000018	933.3333352	n/a	n/a	n/a	n/a	n/a	n/a	n/a	"2020-02-21 10:56:18.279571"	"2020-02-21 10:56:18.769540"	34	2.98723041666667
"S200221"	"Response_Selection"	"RIGHT"	"RIGHT"	307.968599999981	1316.6666693	n/a	n/a	n/a	n/a	n/a	n/a	n/a	"2020-02-21 10:56:20.094288"	"2020-02-21 10:56:20.609768"	35	2.98723041666667
"S200221"	"Response_Selection"	"RIGHT"	"RIGHT"	337.948900000015	550.0000011	n/a	n/a	n/a	n/a	n/a	n/a	n/a	"2020-02-21 10:56:21.168900"	"2020-02-21 10:56:21.714380"	36	2.98723041666667
"S200221"	"Response_Selection"	"RIGHT"	"RIGHT"	338.34330000002	933.3333352	n/a	n/a	n/a	n/a	n/a	n/a	n/a	"2020-02-21 10:56:22.656173"	"2020-02-21 10:56:23.202241"	37	2.98723041666667
"S200221"	"Response_Selection"	"LEFT"	"LEFT"	298.976899999957	916.6666685	n/a	n/a	n/a	n/a	n/a	n/a	n/a	"2020-02-21 10:56:24.127561"	"2020-02-21 10:56:24.635211"	38	2.98723041666667
"S200221"	"Response_Selection"	"RIGHT"	"RIGHT"	280.080200000043	1133.3333356	n/a	n/a	n/a	n/a	n/a	n/a	n/a	"2020-02-21 10:56:25.779162"	"2020-02-21 10:56:26.267099"	39	2.98723041666667
"S200221"	"Response_Selection"	"LEFT"	"LEFT"	366.621200000054	600.0000012	n/a	n/a	n/a	n/a	n/a	n/a	n/a	"2020-02-21 10:56:26.875447"	"2020-02-21 10:56:27.450800"	40	2.98723041666667
"S200221"	"Response_Selection"	"RIGHT"	"RIGHT"	273.774100000026	733.3333348	n/a	n/a	n/a	n/a	n/a	n/a	n/a	"2020-02-21 10:56:28.192876"	"2020-02-21 10:56:28.673589"	41	2.98723041666667
"S200221"	"Response_Selection"	"RIGHT"	"RIGHT"	309.592400000042	1066.6666688	n/a	n/a	n/a	n/a	n/a	n/a	n/a	"2020-02-21 10:56:29.749181"	"2020-02-21 10:56:30.266986"	42	2.98723041666667
"S200221"	"Response_Selection"	"LEFT"	"LEFT"	286.483499999974	1216.6666691	n/a	n/a	n/a	n/a	n/a	n/a	n/a	"2020-02-21 10:56:31.492403"	"2020-02-21 10:56:31.987068"	43	2.98723041666667
"S200221"	"Response_Selection"	"LEFT"	"LEFT"	369.177499999978	533.3333344	n/a	n/a	n/a	n/a	n/a	n/a	n/a	"2020-02-21 10:56:32.529055"	"2020-02-21 10:56:33.107212"	44	2.98723041666667
"S200221"	"Response_Selection"	"LEFT"	"LEFT"	323.332300000004	883.3333351	n/a	n/a	n/a	n/a	n/a	n/a	n/a	"2020-02-21 10:56:33.998896"	"2020-02-21 10:56:34.531108"	45	2.98723041666667
"S200221"	"Response_Selection"	"RIGHT"	"RIGHT"	246.1007	1366.6666694	n/a	n/a	n/a	n/a	n/a	n/a	n/a	"2020-02-21 10:56:35.908287"	"2020-02-21 10:56:36.363217"	46	2.98723041666667
"S200221"	"Response_Selection"	"LEFT"	"LEFT"	308.985699999994	633.3333346	n/a	n/a	n/a	n/a	n/a	n/a	n/a	"2020-02-21 10:56:37.005848"	"2020-02-21 10:56:37.522444"	47	2.98723041666667
"S200221"	"Response_Selection"	"RIGHT"	"RIGHT"	352.579200000037	1166.666669	n/a	n/a	n/a	n/a	n/a	n/a	n/a	"2020-02-21 10:56:38.697441"	"2020-02-21 10:56:39.257614"	48	2.98723041666667
"S200221"	"Response_Selection"	"RIGHT"	"RIGHT"	472.462800000017	800.0000016	n/a	n/a	n/a	n/a	n/a	n/a	n/a	"2020-02-21 10:56:40.066300"	"2020-02-21 10:56:40.747425"	49	2.98723041666667
"S200221"	"Response_Selection"	"LEFT"	"LEFT"	291.587199999981	1066.6666688	n/a	n/a	n/a	n/a	n/a	n/a	n/a	"2020-02-21 10:56:41.823236"	"2020-02-21 10:56:42.321779"	50	2.98723041666667
"S200221"	"Response_Selection"	"RIGHT"	"RIGHT"	289.173399999981	983.3333353	n/a	n/a	n/a	n/a	n/a	n/a	n/a	"2020-02-21 10:56:43.313137"	"2020-02-21 10:56:43.809847"	51	2.98723041666667
"S200221"	"Response_Selection"	"LEFT"	"LEFT"	413.740899999993	1466.6666696	n/a	n/a	n/a	n/a	n/a	n/a	n/a	"2020-02-21 10:56:45.285113"	"2020-02-21 10:56:45.906999"	52	2.98723041666667
"S200221"	"Response_Selection"	"RIGHT"	"RIGHT"	269.425899999987	1033.3333354	n/a	n/a	n/a	n/a	n/a	n/a	n/a	"2020-02-21 10:56:46.948500"	"2020-02-21 10:56:47.425617"	53	2.98723041666667
"S200221"	"Response_Selection"	"LEFT"	"LEFT"	288.473500000009	800.0000016	n/a	n/a	n/a	n/a	n/a	n/a	n/a	"2020-02-21 10:56:48.234070"	"2020-02-21 10:56:48.729758"	54	2.98723041666667
"S200221"	"Response_Selection"	"LEFT"	"LEFT"	310.068399999977	1250.0000025	n/a	n/a	n/a	n/a	n/a	n/a	n/a	"2020-02-21 10:56:49.988785"	"2020-02-21 10:56:50.507025"	55	2.98723041666667
"S200221"	"Response_Selection"	"LEFT"	"LEFT"	298.750799999993	700.0000014	n/a	n/a	n/a	n/a	n/a	n/a	n/a	"2020-02-21 10:56:51.215677"	"2020-02-21 10:56:51.722584"	56	2.98723041666667
"S200221"	"Response_Selection"	"LEFT"	"LEFT"	282.194000000004	966.6666686	n/a	n/a	n/a	n/a	n/a	n/a	n/a	"2020-02-21 10:56:52.697548"	"2020-02-21 10:56:53.188240"	57	2.98723041666667
"S200221"	"Response_Selection"	"RIGHT"	"RIGHT"	304.365999999959	533.3333344	n/a	n/a	n/a	n/a	n/a	n/a	n/a	"2020-02-21 10:56:53.730009"	"2020-02-21 10:56:54.243189"	58	2.98723041666667
"S200221"	"Response_Selection"	"LEFT"	"LEFT"	314.178500000025	1116.6666689	n/a	n/a	n/a	n/a	n/a	n/a	n/a	"2020-02-21 10:56:55.368283"	"2020-02-21 10:56:55.890446"	59	2.98723041666667
"S200221"	"Response_Selection"	"LEFT"	"LEFT"	332.20799999998	1266.6666692	n/a	n/a	n/a	n/a	n/a	n/a	n/a	"2020-02-21 10:56:57.166326"	"2020-02-21 10:56:57.705978"	60	2.98723041666667
"S200221"	"Response_Selection"	"LEFT"	"LEFT"	268.432899999993	1083.3333355	n/a	n/a	n/a	n/a	n/a	n/a	n/a	"2020-02-21 10:56:58.797947"	"2020-02-21 10:56:59.274280"	61	2.98723041666667
"S200221"	"Response_Selection"	"LEFT"	"LEFT"	302.813200000003	1016.6666687	n/a	n/a	n/a	n/a	n/a	n/a	n/a	"2020-02-21 10:57:00.299935"	"2020-02-21 10:57:00.811185"	62	2.98723041666667
"S200221"	"Response_Selection"	"RIGHT"	"RIGHT"	330.068600000004	1116.6666689	n/a	n/a	n/a	n/a	n/a	n/a	n/a	"2020-02-21 10:57:01.936773"	"2020-02-21 10:57:02.474519"	63	2.98723041666667
"S200221"	"Response_Selection"	"LEFT"	"LEFT"	291.579599999977	683.3333347	n/a	n/a	n/a	n/a	n/a	n/a	n/a	"2020-02-21 10:57:03.166847"	"2020-02-21 10:57:03.665530"	64	2.98723041666667
"S200221"	"Response_Selection"	"RIGHT"	"RIGHT"	331.646899999953	916.6666685	n/a	n/a	n/a	n/a	n/a	n/a	n/a	"2020-02-21 10:57:04.590557"	"2020-02-21 10:57:05.131224"	65	2.98723041666667
"S200221"	"Response_Selection"	"RIGHT"	"RIGHT"	371.865000000014	866.6666684	n/a	n/a	n/a	n/a	n/a	n/a	n/a	"2020-02-21 10:57:06.006186"	"2020-02-21 10:57:06.587380"	66	2.98723041666667
"S200221"	"Response_Selection"	"RIGHT"	"RIGHT"	314.479199999994	700.0000014	n/a	n/a	n/a	n/a	n/a	n/a	n/a	"2020-02-21 10:57:07.296158"	"2020-02-21 10:57:07.818440"	67	2.98723041666667
"S200221"	"Response_Selection"	"RIGHT"	"RIGHT"	300.441499999977	883.3333351	n/a	n/a	n/a	n/a	n/a	n/a	n/a	"2020-02-21 10:57:08.709870"	"2020-02-21 10:57:09.219103"	68	2.98723041666667
"S200221"	"Response_Selection"	"RIGHT"	"RIGHT"	306.757600000026	1500.000003	n/a	n/a	n/a	n/a	n/a	n/a	n/a	"2020-02-21 10:57:10.727325"	"2020-02-21 10:57:11.242764"	69	2.98723041666667
"S200221"	"Response_Selection"	"LEFT"	"LEFT"	308.405900000025	866.6666684	n/a	n/a	n/a	n/a	n/a	n/a	n/a	"2020-02-21 10:57:12.118145"	"2020-02-21 10:57:12.633925"	70	2.98723041666667
"S200221"	"Response_Selection"	"RIGHT"	"RIGHT"	267.134300000009	1300.0000026	n/a	n/a	n/a	n/a	n/a	n/a	n/a	"2020-02-21 10:57:13.943507"	"2020-02-21 10:57:14.418974"	71	2.98723041666667
"S200221"	"Response_Selection"	"RIGHT"	"RIGHT"	344.792499999983	750.0000015	n/a	n/a	n/a	n/a	n/a	n/a	n/a	"2020-02-21 10:57:15.177552"	"2020-02-21 10:57:15.730242"	72	2.98723041666667
"S200221"	"Response_Selection"	"LEFT"	"LEFT"	319.695800000034	1400.0000028	n/a	n/a	n/a	n/a	n/a	n/a	n/a	"2020-02-21 10:57:17.139185"	"2020-02-21 10:57:17.665880"	73	2.98723041666667
"S200221"	"Response_Selection"	"RIGHT"	"RIGHT"	332.335399999977	1083.3333355	n/a	n/a	n/a	n/a	n/a	n/a	n/a	"2020-02-21 10:57:18.757635"	"2020-02-21 10:57:19.298106"	74	2.98723041666667
"S200221"	"Response_Selection"	"LEFT"	"LEFT"	306.196999999997	733.3333348	n/a	n/a	n/a	n/a	n/a	n/a	n/a	"2020-02-21 10:57:20.040135"	"2020-02-21 10:57:20.553740"	75	2.98723041666667
"S200221"	"Response_Selection"	"LEFT"	"LEFT"	335.22210000001	1033.3333354	n/a	n/a	n/a	n/a	n/a	n/a	n/a	"2020-02-21 10:57:21.595902"	"2020-02-21 10:57:22.139162"	76	2.98723041666667
"S200221"	"Response_Selection"	"RIGHT"	"RIGHT"	336.345999999992	1350.0000027	n/a	n/a	n/a	n/a	n/a	n/a	n/a	"2020-02-21 10:57:23.498532"	"2020-02-21 10:57:24.043077"	77	2.98723041666667
"S200221"	"Response_Selection"	"RIGHT"	"RIGHT"	349.476600000003	1016.6666687	n/a	n/a	n/a	n/a	n/a	n/a	n/a	"2020-02-21 10:57:25.068846"	"2020-02-21 10:57:25.625737"	78	2.98723041666667
"S200221"	"Response_Selection"	"RIGHT"	"RIGHT"	349.288300000012	1466.6666696	n/a	n/a	n/a	n/a	n/a	n/a	n/a	"2020-02-21 10:57:27.100898"	"2020-02-21 10:57:27.657805"	79	2.98723041666667
"S200221"	"Response_Selection"	"LEFT"	"LEFT"	296.021699999983	1200.0000024	n/a	n/a	n/a	n/a	n/a	n/a	n/a	"2020-02-21 10:57:28.865957"	"2020-02-21 10:57:29.369945"	80	2.98723041666667
