"Participant"	"Task"	"Stimulus_Side"	"Response"	"RT"	"ITI"	"Previous_Response"	"Previous_RT"	"Stop_Signal"	"Stop_Signal_RT"	"Conflict"	"Cue_Response"	"Cue_Response_RT"	"Trial_Onset"	"Trial_End"	"Trial_Order"	"Duration"
"S201105"	"Conflict_Resolution"	"LEFT"	"LEFT"	827.555599999982	633.3333346	n/a	n/a	n/a	n/a	"False"	n/a	n/a	"2020-11-05 14:09:56.990857"	"2020-11-05 14:09:58.026554"	1	6.7276395
"S201105"	"Conflict_Resolution"	"LEFT"	"LEFT"	1196.39519999998	616.6666679	n/a	n/a	n/a	n/a	"True"	n/a	n/a	"2020-11-05 14:09:58.662025"	"2020-11-05 14:10:00.071242"	2	6.7276395
"S201105"	"Conflict_Resolution"	"RIGHT"	"RIGHT"	806.008499999962	683.3333347	n/a	n/a	n/a	n/a	"True"	n/a	n/a	"2020-11-05 14:10:00.772572"	"2020-11-05 14:10:01.787261"	3	6.7276395
"S201105"	"Conflict_Resolution"	"LEFT"	"LEFT"	532.078399999932	1200.0000024	n/a	n/a	n/a	n/a	"False"	n/a	n/a	"2020-11-05 14:10:03.007036"	"2020-11-05 14:10:03.747106"	4	6.7276395
"S201105"	"Conflict_Resolution"	"RIGHT"	"RIGHT"	451.462800000058	1416.6666695	n/a	n/a	n/a	n/a	"False"	n/a	n/a	"2020-11-05 14:10:05.183319"	"2020-11-05 14:10:05.843130"	5	6.7276395
"S201105"	"Conflict_Resolution"	"RIGHT"	"RIGHT"	676.855799999998	1216.6666691	n/a	n/a	n/a	n/a	"True"	n/a	n/a	"2020-11-05 14:10:07.078647"	"2020-11-05 14:10:07.963558"	6	6.7276395
"S201105"	"Conflict_Resolution"	"RIGHT"	"RIGHT"	449.255199999925	1100.0000022	n/a	n/a	n/a	n/a	"False"	n/a	n/a	"2020-11-05 14:10:09.081566"	"2020-11-05 14:10:09.739081"	7	6.7276395
"S201105"	"Conflict_Resolution"	"LEFT"	"LEFT"	541.199099999972	1150.0000023	n/a	n/a	n/a	n/a	"True"	n/a	n/a	"2020-11-05 14:10:10.909283"	"2020-11-05 14:10:11.658541"	8	6.7276395
"S201105"	"Conflict_Resolution"	"LEFT"	"LEFT"	586.583500000074	900.0000018	n/a	n/a	n/a	n/a	"True"	n/a	n/a	"2020-11-05 14:10:12.575924"	"2020-11-05 14:10:13.370373"	9	6.7276395
"S201105"	"Conflict_Resolution"	"RIGHT"	"RIGHT"	614.449400000012	533.3333344	n/a	n/a	n/a	n/a	"True"	n/a	n/a	"2020-11-05 14:10:13.924773"	"2020-11-05 14:10:14.746596"	10	6.7276395
"S201105"	"Conflict_Resolution"	"RIGHT"	"RIGHT"	680.969300000015	1283.3333359	n/a	n/a	n/a	n/a	"True"	n/a	n/a	"2020-11-05 14:10:16.049793"	"2020-11-05 14:10:16.938502"	11	6.7276395
"S201105"	"Conflict_Resolution"	"RIGHT"	"RIGHT"	570.933500000024	583.3333345	n/a	n/a	n/a	n/a	"False"	n/a	n/a	"2020-11-05 14:10:17.543717"	"2020-11-05 14:10:18.323190"	12	6.7276395
"S201105"	"Conflict_Resolution"	"LEFT"	"LEFT"	499.781200000029	950.0000019	n/a	n/a	n/a	n/a	"True"	n/a	n/a	"2020-11-05 14:10:19.294679"	"2020-11-05 14:10:20.002910"	13	6.7276395
"S201105"	"Conflict_Resolution"	"LEFT"	"RIGHT"	922.208099999921	1066.6666688	n/a	n/a	n/a	n/a	"True"	n/a	n/a	"2020-11-05 14:10:21.088999"	"2020-11-05 14:10:22.218761"	14	6.7276395
"S201105"	"Conflict_Resolution"	"LEFT"	"LEFT"	516.450100000043	1366.6666694	n/a	n/a	n/a	n/a	"False"	n/a	n/a	"2020-11-05 14:10:23.606056"	"2020-11-05 14:10:24.330944"	15	6.7276395
"S201105"	"Conflict_Resolution"	"LEFT"	"LEFT"	421.185799999989	533.3333344	n/a	n/a	n/a	n/a	"False"	n/a	n/a	"2020-11-05 14:10:24.886086"	"2020-11-05 14:10:25.514931"	16	6.7276395
"S201105"	"Conflict_Resolution"	"RIGHT"	"RIGHT"	434.33779999998	1433.3333362	n/a	n/a	n/a	n/a	"False"	n/a	n/a	"2020-11-05 14:10:26.968306"	"2020-11-05 14:10:27.610714"	17	6.7276395
"S201105"	"Conflict_Resolution"	"RIGHT"	"RIGHT"	406.845900000008	783.3333349	n/a	n/a	n/a	n/a	"False"	n/a	n/a	"2020-11-05 14:10:28.411799"	"2020-11-05 14:10:29.027278"	18	6.7276395
"S201105"	"Conflict_Resolution"	"RIGHT"	"RIGHT"	604.851000000053	1366.6666694	n/a	n/a	n/a	n/a	"True"	n/a	n/a	"2020-11-05 14:10:30.413434"	"2020-11-05 14:10:31.227404"	19	6.7276395
"S201105"	"Conflict_Resolution"	"RIGHT"	"LEFT"	628.837800000042	1183.3333357	n/a	n/a	n/a	n/a	"True"	n/a	n/a	"2020-11-05 14:10:32.430270"	"2020-11-05 14:10:33.268036"	20	6.7276395
"S201105"	"Conflict_Resolution"	"LEFT"	"LEFT"	701.325199999928	1366.6666694	n/a	n/a	n/a	n/a	"True"	n/a	n/a	"2020-11-05 14:10:34.654012"	"2020-11-05 14:10:35.564694"	21	6.7276395
"S201105"	"Conflict_Resolution"	"RIGHT"	"RIGHT"	636.678200000006	550.0000011	n/a	n/a	n/a	n/a	"True"	n/a	n/a	"2020-11-05 14:10:36.134492"	"2020-11-05 14:10:36.978741"	22	6.7276395
"S201105"	"Conflict_Resolution"	"LEFT"	"LEFT"	573.629600000004	766.6666682	n/a	n/a	n/a	n/a	"True"	n/a	n/a	"2020-11-05 14:10:37.764783"	"2020-11-05 14:10:38.545642"	23	6.7276395
"S201105"	"Conflict_Resolution"	"RIGHT"	"RIGHT"	446.573100000023	1366.6666694	n/a	n/a	n/a	n/a	"False"	n/a	n/a	"2020-11-05 14:10:39.932653"	"2020-11-05 14:10:40.586568"	24	6.7276395
"S201105"	"Conflict_Resolution"	"LEFT"	"LEFT"	557.945200000063	950.0000019	n/a	n/a	n/a	n/a	"False"	n/a	n/a	"2020-11-05 14:10:41.557402"	"2020-11-05 14:10:42.323348"	25	6.7276395
"S201105"	"Conflict_Resolution"	"RIGHT"	"RIGHT"	391.709399999968	1283.3333359	n/a	n/a	n/a	n/a	"False"	n/a	n/a	"2020-11-05 14:10:43.627193"	"2020-11-05 14:10:44.227596"	26	6.7276395
"S201105"	"Conflict_Resolution"	"RIGHT"	"RIGHT"	578.818700000056	1466.6666696	n/a	n/a	n/a	n/a	"True"	n/a	n/a	"2020-11-05 14:10:45.712089"	"2020-11-05 14:10:46.498313"	27	6.7276395
"S201105"	"Conflict_Resolution"	"LEFT"	"LEFT"	443.01459999997	1216.6666691	n/a	n/a	n/a	n/a	"False"	n/a	n/a	"2020-11-05 14:10:47.735900"	"2020-11-05 14:10:48.386550"	28	6.7276395
"S201105"	"Conflict_Resolution"	"RIGHT"	"RIGHT"	484.928199999899	1000.000002	n/a	n/a	n/a	n/a	"True"	n/a	n/a	"2020-11-05 14:10:49.405606"	"2020-11-05 14:10:50.099296"	29	6.7276395
"S201105"	"Conflict_Resolution"	"RIGHT"	"RIGHT"	490.255999999931	1233.3333358	n/a	n/a	n/a	n/a	"False"	n/a	n/a	"2020-11-05 14:10:51.352412"	"2020-11-05 14:10:52.050459"	30	6.7276395
"S201105"	"Conflict_Resolution"	"LEFT"	"LEFT"	436.966900000016	1016.6666687	n/a	n/a	n/a	n/a	"False"	n/a	n/a	"2020-11-05 14:10:53.085715"	"2020-11-05 14:10:53.731233"	31	6.7276395
"S201105"	"Conflict_Resolution"	"LEFT"	"LEFT"	564.369700000043	1000.000002	n/a	n/a	n/a	n/a	"True"	n/a	n/a	"2020-11-05 14:10:54.749758"	"2020-11-05 14:10:55.522634"	32	6.7276395
"S201105"	"Conflict_Resolution"	"RIGHT"	"RIGHT"	675.046199999997	800.0000016	n/a	n/a	n/a	n/a	"True"	n/a	n/a	"2020-11-05 14:10:56.343958"	"2020-11-05 14:10:57.226583"	33	6.7276395
"S201105"	"Conflict_Resolution"	"RIGHT"	"RIGHT"	577.136600000017	500.000001	n/a	n/a	n/a	n/a	"True"	n/a	n/a	"2020-11-05 14:10:57.745245"	"2020-11-05 14:10:58.531119"	34	6.7276395
"S201105"	"Conflict_Resolution"	"RIGHT"	"RIGHT"	455.123200000003	1333.333336	n/a	n/a	n/a	n/a	"False"	n/a	n/a	"2020-11-05 14:10:59.883595"	"2020-11-05 14:11:00.550672"	35	6.7276395
"S201105"	"Conflict_Resolution"	"RIGHT"	"RIGHT"	789.953999999966	833.333335	n/a	n/a	n/a	n/a	"True"	n/a	n/a	"2020-11-05 14:11:01.404654"	"2020-11-05 14:11:02.403983"	36	6.7276395
"S201105"	"Conflict_Resolution"	"LEFT"	"LEFT"	502.114799999958	733.3333348	n/a	n/a	n/a	n/a	"True"	n/a	n/a	"2020-11-05 14:11:03.156542"	"2020-11-05 14:11:03.868066"	37	6.7276395
"S201105"	"Conflict_Resolution"	"LEFT"	"LEFT"	543.384299999957	683.3333347	n/a	n/a	n/a	n/a	"False"	n/a	n/a	"2020-11-05 14:11:04.571331"	"2020-11-05 14:11:05.324195"	38	6.7276395
"S201105"	"Conflict_Resolution"	"LEFT"	"LEFT"	785.950899999989	816.6666683	n/a	n/a	n/a	n/a	"True"	n/a	n/a	"2020-11-05 14:11:06.160658"	"2020-11-05 14:11:07.155061"	39	6.7276395
"S201105"	"Conflict_Resolution"	"RIGHT"	"RIGHT"	484.646500000053	1033.3333354	n/a	n/a	n/a	n/a	"False"	n/a	n/a	"2020-11-05 14:11:08.205651"	"2020-11-05 14:11:08.898396"	40	6.7276395
"S201105"	"Conflict_Resolution"	"LEFT"	"LEFT"	320.201300000008	1116.6666689	n/a	n/a	n/a	n/a	"True"	n/a	n/a	"2020-11-05 14:11:10.034351"	"2020-11-05 14:11:10.563020"	41	6.7276395
"S201105"	"Conflict_Resolution"	"LEFT"	"LEFT"	559.202900000059	733.3333348	n/a	n/a	n/a	n/a	"False"	n/a	n/a	"2020-11-05 14:11:11.315781"	"2020-11-05 14:11:12.082841"	42	6.7276395
"S201105"	"Conflict_Resolution"	"LEFT"	"LEFT"	355.169699999919	666.666668	n/a	n/a	n/a	n/a	"False"	n/a	n/a	"2020-11-05 14:11:12.767878"	"2020-11-05 14:11:13.330462"	43	6.7276395
"S201105"	"Conflict_Resolution"	"RIGHT"	"RIGHT"	547.906499999954	1266.6666692	n/a	n/a	n/a	n/a	"True"	n/a	n/a	"2020-11-05 14:11:14.614985"	"2020-11-05 14:11:15.370969"	44	6.7276395
"S201105"	"Conflict_Resolution"	"LEFT"	"LEFT"	524.814500000048	566.6666678	n/a	n/a	n/a	n/a	"False"	n/a	n/a	"2020-11-05 14:11:15.958216"	"2020-11-05 14:11:16.690657"	45	6.7276395
"S201105"	"Conflict_Resolution"	"RIGHT"	"RIGHT"	886.861500000009	1150.0000023	n/a	n/a	n/a	n/a	"False"	n/a	n/a	"2020-11-05 14:11:17.859959"	"2020-11-05 14:11:18.955498"	46	6.7276395
"S201105"	"Conflict_Resolution"	"LEFT"	"LEFT"	522.184500000094	1416.6666695	n/a	n/a	n/a	n/a	"True"	n/a	n/a	"2020-11-05 14:11:20.392222"	"2020-11-05 14:11:21.124757"	47	6.7276395
"S201105"	"Conflict_Resolution"	"RIGHT"	"RIGHT"	613.901499999997	1083.3333355	n/a	n/a	n/a	n/a	"True"	n/a	n/a	"2020-11-05 14:11:22.228584"	"2020-11-05 14:11:23.050344"	48	6.7276395
"S201105"	"Conflict_Resolution"	"LEFT"	"LEFT"	739.974299999972	1400.0000028	n/a	n/a	n/a	n/a	"False"	n/a	n/a	"2020-11-05 14:11:24.470979"	"2020-11-05 14:11:25.420048"	49	6.7276395
"S201105"	"Conflict_Resolution"	"RIGHT"	"RIGHT"	1381.76739999994	550.0000011	n/a	n/a	n/a	n/a	"False"	n/a	n/a	"2020-11-05 14:11:25.989300"	"2020-11-05 14:11:27.579932"	50	6.7276395
"S201105"	"Conflict_Resolution"	"RIGHT"	"RIGHT"	695.06720000004	700.0000014	n/a	n/a	n/a	n/a	"True"	n/a	n/a	"2020-11-05 14:11:28.299945"	"2020-11-05 14:11:29.202458"	51	6.7276395
"S201105"	"Conflict_Resolution"	"RIGHT"	"RIGHT"	456.117399999926	900.0000018	n/a	n/a	n/a	n/a	"False"	n/a	n/a	"2020-11-05 14:11:30.123044"	"2020-11-05 14:11:30.786408"	52	6.7276395
"S201105"	"Conflict_Resolution"	"RIGHT"	"RIGHT"	591.876600000091	1333.333336	n/a	n/a	n/a	n/a	"True"	n/a	n/a	"2020-11-05 14:11:32.138874"	"2020-11-05 14:11:32.940866"	53	6.7276395
"S201105"	"Conflict_Resolution"	"LEFT"	"LEFT"	1064.44329999999	633.3333346	n/a	n/a	n/a	n/a	"True"	n/a	n/a	"2020-11-05 14:11:33.594089"	"2020-11-05 14:11:34.869878"	54	6.7276395
"S201105"	"Conflict_Resolution"	"LEFT"	"LEFT"	409.606499999995	1000.000002	n/a	n/a	n/a	n/a	"False"	n/a	n/a	"2020-11-05 14:11:35.889566"	"2020-11-05 14:11:36.506947"	55	6.7276395
"S201105"	"Conflict_Resolution"	"LEFT"	"LEFT"	552.519599999982	916.6666685	n/a	n/a	n/a	n/a	"True"	n/a	n/a	"2020-11-05 14:11:37.442015"	"2020-11-05 14:11:38.202605"	56	6.7276395
"S201105"	"Conflict_Resolution"	"LEFT"	"LEFT"	376.323699999944	1316.6666693	n/a	n/a	n/a	n/a	"False"	n/a	n/a	"2020-11-05 14:11:39.538785"	"2020-11-05 14:11:40.124278"	57	6.7276395
"S201105"	"Conflict_Resolution"	"LEFT"	"LEFT"	441.762499999982	1250.0000025	n/a	n/a	n/a	n/a	"False"	n/a	n/a	"2020-11-05 14:11:41.393231"	"2020-11-05 14:11:42.042366"	58	6.7276395
"S201105"	"Conflict_Resolution"	"RIGHT"	"LEFT"	298.263600000041	600.0000012	n/a	n/a	n/a	n/a	"True"	n/a	n/a	"2020-11-05 14:11:42.664940"	"2020-11-05 14:11:43.171011"	59	6.7276395
"S201105"	"Conflict_Resolution"	"RIGHT"	"RIGHT"	537.143000000015	1033.3333354	n/a	n/a	n/a	n/a	"True"	n/a	n/a	"2020-11-05 14:11:44.225269"	"2020-11-05 14:11:44.975308"	60	6.7276395
"S201105"	"Conflict_Resolution"	"LEFT"	"LEFT"	400.511800000004	966.6666686	n/a	n/a	n/a	n/a	"False"	n/a	n/a	"2020-11-05 14:11:45.962176"	"2020-11-05 14:11:46.570807"	61	6.7276395
"S201105"	"Conflict_Resolution"	"RIGHT"	"RIGHT"	447.56869999992	1133.3333356	n/a	n/a	n/a	n/a	"False"	n/a	n/a	"2020-11-05 14:11:47.723452"	"2020-11-05 14:11:48.378681"	62	6.7276395
"S201105"	"Conflict_Resolution"	"RIGHT"	"RIGHT"	390.572499999962	1383.3333361	n/a	n/a	n/a	n/a	"False"	n/a	n/a	"2020-11-05 14:11:49.780112"	"2020-11-05 14:11:50.379041"	63	6.7276395
"S201105"	"Conflict_Resolution"	"RIGHT"	"RIGHT"	510.508999999956	1383.3333361	n/a	n/a	n/a	n/a	"True"	n/a	n/a	"2020-11-05 14:11:51.780555"	"2020-11-05 14:11:52.497831"	64	6.7276395
"S201105"	"Conflict_Resolution"	"RIGHT"	"RIGHT"	597.011199999997	633.3333346	n/a	n/a	n/a	n/a	"False"	n/a	n/a	"2020-11-05 14:11:53.150284"	"2020-11-05 14:11:53.954399"	65	6.7276395
"S201105"	"Conflict_Resolution"	"LEFT"	"LEFT"	538.641999999982	1266.6666692	n/a	n/a	n/a	n/a	"True"	n/a	n/a	"2020-11-05 14:11:55.240168"	"2020-11-05 14:11:55.986386"	66	6.7276395
"S201105"	"Conflict_Resolution"	"RIGHT"	"RIGHT"	592.978099999982	1100.0000022	n/a	n/a	n/a	n/a	"True"	n/a	n/a	"2020-11-05 14:11:57.105242"	"2020-11-05 14:11:57.905505"	67	6.7276395
"S201105"	"Conflict_Resolution"	"LEFT"	"LEFT"	524.977799999988	1416.6666695	n/a	n/a	n/a	n/a	"False"	n/a	n/a	"2020-11-05 14:11:59.342060"	"2020-11-05 14:12:00.075328"	68	6.7276395
"S201105"	"Conflict_Resolution"	"RIGHT"	"RIGHT"	497.727899999973	850.0000017	n/a	n/a	n/a	n/a	"True"	n/a	n/a	"2020-11-05 14:12:00.945404"	"2020-11-05 14:12:01.650718"	69	6.7276395
"S201105"	"Conflict_Resolution"	"LEFT"	"LEFT"	352.972700000009	783.3333349	n/a	n/a	n/a	n/a	"False"	n/a	n/a	"2020-11-05 14:12:02.457828"	"2020-11-05 14:12:03.019189"	70	6.7276395
"S201105"	"Conflict_Resolution"	"LEFT"	"LEFT"	523.036200000092	1016.6666687	n/a	n/a	n/a	n/a	"True"	n/a	n/a	"2020-11-05 14:12:04.056166"	"2020-11-05 14:12:04.787885"	71	6.7276395
"S201105"	"Conflict_Resolution"	"LEFT"	"LEFT"	440.503900000067	1066.6666688	n/a	n/a	n/a	n/a	"False"	n/a	n/a	"2020-11-05 14:12:05.874170"	"2020-11-05 14:12:06.522500"	72	6.7276395
"S201105"	"Conflict_Resolution"	"LEFT"	"LEFT"	599.724200000082	716.6666681	n/a	n/a	n/a	n/a	"True"	n/a	n/a	"2020-11-05 14:12:07.258743"	"2020-11-05 14:12:08.066809"	73	6.7276395
"S201105"	"Conflict_Resolution"	"LEFT"	"LEFT"	338.167000000112	866.6666684	n/a	n/a	n/a	n/a	"False"	n/a	n/a	"2020-11-05 14:12:08.952462"	"2020-11-05 14:12:09.499272"	74	6.7276395
"S201105"	"Conflict_Resolution"	"LEFT"	"LEFT"	590.901900000063	1100.0000022	n/a	n/a	n/a	n/a	"True"	n/a	n/a	"2020-11-05 14:12:10.619930"	"2020-11-05 14:12:11.420072"	75	6.7276395
"S201105"	"Conflict_Resolution"	"RIGHT"	"RIGHT"	502.145700000028	933.3333352	n/a	n/a	n/a	n/a	"True"	n/a	n/a	"2020-11-05 14:12:12.372261"	"2020-11-05 14:12:13.083433"	76	6.7276395
"S201105"	"Conflict_Resolution"	"RIGHT"	"RIGHT"	468.932400000085	983.3333353	n/a	n/a	n/a	n/a	"True"	n/a	n/a	"2020-11-05 14:12:14.086331"	"2020-11-05 14:12:14.762682"	77	6.7276395
"S201105"	"Conflict_Resolution"	"LEFT"	"LEFT"	471.920699999828	1216.6666691	n/a	n/a	n/a	n/a	"True"	n/a	n/a	"2020-11-05 14:12:16.002979"	"2020-11-05 14:12:16.685292"	78	6.7276395
"S201105"	"Conflict_Resolution"	"RIGHT"	"RIGHT"	399.705799999992	500.000001	n/a	n/a	n/a	n/a	"False"	n/a	n/a	"2020-11-05 14:12:17.203440"	"2020-11-05 14:12:17.810765"	79	6.7276395
"S201105"	"Conflict_Resolution"	"LEFT"	"LEFT"	434.089300000096	616.6666679	n/a	n/a	n/a	n/a	"False"	n/a	n/a	"2020-11-05 14:12:18.448406"	"2020-11-05 14:12:19.092145"	80	6.7276395
"S201105"	"Conflict_Resolution"	"LEFT"	"LEFT"	574.469599999929	1316.6666693	n/a	n/a	n/a	n/a	"True"	n/a	n/a	"2020-11-05 14:12:20.428848"	"2020-11-05 14:12:21.210354"	81	6.7276395
"S201105"	"Conflict_Resolution"	"RIGHT"	"RIGHT"	575.43150000015	1316.6666693	n/a	n/a	n/a	n/a	"True"	n/a	n/a	"2020-11-05 14:12:22.547123"	"2020-11-05 14:12:23.330527"	82	6.7276395
"S201105"	"Conflict_Resolution"	"LEFT"	"LEFT"	732.764399999951	1400.0000028	n/a	n/a	n/a	n/a	"True"	n/a	n/a	"2020-11-05 14:12:24.750442"	"2020-11-05 14:12:25.692172"	83	6.7276395
"S201105"	"Conflict_Resolution"	"RIGHT"	"RIGHT"	734.912699999995	750.0000015	n/a	n/a	n/a	n/a	"True"	n/a	n/a	"2020-11-05 14:12:26.460229"	"2020-11-05 14:12:27.404553"	84	6.7276395
"S201105"	"Conflict_Resolution"	"LEFT"	"LEFT"	675.374000000147	566.6666678	n/a	n/a	n/a	n/a	"True"	n/a	n/a	"2020-11-05 14:12:27.991204"	"2020-11-05 14:12:28.876210"	85	6.7276395
"S201105"	"Conflict_Resolution"	"RIGHT"	"RIGHT"	906.435300000112	1000.000002	n/a	n/a	n/a	n/a	"False"	n/a	n/a	"2020-11-05 14:12:29.896063"	"2020-11-05 14:12:31.011279"	86	6.7276395
"S201105"	"Conflict_Resolution"	"RIGHT"	"RIGHT"	813.512499999888	1150.0000023	n/a	n/a	n/a	n/a	"True"	n/a	n/a	"2020-11-05 14:12:32.181715"	"2020-11-05 14:12:33.203021"	87	6.7276395
"S201105"	"Conflict_Resolution"	"RIGHT"	"RIGHT"	641.759099999945	900.0000018	n/a	n/a	n/a	n/a	"True"	n/a	n/a	"2020-11-05 14:12:34.120981"	"2020-11-05 14:12:34.970804"	88	6.7276395
"S201105"	"Conflict_Resolution"	"LEFT"	"LEFT"	529.369999999972	666.666668	n/a	n/a	n/a	n/a	"True"	n/a	n/a	"2020-11-05 14:12:35.657916"	"2020-11-05 14:12:36.394839"	89	6.7276395
"S201105"	"Conflict_Resolution"	"RIGHT"	"RIGHT"	570.087199999989	1233.3333358	n/a	n/a	n/a	n/a	"True"	n/a	n/a	"2020-11-05 14:12:37.648758"	"2020-11-05 14:12:38.427298"	90	6.7276395
"S201105"	"Conflict_Resolution"	"LEFT"	"LEFT"	440.314299999955	900.0000018	n/a	n/a	n/a	n/a	"False"	n/a	n/a	"2020-11-05 14:12:39.346261"	"2020-11-05 14:12:39.994382"	91	6.7276395
"S201105"	"Conflict_Resolution"	"RIGHT"	"RIGHT"	611.505399999942	1083.3333355	n/a	n/a	n/a	n/a	"False"	n/a	n/a	"2020-11-05 14:12:41.094777"	"2020-11-05 14:12:41.917085"	92	6.7276395
"S201105"	"Conflict_Resolution"	"RIGHT"	"RIGHT"	764.168000000154	733.3333348	n/a	n/a	n/a	n/a	"True"	n/a	n/a	"2020-11-05 14:12:42.671183"	"2020-11-05 14:12:43.643658"	93	6.7276395
"S201105"	"Conflict_Resolution"	"LEFT"	"LEFT"	504.298199999994	533.3333344	n/a	n/a	n/a	n/a	"True"	n/a	n/a	"2020-11-05 14:12:44.194713"	"2020-11-05 14:12:44.907167"	94	6.7276395
"S201105"	"Conflict_Resolution"	"LEFT"	"LEFT"	451.651699999957	1150.0000023	n/a	n/a	n/a	n/a	"False"	n/a	n/a	"2020-11-05 14:12:46.079216"	"2020-11-05 14:12:46.741971"	95	6.7276395
"S201105"	"Conflict_Resolution"	"RIGHT"	"RIGHT"	696.791500000018	1416.6666695	n/a	n/a	n/a	n/a	"True"	n/a	n/a	"2020-11-05 14:12:48.177918"	"2020-11-05 14:12:49.084700"	96	6.7276395
"S201105"	"Conflict_Resolution"	"LEFT"	"LEFT"	851.592700000083	583.3333345	n/a	n/a	n/a	n/a	"False"	n/a	n/a	"2020-11-05 14:12:49.687003"	"2020-11-05 14:12:50.749711"	97	6.7276395
"S201105"	"Conflict_Resolution"	"RIGHT"	"RIGHT"	923.5599000001	783.3333349	n/a	n/a	n/a	n/a	"True"	n/a	n/a	"2020-11-05 14:12:51.559514"	"2020-11-05 14:12:52.693126"	98	6.7276395
"S201105"	"Conflict_Resolution"	"LEFT"	"LEFT"	517.195099999981	850.0000017	n/a	n/a	n/a	n/a	"False"	n/a	n/a	"2020-11-05 14:12:53.566422"	"2020-11-05 14:12:54.291764"	99	6.7276395
"S201105"	"Conflict_Resolution"	"LEFT"	"LEFT"	612.832799999978	1350.0000027	n/a	n/a	n/a	n/a	"True"	n/a	n/a	"2020-11-05 14:12:55.662053"	"2020-11-05 14:12:56.483089"	100	6.7276395
"S201105"	"Conflict_Resolution"	"LEFT"	"LEFT"	626.631100000168	850.0000017	n/a	n/a	n/a	n/a	"True"	n/a	n/a	"2020-11-05 14:12:57.352076"	"2020-11-05 14:12:58.187572"	101	6.7276395
"S201105"	"Conflict_Resolution"	"LEFT"	"LEFT"	512.236900000062	1250.0000025	n/a	n/a	n/a	n/a	"True"	n/a	n/a	"2020-11-05 14:12:59.458586"	"2020-11-05 14:13:00.179084"	102	6.7276395
"S201105"	"Conflict_Resolution"	"LEFT"	"LEFT"	513.742000000093	1050.0000021	n/a	n/a	n/a	n/a	"True"	n/a	n/a	"2020-11-05 14:13:01.248718"	"2020-11-05 14:13:01.971964"	103	6.7276395
"S201105"	"Conflict_Resolution"	"RIGHT"	"RIGHT"	831.025400000044	633.3333346	n/a	n/a	n/a	n/a	"True"	n/a	n/a	"2020-11-05 14:13:02.628242"	"2020-11-05 14:13:03.665740"	104	6.7276395
"S201105"	"Conflict_Resolution"	"LEFT"	"LEFT"	479.536300000063	916.6666685	n/a	n/a	n/a	n/a	"False"	n/a	n/a	"2020-11-05 14:13:04.602920"	"2020-11-05 14:13:05.292284"	105	6.7276395
"S201105"	"Conflict_Resolution"	"LEFT"	"LEFT"	423.093899999913	1116.6666689	n/a	n/a	n/a	n/a	"False"	n/a	n/a	"2020-11-05 14:13:06.428018"	"2020-11-05 14:13:07.058521"	106	6.7276395
"S201105"	"Conflict_Resolution"	"RIGHT"	"RIGHT"	524.693699999943	800.0000016	n/a	n/a	n/a	n/a	"False"	n/a	n/a	"2020-11-05 14:13:07.877761"	"2020-11-05 14:13:08.610482"	107	6.7276395
"S201105"	"Conflict_Resolution"	"LEFT"	"LEFT"	486.824500000012	516.6666677	n/a	n/a	n/a	n/a	"False"	n/a	n/a	"2020-11-05 14:13:09.148079"	"2020-11-05 14:13:09.842549"	108	6.7276395
"S201105"	"Conflict_Resolution"	"RIGHT"	"RIGHT"	379.252700000052	833.333335	n/a	n/a	n/a	n/a	"False"	n/a	n/a	"2020-11-05 14:13:10.695256"	"2020-11-05 14:13:11.283477"	109	6.7276395
"S201105"	"Conflict_Resolution"	"RIGHT"	"LEFT"	348.718799999915	950.0000019	n/a	n/a	n/a	n/a	"True"	n/a	n/a	"2020-11-05 14:13:12.254559"	"2020-11-05 14:13:12.811442"	110	6.7276395
"S201105"	"Conflict_Resolution"	"LEFT"	"LEFT"	446.656299999859	1166.666669	n/a	n/a	n/a	n/a	"False"	n/a	n/a	"2020-11-05 14:13:13.995827"	"2020-11-05 14:13:14.651265"	111	6.7276395
"S201105"	"Conflict_Resolution"	"LEFT"	"LEFT"	407.501800000091	716.6666681	n/a	n/a	n/a	n/a	"False"	n/a	n/a	"2020-11-05 14:13:15.387858"	"2020-11-05 14:13:16.002490"	112	6.7276395
"S201105"	"Conflict_Resolution"	"RIGHT"	"RIGHT"	384.906700000101	1466.6666696	n/a	n/a	n/a	n/a	"False"	n/a	n/a	"2020-11-05 14:13:17.489809"	"2020-11-05 14:13:18.083268"	113	6.7276395
"S201105"	"Conflict_Resolution"	"RIGHT"	"RIGHT"	763.446700000031	583.3333345	n/a	n/a	n/a	n/a	"True"	n/a	n/a	"2020-11-05 14:13:18.686783"	"2020-11-05 14:13:19.658740"	114	6.7276395
"S201105"	"Conflict_Resolution"	"LEFT"	"LEFT"	745.696299999963	683.3333347	n/a	n/a	n/a	n/a	"True"	n/a	n/a	"2020-11-05 14:13:20.361310"	"2020-11-05 14:13:21.316008"	115	6.7276395
"S201105"	"Conflict_Resolution"	"RIGHT"	"RIGHT"	569.205999999895	1050.0000021	n/a	n/a	n/a	n/a	"False"	n/a	n/a	"2020-11-05 14:13:22.385655"	"2020-11-05 14:13:23.162420"	116	6.7276395
"S201105"	"Conflict_Resolution"	"RIGHT"	"RIGHT"	705.679800000098	883.3333351	n/a	n/a	n/a	n/a	"True"	n/a	n/a	"2020-11-05 14:13:24.065628"	"2020-11-05 14:13:24.978815"	117	6.7276395
"S201105"	"Conflict_Resolution"	"RIGHT"	"RIGHT"	808.931600000051	683.3333347	n/a	n/a	n/a	n/a	"False"	n/a	n/a	"2020-11-05 14:13:25.682181"	"2020-11-05 14:13:26.698671"	118	6.7276395
"S201105"	"Conflict_Resolution"	"RIGHT"	"RIGHT"	415.811200000007	950.0000019	n/a	n/a	n/a	n/a	"False"	n/a	n/a	"2020-11-05 14:13:27.667748"	"2020-11-05 14:13:28.291555"	119	6.7276395
"S201105"	"Conflict_Resolution"	"RIGHT"	"RIGHT"	540.6081000001	1183.3333357	n/a	n/a	n/a	n/a	"False"	n/a	n/a	"2020-11-05 14:13:29.494412"	"2020-11-05 14:13:30.244031"	120	6.7276395
"S201105"	"Conflict_Resolution"	"RIGHT"	"RIGHT"	366.96639999991	933.3333352	n/a	n/a	n/a	n/a	"False"	n/a	n/a	"2020-11-05 14:13:31.195871"	"2020-11-05 14:13:31.770682"	121	6.7276395
"S201105"	"Conflict_Resolution"	"RIGHT"	"RIGHT"	399.399599999924	750.0000015	n/a	n/a	n/a	n/a	"False"	n/a	n/a	"2020-11-05 14:13:32.539064"	"2020-11-05 14:13:33.146927"	122	6.7276395
"S201105"	"Conflict_Resolution"	"LEFT"	"LEFT"	383.744399999841	1466.6666696	n/a	n/a	n/a	n/a	"False"	n/a	n/a	"2020-11-05 14:13:34.635641"	"2020-11-05 14:13:35.230446"	123	6.7276395
"S201105"	"Conflict_Resolution"	"LEFT"	"LEFT"	329.213100000061	816.6666683	n/a	n/a	n/a	n/a	"False"	n/a	n/a	"2020-11-05 14:13:36.066607"	"2020-11-05 14:13:36.603987"	124	6.7276395
"S201105"	"Conflict_Resolution"	"LEFT"	"LEFT"	580.101600000035	1200.0000024	n/a	n/a	n/a	n/a	"True"	n/a	n/a	"2020-11-05 14:13:37.822619"	"2020-11-05 14:13:38.610365"	125	6.7276395
"S201105"	"Conflict_Resolution"	"LEFT"	"LEFT"	454.40520000011	766.6666682	n/a	n/a	n/a	n/a	"False"	n/a	n/a	"2020-11-05 14:13:39.396563"	"2020-11-05 14:13:40.058973"	126	6.7276395
"S201105"	"Conflict_Resolution"	"LEFT"	"LEFT"	329.927800000178	1450.0000029	n/a	n/a	n/a	n/a	"False"	n/a	n/a	"2020-11-05 14:13:41.529423"	"2020-11-05 14:13:42.068139"	127	6.7276395
"S201105"	"Conflict_Resolution"	"RIGHT"	"RIGHT"	481.101000000081	700.0000014	n/a	n/a	n/a	n/a	"False"	n/a	n/a	"2020-11-05 14:13:42.785537"	"2020-11-05 14:13:43.479084"	128	6.7276395
"S201105"	"Conflict_Resolution"	"LEFT"	"LEFT"	525.480000000016	866.6666684	n/a	n/a	n/a	n/a	"True"	n/a	n/a	"2020-11-05 14:13:44.365178"	"2020-11-05 14:13:45.099262"	129	6.7276395
"S201105"	"Conflict_Resolution"	"LEFT"	"LEFT"	376.179300000103	1100.0000022	n/a	n/a	n/a	n/a	"False"	n/a	n/a	"2020-11-05 14:13:46.218501"	"2020-11-05 14:13:46.804191"	130	6.7276395
"S201105"	"Conflict_Resolution"	"LEFT"	"LEFT"	519.579900000053	1500.000003	n/a	n/a	n/a	n/a	"True"	n/a	n/a	"2020-11-05 14:13:48.322978"	"2020-11-05 14:13:49.050482"	131	6.7276395
"S201105"	"Conflict_Resolution"	"RIGHT"	"RIGHT"	947.11980000011	650.0000013	n/a	n/a	n/a	n/a	"False"	n/a	n/a	"2020-11-05 14:13:49.719706"	"2020-11-05 14:13:50.875181"	132	6.7276395
"S201105"	"Conflict_Resolution"	"LEFT"	"LEFT"	606.29670000003	1166.666669	n/a	n/a	n/a	n/a	"True"	n/a	n/a	"2020-11-05 14:13:52.060796"	"2020-11-05 14:13:52.875362"	133	6.7276395
"S201105"	"Conflict_Resolution"	"RIGHT"	"RIGHT"	419.887800000197	1216.6666691	n/a	n/a	n/a	n/a	"False"	n/a	n/a	"2020-11-05 14:13:54.110724"	"2020-11-05 14:13:54.739682"	134	6.7276395
"S201105"	"Conflict_Resolution"	"LEFT"	"LEFT"	391.175299999986	1300.0000026	n/a	n/a	n/a	n/a	"False"	n/a	n/a	"2020-11-05 14:13:56.060178"	"2020-11-05 14:13:56.658349"	135	6.7276395
"S201105"	"Conflict_Resolution"	"RIGHT"	"RIGHT"	586.515599999984	600.0000012	n/a	n/a	n/a	n/a	"False"	n/a	n/a	"2020-11-05 14:13:57.280304"	"2020-11-05 14:13:58.078594"	136	6.7276395
"S201105"	"Conflict_Resolution"	"LEFT"	"LEFT"	515.935600000148	1300.0000026	n/a	n/a	n/a	n/a	"True"	n/a	n/a	"2020-11-05 14:13:59.398493"	"2020-11-05 14:14:00.126542"	137	6.7276395
"S201105"	"Conflict_Resolution"	"RIGHT"	"RIGHT"	490.983400000005	533.3333344	n/a	n/a	n/a	n/a	"False"	n/a	n/a	"2020-11-05 14:14:00.679589"	"2020-11-05 14:14:01.378877"	138	6.7276395
"S201105"	"Conflict_Resolution"	"LEFT"	"LEFT"	378.452999999809	1050.0000021	n/a	n/a	n/a	n/a	"False"	n/a	n/a	"2020-11-05 14:14:02.448785"	"2020-11-05 14:14:03.035957"	139	6.7276395
"S201105"	"Conflict_Resolution"	"LEFT"	"LEFT"	571.928600000092	783.3333349	n/a	n/a	n/a	n/a	"True"	n/a	n/a	"2020-11-05 14:14:03.839560"	"2020-11-05 14:14:04.618598"	140	6.7276395
"S201105"	"Conflict_Resolution"	"RIGHT"	"RIGHT"	487.318599999981	1133.3333356	n/a	n/a	n/a	n/a	"True"	n/a	n/a	"2020-11-05 14:14:05.771749"	"2020-11-05 14:14:06.467114"	141	6.7276395
"S201105"	"Conflict_Resolution"	"RIGHT"	"RIGHT"	602.362200000016	1266.6666692	n/a	n/a	n/a	n/a	"False"	n/a	n/a	"2020-11-05 14:14:07.752848"	"2020-11-05 14:14:08.563034"	142	6.7276395
"S201105"	"Conflict_Resolution"	"LEFT"	"LEFT"	326.574400000027	1350.0000027	n/a	n/a	n/a	n/a	"False"	n/a	n/a	"2020-11-05 14:14:09.932778"	"2020-11-05 14:14:10.467025"	143	6.7276395
"S201105"	"Conflict_Resolution"	"RIGHT"	"RIGHT"	601.353199999949	1483.3333363	n/a	n/a	n/a	n/a	"True"	n/a	n/a	"2020-11-05 14:14:11.969614"	"2020-11-05 14:14:12.778712"	144	6.7276395
"S201105"	"Conflict_Resolution"	"RIGHT"	"RIGHT"	744.584600000053	883.3333351	n/a	n/a	n/a	n/a	"False"	n/a	n/a	"2020-11-05 14:14:13.682033"	"2020-11-05 14:14:14.636296"	145	6.7276395
"S201105"	"Conflict_Resolution"	"RIGHT"	"RIGHT"	433.627099999967	1483.3333363	n/a	n/a	n/a	n/a	"False"	n/a	n/a	"2020-11-05 14:14:16.137723"	"2020-11-05 14:14:16.779451"	146	6.7276395
"S201105"	"Conflict_Resolution"	"LEFT"	"LEFT"	553.262599999925	1466.6666696	n/a	n/a	n/a	n/a	"True"	n/a	n/a	"2020-11-05 14:14:18.265312"	"2020-11-05 14:14:19.026921"	147	6.7276395
"S201105"	"Conflict_Resolution"	"LEFT"	"LEFT"	504.453800000192	1500.000003	n/a	n/a	n/a	n/a	"False"	n/a	n/a	"2020-11-05 14:14:20.546571"	"2020-11-05 14:14:21.259349"	148	6.7276395
"S201105"	"Conflict_Resolution"	"RIGHT"	"RIGHT"	438.548100000162	733.3333348	n/a	n/a	n/a	n/a	"False"	n/a	n/a	"2020-11-05 14:14:22.012691"	"2020-11-05 14:14:22.662474"	149	6.7276395
"S201105"	"Conflict_Resolution"	"LEFT"	"LEFT"	377.478200000041	966.6666686	n/a	n/a	n/a	n/a	"True"	n/a	n/a	"2020-11-05 14:14:23.649774"	"2020-11-05 14:14:24.234838"	150	6.7276395
"S201105"	"Conflict_Resolution"	"RIGHT"	"RIGHT"	564.225000000079	983.3333353	n/a	n/a	n/a	n/a	"False"	n/a	n/a	"2020-11-05 14:14:25.238995"	"2020-11-05 14:14:26.015065"	151	6.7276395
"S201105"	"Conflict_Resolution"	"RIGHT"	"RIGHT"	598.727000000054	1050.0000021	n/a	n/a	n/a	n/a	"True"	n/a	n/a	"2020-11-05 14:14:27.084599"	"2020-11-05 14:14:27.890790"	152	6.7276395
"S201105"	"Conflict_Resolution"	"RIGHT"	"RIGHT"	625.705100000005	650.0000013	n/a	n/a	n/a	n/a	"True"	n/a	n/a	"2020-11-05 14:14:28.561341"	"2020-11-05 14:14:29.394636"	153	6.7276395
"S201105"	"Conflict_Resolution"	"RIGHT"	"RIGHT"	553.81720000014	1433.3333362	n/a	n/a	n/a	n/a	"True"	n/a	n/a	"2020-11-05 14:14:30.848900"	"2020-11-05 14:14:31.610844"	154	6.7276395
"S201105"	"Conflict_Resolution"	"LEFT"	"LEFT"	654.123000000027	516.6666677	n/a	n/a	n/a	n/a	"True"	n/a	n/a	"2020-11-05 14:14:32.148712"	"2020-11-05 14:14:33.010578"	155	6.7276395
"S201105"	"Conflict_Resolution"	"LEFT"	"LEFT"	457.786500000111	1450.0000029	n/a	n/a	n/a	n/a	"True"	n/a	n/a	"2020-11-05 14:14:34.481587"	"2020-11-05 14:14:35.148610"	156	6.7276395
"S201105"	"Conflict_Resolution"	"RIGHT"	"RIGHT"	441.340400000172	850.0000017	n/a	n/a	n/a	n/a	"False"	n/a	n/a	"2020-11-05 14:14:36.017313"	"2020-11-05 14:14:36.666847"	157	6.7276395
"S201105"	"Conflict_Resolution"	"LEFT"	"LEFT"	338.346199999933	1266.6666692	n/a	n/a	n/a	n/a	"False"	n/a	n/a	"2020-11-05 14:14:37.952735"	"2020-11-05 14:14:38.501299"	158	6.7276395
"S201105"	"Conflict_Resolution"	"RIGHT"	"RIGHT"	293.212199999971	1316.6666693	n/a	n/a	n/a	n/a	"False"	n/a	n/a	"2020-11-05 14:14:39.838061"	"2020-11-05 14:14:40.339359"	159	6.7276395
"S201105"	"Conflict_Resolution"	"LEFT"	"LEFT"	579.751299999998	583.3333345	n/a	n/a	n/a	n/a	"True"	n/a	n/a	"2020-11-05 14:14:40.943417"	"2020-11-05 14:14:41.730657"	160	6.7276395
"S201105"	"Processing_Speed"	"LEFT"	"DOWN"	532.963499999994	950.0000019	""	n/a	n/a	n/a	n/a	n/a	n/a	"2020-11-05 13:57:28.565909"	"2020-11-05 13:57:29.316926"	1	3.07647616666667
"S201105"	"Processing_Speed"	"RIGHT"	"DOWN"	225.537400000007	633.3333346	""	n/a	n/a	n/a	n/a	n/a	n/a	"2020-11-05 13:57:29.961213"	"2020-11-05 13:57:30.396015"	2	3.07647616666667
"S201105"	"Processing_Speed"	"RIGHT"	"DOWN"	238.652999999999	916.6666685	""	n/a	n/a	n/a	n/a	n/a	n/a	"2020-11-05 13:57:31.323667"	"2020-11-05 13:57:31.774386"	3	3.07647616666667
"S201105"	"Processing_Speed"	"RIGHT"	"DOWN"	282.372100000003	1183.3333357	""	n/a	n/a	n/a	n/a	n/a	n/a	"2020-11-05 13:57:32.967575"	"2020-11-05 13:57:33.457847"	4	3.07647616666667
"S201105"	"Processing_Speed"	"RIGHT"	"DOWN"	231.363399999992	783.3333349	""	n/a	n/a	n/a	n/a	n/a	n/a	"2020-11-05 13:57:34.251479"	"2020-11-05 13:57:34.690855"	5	3.07647616666667
"S201105"	"Processing_Speed"	"LEFT"	"DOWN"	266.400599999997	883.3333351	""	n/a	n/a	n/a	n/a	n/a	n/a	"2020-11-05 13:57:35.583856"	"2020-11-05 13:57:36.058651"	6	3.07647616666667
"S201105"	"Processing_Speed"	"LEFT"	"DOWN"	232.416000000001	1300.0000026	""	n/a	n/a	n/a	n/a	n/a	n/a	"2020-11-05 13:57:37.370301"	"2020-11-05 13:57:37.810755"	7	3.07647616666667
"S201105"	"Processing_Speed"	"LEFT"	"DOWN"	305.970900000005	500.000001	""	n/a	n/a	n/a	n/a	n/a	n/a	"2020-11-05 13:57:38.320758"	"2020-11-05 13:57:38.835974"	8	3.07647616666667
"S201105"	"Processing_Speed"	"RIGHT"	"DOWN"	246.68269999998	950.0000019	""	n/a	n/a	n/a	n/a	n/a	n/a	"2020-11-05 13:57:39.796062"	"2020-11-05 13:57:40.251097"	9	3.07647616666667
"S201105"	"Processing_Speed"	"RIGHT"	"DOWN"	281.875999999983	700.0000014	""	n/a	n/a	n/a	n/a	n/a	n/a	"2020-11-05 13:57:40.960100"	"2020-11-05 13:57:41.451960"	10	3.07647616666667
"S201105"	"Processing_Speed"	"LEFT"	"DOWN"	283.837199999994	1433.3333362	""	n/a	n/a	n/a	n/a	n/a	n/a	"2020-11-05 13:57:42.894850"	"2020-11-05 13:57:43.388084"	11	3.07647616666667
"S201105"	"Processing_Speed"	"LEFT"	"DOWN"	252.836800000011	1016.6666687	""	n/a	n/a	n/a	n/a	n/a	n/a	"2020-11-05 13:57:44.413972"	"2020-11-05 13:57:44.875262"	12	3.07647616666667
"S201105"	"Processing_Speed"	"RIGHT"	"DOWN"	332.747799999993	1400.0000028	""	n/a	n/a	n/a	n/a	n/a	n/a	"2020-11-05 13:57:46.285503"	"2020-11-05 13:57:46.826469"	13	3.07647616666667
"S201105"	"Processing_Speed"	"LEFT"	"DOWN"	250.685599999997	1083.3333355	""	n/a	n/a	n/a	n/a	n/a	n/a	"2020-11-05 13:57:47.919829"	"2020-11-05 13:57:48.379296"	14	3.07647616666667
"S201105"	"Processing_Speed"	"RIGHT"	"DOWN"	247.764799999999	1333.333336	""	n/a	n/a	n/a	n/a	n/a	n/a	"2020-11-05 13:57:49.722405"	"2020-11-05 13:57:50.179218"	15	3.07647616666667
"S201105"	"Processing_Speed"	"RIGHT"	"DOWN"	269.799599999999	1016.6666687	""	n/a	n/a	n/a	n/a	n/a	n/a	"2020-11-05 13:57:51.205097"	"2020-11-05 13:57:51.682204"	16	3.07647616666667
"S201105"	"Processing_Speed"	"RIGHT"	"DOWN"	328.713599999986	1150.0000023	""	n/a	n/a	n/a	n/a	n/a	n/a	"2020-11-05 13:57:52.841050"	"2020-11-05 13:57:53.379252"	17	3.07647616666667
"S201105"	"Processing_Speed"	"RIGHT"	"DOWN"	265.765299999998	500.000001	""	n/a	n/a	n/a	n/a	n/a	n/a	"2020-11-05 13:57:53.888549"	"2020-11-05 13:57:54.363254"	18	3.07647616666667
"S201105"	"Processing_Speed"	"LEFT"	"DOWN"	278.542999999985	783.3333349	""	n/a	n/a	n/a	n/a	n/a	n/a	"2020-11-05 13:57:55.156229"	"2020-11-05 13:57:55.642406"	19	3.07647616666667
"S201105"	"Processing_Speed"	"RIGHT"	"DOWN"	363.891899999999	1466.6666696	"DOWN"	-496.477	n/a	n/a	n/a	n/a	n/a	"2020-11-05 13:57:57.118920"	"2020-11-05 13:57:57.692927"	20	3.07647616666667
"S201105"	"Processing_Speed"	"LEFT"	"DOWN"	288.533599999994	1266.6666692	""	n/a	n/a	n/a	n/a	n/a	n/a	"2020-11-05 13:57:58.969917"	"2020-11-05 13:57:59.466919"	21	3.07647616666667
"S201105"	"Processing_Speed"	"LEFT"	"DOWN"	333.455799999996	633.3333346	""	n/a	n/a	n/a	n/a	n/a	n/a	"2020-11-05 13:58:00.109151"	"2020-11-05 13:58:00.651048"	22	3.07647616666667
"S201105"	"Processing_Speed"	"LEFT"	"DOWN"	238.527599999998	983.3333353	""	n/a	n/a	n/a	n/a	n/a	n/a	"2020-11-05 13:58:01.643728"	"2020-11-05 13:58:02.090340"	23	3.07647616666667
"S201105"	"Processing_Speed"	"RIGHT"	"DOWN"	321.089999999998	533.3333344	""	n/a	n/a	n/a	n/a	n/a	n/a	"2020-11-05 13:58:02.633078"	"2020-11-05 13:58:03.161696"	24	3.07647616666667
"S201105"	"Processing_Speed"	"LEFT"	"DOWN"	282.465900000005	733.3333348	""	n/a	n/a	n/a	n/a	n/a	n/a	"2020-11-05 13:58:03.903869"	"2020-11-05 13:58:04.394700"	25	3.07647616666667
"S201105"	"Processing_Speed"	"RIGHT"	"DOWN"	251.853799999992	1083.3333355	""	n/a	n/a	n/a	n/a	n/a	n/a	"2020-11-05 13:58:05.486770"	"2020-11-05 13:58:05.946416"	26	3.07647616666667
"S201105"	"Processing_Speed"	"LEFT"	"DOWN"	323.443200000014	700.0000014	""	n/a	n/a	n/a	n/a	n/a	n/a	"2020-11-05 13:58:06.655409"	"2020-11-05 13:58:07.187278"	27	3.07647616666667
"S201105"	"Processing_Speed"	"LEFT"	"DOWN"	359.600299999983	1183.3333357	""	n/a	n/a	n/a	n/a	n/a	n/a	"2020-11-05 13:58:08.378909"	"2020-11-05 13:58:08.945884"	28	3.07647616666667
"S201105"	"Processing_Speed"	"LEFT"	"DOWN"	269.058200000018	1050.0000021	""	n/a	n/a	n/a	n/a	n/a	n/a	"2020-11-05 13:58:10.005149"	"2020-11-05 13:58:10.482829"	29	3.07647616666667
"S201105"	"Processing_Speed"	"RIGHT"	"DOWN"	297.6381	733.3333348	""	n/a	n/a	n/a	n/a	n/a	n/a	"2020-11-05 13:58:11.224775"	"2020-11-05 13:58:11.730076"	30	3.07647616666667
"S201105"	"Processing_Speed"	"LEFT"	"DOWN"	259.264900000005	1466.6666696	""	n/a	n/a	n/a	n/a	n/a	n/a	"2020-11-05 13:58:13.207392"	"2020-11-05 13:58:13.674569"	31	3.07647616666667
"S201105"	"Processing_Speed"	"LEFT"	"DOWN"	253.352500000005	1400.0000028	""	n/a	n/a	n/a	n/a	n/a	n/a	"2020-11-05 13:58:15.085141"	"2020-11-05 13:58:15.546935"	32	3.07647616666667
"S201105"	"Processing_Speed"	"RIGHT"	"DOWN"	355.883500000004	666.666668	""	n/a	n/a	n/a	n/a	n/a	n/a	"2020-11-05 13:58:16.222206"	"2020-11-05 13:58:16.786859"	33	3.07647616666667
"S201105"	"Processing_Speed"	"RIGHT"	"DOWN"	253.630000000015	1433.3333362	""	n/a	n/a	n/a	n/a	n/a	n/a	"2020-11-05 13:58:18.228548"	"2020-11-05 13:58:18.691174"	34	3.07647616666667
"S201105"	"Processing_Speed"	"RIGHT"	"DOWN"	327.911700000016	566.6666678	""	n/a	n/a	n/a	n/a	n/a	n/a	"2020-11-05 13:58:19.266664"	"2020-11-05 13:58:19.802879"	35	3.07647616666667
"S201105"	"Processing_Speed"	"LEFT"	"DOWN"	257.123500000006	916.6666685	""	n/a	n/a	n/a	n/a	n/a	n/a	"2020-11-05 13:58:20.729056"	"2020-11-05 13:58:21.195772"	36	3.07647616666667
"S201105"	"Processing_Speed"	"RIGHT"	"DOWN"	274.214900000004	850.0000017	""	n/a	n/a	n/a	n/a	n/a	n/a	"2020-11-05 13:58:22.056309"	"2020-11-05 13:58:22.538592"	37	3.07647616666667
"S201105"	"Processing_Speed"	"RIGHT"	"DOWN"	313.561700000008	1116.6666689	""	n/a	n/a	n/a	n/a	n/a	n/a	"2020-11-05 13:58:23.664602"	"2020-11-05 13:58:24.187144"	38	3.07647616666667
"S201105"	"Processing_Speed"	"LEFT"	"DOWN"	323.926300000011	666.666668	""	n/a	n/a	n/a	n/a	n/a	n/a	"2020-11-05 13:58:24.862176"	"2020-11-05 13:58:25.395409"	39	3.07647616666667
"S201105"	"Processing_Speed"	"RIGHT"	"DOWN"	267.263999999983	1050.0000021	""	n/a	n/a	n/a	n/a	n/a	n/a	"2020-11-05 13:58:26.455629"	"2020-11-05 13:58:26.930058"	40	3.07647616666667
"S201105"	"Processing_Speed"	"LEFT"	"DOWN"	280.169900000004	1366.6666694	""	n/a	n/a	n/a	n/a	n/a	n/a	"2020-11-05 13:58:28.306746"	"2020-11-05 13:58:28.794475"	41	3.07647616666667
"S201105"	"Processing_Speed"	"RIGHT"	"DOWN"	235.989600000011	1266.6666692	""	n/a	n/a	n/a	n/a	n/a	n/a	"2020-11-05 13:58:30.070713"	"2020-11-05 13:58:30.514020"	42	3.07647616666667
"S201105"	"Processing_Speed"	"RIGHT"	"DOWN"	259.136600000005	1300.0000026	""	n/a	n/a	n/a	n/a	n/a	n/a	"2020-11-05 13:58:31.823606"	"2020-11-05 13:58:32.291047"	43	3.07647616666667
"S201105"	"Processing_Speed"	"RIGHT"	"DOWN"	307.048000000009	1500.000003	""	n/a	n/a	n/a	n/a	n/a	n/a	"2020-11-05 13:58:33.799515"	"2020-11-05 13:58:34.313779"	44	3.07647616666667
"S201105"	"Processing_Speed"	"RIGHT"	"DOWN"	286.826700000006	816.6666683	""	n/a	n/a	n/a	n/a	n/a	n/a	"2020-11-05 13:58:35.140153"	"2020-11-05 13:58:35.635179"	45	3.07647616666667
"S201105"	"Processing_Speed"	"LEFT"	"DOWN"	241.697399999993	1333.333336	""	n/a	n/a	n/a	n/a	n/a	n/a	"2020-11-05 13:58:36.977215"	"2020-11-05 13:58:37.426291"	46	3.07647616666667
"S201105"	"Processing_Speed"	"LEFT"	"DOWN"	284.8975	1216.6666691	""	n/a	n/a	n/a	n/a	n/a	n/a	"2020-11-05 13:58:38.653828"	"2020-11-05 13:58:39.147311"	47	3.07647616666667
"S201105"	"Processing_Speed"	"LEFT"	"DOWN"	358.41099999999	566.6666678	""	n/a	n/a	n/a	n/a	n/a	n/a	"2020-11-05 13:58:39.724361"	"2020-11-05 13:58:40.293054"	48	3.07647616666667
"S201105"	"Processing_Speed"	"RIGHT"	"DOWN"	268.720500000001	600.0000012	""	n/a	n/a	n/a	n/a	n/a	n/a	"2020-11-05 13:58:40.901601"	"2020-11-05 13:58:41.378691"	49	3.07647616666667
"S201105"	"Processing_Speed"	"LEFT"	"DOWN"	250.322100000005	850.0000017	""	n/a	n/a	n/a	n/a	n/a	n/a	"2020-11-05 13:58:42.240034"	"2020-11-05 13:58:42.698956"	50	3.07647616666667
"S201105"	"Processing_Speed"	"LEFT"	"DOWN"	265.473899999989	1500.000003	""	n/a	n/a	n/a	n/a	n/a	n/a	"2020-11-05 13:58:44.208638"	"2020-11-05 13:58:44.682502"	51	3.07647616666667
"S201105"	"Processing_Speed"	"RIGHT"	"DOWN"	270.319799999982	983.3333353	""	n/a	n/a	n/a	n/a	n/a	n/a	"2020-11-05 13:58:45.676255"	"2020-11-05 13:58:46.153469"	52	3.07647616666667
"S201105"	"Processing_Speed"	"LEFT"	"DOWN"	610.773399999999	533.3333344	""	n/a	n/a	n/a	n/a	n/a	n/a	"2020-11-05 13:58:46.695841"	"2020-11-05 13:58:47.514912"	53	3.07647616666667
"S201105"	"Processing_Speed"	"RIGHT"	"DOWN"	262.167500000004	1216.6666691	""	n/a	n/a	n/a	n/a	n/a	n/a	"2020-11-05 13:58:48.740346"	"2020-11-05 13:58:49.211288"	54	3.07647616666667
"S201105"	"Processing_Speed"	"LEFT"	"DOWN"	287.993699999987	1150.0000023	""	n/a	n/a	n/a	n/a	n/a	n/a	"2020-11-05 13:58:50.370553"	"2020-11-05 13:58:50.867221"	55	3.07647616666667
"S201105"	"Processing_Speed"	"LEFT"	"DOWN"	494.577200000009	816.6666683	""	n/a	n/a	n/a	n/a	n/a	n/a	"2020-11-05 13:58:51.691921"	"2020-11-05 13:58:52.395232"	56	3.07647616666667
"S201105"	"Processing_Speed"	"LEFT"	"DOWN"	309.797099999997	600.0000012	""	n/a	n/a	n/a	n/a	n/a	n/a	"2020-11-05 13:58:53.004388"	"2020-11-05 13:58:53.522717"	57	3.07647616666667
"S201105"	"Processing_Speed"	"RIGHT"	"DOWN"	296.116699999999	1366.6666694	""	n/a	n/a	n/a	n/a	n/a	n/a	"2020-11-05 13:58:54.898787"	"2020-11-05 13:58:55.403182"	58	3.07647616666667
"S201105"	"Processing_Speed"	"LEFT"	"DOWN"	257.807500000013	1116.6666689	""	n/a	n/a	n/a	n/a	n/a	n/a	"2020-11-05 13:58:56.528866"	"2020-11-05 13:58:56.994757"	59	3.07647616666667
"S201105"	"Processing_Speed"	"RIGHT"	"DOWN"	291.659199999998	883.3333351	""	n/a	n/a	n/a	n/a	n/a	n/a	"2020-11-05 13:58:57.886332"	"2020-11-05 13:58:58.385524"	60	3.07647616666667
"S201105"	"Response_Inhibition"	"RIGHT"	"RIGHT"	711.853900000051	566.6666678	n/a	n/a	n/a	n/a	n/a	n/a	n/a	"2020-11-05 14:02:48.010816"	"2020-11-05 14:02:48.931165"	1	5.98243051666667
"S201105"	"Response_Inhibition"	"LEFT"	"LEFT"	285.755100000017	583.3333345	n/a	n/a	n/a	n/a	n/a	n/a	n/a	"2020-11-05 14:02:49.525138"	"2020-11-05 14:02:50.019086"	2	5.98243051666667
"S201105"	"Response_Inhibition"	"RIGHT"	"RIGHT"	296.377233500002	1283.3333359	n/a	n/a	n/a	n/a	n/a	n/a	n/a	"2020-11-05 14:02:51.310900"	"2020-11-05 14:02:51.819209"	3	5.98243051666667
"S201105"	"Response_Inhibition"	"RIGHT"	"RIGHT"	485.563300600013	733.3333348	n/a	n/a	n/a	n/a	n/a	n/a	n/a	"2020-11-05 14:02:52.561665"	"2020-11-05 14:02:53.257541"	4	5.98243051666667
"S201105"	"Response_Inhibition"	"RIGHT"	"Time_Max_Exceeded"	1500.0483336	1466.6666696	n/a	n/a	n/a	n/a	n/a	n/a	n/a	"2020-11-05 14:02:54.732172"	"2020-11-05 14:02:56.235402"	5	5.98243051666667
"S201105"	"Response_Inhibition"	"RIGHT"	"Time_Max_Exceeded"	1500.06159999998	1233.3333358	n/a	n/a	n/a	n/a	n/a	n/a	n/a	"2020-11-05 14:02:57.478699"	"2020-11-05 14:02:58.978094"	6	5.98243051666667
"S201105"	"Response_Inhibition"	"RIGHT"	"RIGHT"	490.76389999999	1083.3333355	n/a	n/a	n/a	n/a	n/a	n/a	n/a	"2020-11-05 14:03:00.071849"	"2020-11-05 14:03:00.769807"	7	5.98243051666667
"S201105"	"Response_Inhibition"	"LEFT"	"Time_Max_Exceeded"	1500.05346670001	616.6666679	n/a	n/a	n/a	n/a	n/a	n/a	n/a	"2020-11-05 14:03:01.396156"	"2020-11-05 14:03:02.899115"	8	5.98243051666667
"S201105"	"Response_Inhibition"	"LEFT"	"LEFT"	463.676300000031	566.6666678	n/a	n/a	n/a	n/a	n/a	n/a	n/a	"2020-11-05 14:03:03.474816"	"2020-11-05 14:03:04.146546"	9	5.98243051666667
"S201105"	"Response_Inhibition"	"RIGHT"	"RIGHT"	362.841100000026	1100.0000022	n/a	n/a	n/a	n/a	n/a	n/a	n/a	"2020-11-05 14:03:05.256399"	"2020-11-05 14:03:05.828505"	10	5.98243051666667
"S201105"	"Response_Inhibition"	"RIGHT"	"Time_Max_Exceeded"	1500.05823340003	550.0000011	n/a	n/a	n/a	n/a	n/a	n/a	n/a	"2020-11-05 14:03:06.387193"	"2020-11-05 14:03:07.891205"	11	5.98243051666667
"S201105"	"Response_Inhibition"	"RIGHT"	"RIGHT"	525.709100000029	1216.6666691	n/a	n/a	n/a	n/a	n/a	n/a	n/a	"2020-11-05 14:03:09.116991"	"2020-11-05 14:03:09.850684"	12	5.98243051666667
"S201105"	"Response_Inhibition"	"LEFT"	"LEFT"	380.442099999982	1266.6666692	n/a	n/a	n/a	n/a	n/a	n/a	n/a	"2020-11-05 14:03:11.126556"	"2020-11-05 14:03:11.718873"	13	5.98243051666667
"S201105"	"Response_Inhibition"	"LEFT"	"LEFT"	569.092399999988	850.0000017	n/a	n/a	n/a	n/a	n/a	n/a	n/a	"2020-11-05 14:03:12.577628"	"2020-11-05 14:03:13.355129"	14	5.98243051666667
"S201105"	"Response_Inhibition"	"RIGHT"	"RIGHT"	584.531599999991	1133.3333356	n/a	n/a	n/a	n/a	n/a	n/a	n/a	"2020-11-05 14:03:14.498381"	"2020-11-05 14:03:15.290947"	15	5.98243051666667
"S201105"	"Response_Inhibition"	"RIGHT"	"RIGHT"	339.679199999978	1483.3333363	n/a	n/a	n/a	n/a	n/a	n/a	n/a	"2020-11-05 14:03:16.783258"	"2020-11-05 14:03:17.329455"	16	5.98243051666667
"S201105"	"Response_Inhibition"	"LEFT"	"LEFT"	335.658499999965	983.3333353	n/a	n/a	n/a	n/a	n/a	n/a	n/a	"2020-11-05 14:03:18.322328"	"2020-11-05 14:03:18.870773"	17	5.98243051666667
"S201105"	"Response_Inhibition"	"LEFT"	"LEFT"	335.330199999987	1266.6666692	n/a	n/a	n/a	n/a	n/a	n/a	n/a	"2020-11-05 14:03:20.147111"	"2020-11-05 14:03:20.690370"	18	5.98243051666667
"S201105"	"Response_Inhibition"	"LEFT"	"LEFT"	314.248300000031	866.6666684	n/a	n/a	n/a	n/a	n/a	n/a	n/a	"2020-11-05 14:03:21.568323"	"2020-11-05 14:03:22.094504"	19	5.98243051666667
"S201105"	"Response_Inhibition"	"LEFT"	"LEFT"	307.317599999976	1000.000002	n/a	n/a	n/a	n/a	n/a	n/a	n/a	"2020-11-05 14:03:23.103090"	"2020-11-05 14:03:23.618724"	20	5.98243051666667
"S201105"	"Response_Inhibition"	"RIGHT"	"RIGHT"	311.612700000012	1150.0000023	n/a	n/a	n/a	n/a	n/a	n/a	n/a	"2020-11-05 14:03:24.779175"	"2020-11-05 14:03:25.299334"	21	5.98243051666667
"S201105"	"Response_Inhibition"	"RIGHT"	"RIGHT"	315.904266999992	983.3333353	n/a	n/a	n/a	n/a	n/a	n/a	n/a	"2020-11-05 14:03:26.291602"	"2020-11-05 14:03:26.819122"	22	5.98243051666667
"S201105"	"Response_Inhibition"	"RIGHT"	"RIGHT"	402.734500000008	1266.6666692	n/a	n/a	n/a	n/a	n/a	n/a	n/a	"2020-11-05 14:03:28.095508"	"2020-11-05 14:03:28.706602"	23	5.98243051666667
"S201105"	"Response_Inhibition"	"LEFT"	"LEFT"	412.961700500039	950.0000019	n/a	n/a	n/a	n/a	n/a	n/a	n/a	"2020-11-05 14:03:29.666955"	"2020-11-05 14:03:30.290357"	24	5.98243051666667
"S201105"	"Response_Inhibition"	"RIGHT"	"Time_Max_Exceeded"	1500.0596334	1150.0000023	n/a	n/a	n/a	n/a	n/a	n/a	n/a	"2020-11-05 14:03:31.448911"	"2020-11-05 14:03:32.952327"	25	5.98243051666667
"S201105"	"Response_Inhibition"	"RIGHT"	"RIGHT"	489.674900000068	1366.6666694	n/a	n/a	n/a	n/a	n/a	n/a	n/a	"2020-11-05 14:03:34.328733"	"2020-11-05 14:03:35.025961"	26	5.98243051666667
"S201105"	"Response_Inhibition"	"LEFT"	"LEFT"	486.096299999986	1233.3333358	n/a	n/a	n/a	n/a	n/a	n/a	n/a	"2020-11-05 14:03:36.268720"	"2020-11-05 14:03:36.962649"	27	5.98243051666667
"S201105"	"Response_Inhibition"	"RIGHT"	"Time_Max_Exceeded"	1500.05130010004	633.3333346	n/a	n/a	n/a	n/a	n/a	n/a	n/a	"2020-11-05 14:03:37.606033"	"2020-11-05 14:03:39.109401"	28	5.98243051666667
"S201105"	"Response_Inhibition"	"LEFT"	"Time_Max_Exceeded"	1500.05600020006	633.3333346	n/a	n/a	n/a	n/a	n/a	n/a	n/a	"2020-11-05 14:03:39.751757"	"2020-11-05 14:03:41.254363"	29	5.98243051666667
"S201105"	"Response_Inhibition"	"LEFT"	"LEFT"	371.755300000018	1150.0000023	n/a	n/a	n/a	n/a	n/a	n/a	n/a	"2020-11-05 14:03:42.415296"	"2020-11-05 14:03:42.993830"	30	5.98243051666667
"S201105"	"Response_Inhibition"	"RIGHT"	"RIGHT"	366.790600000058	1433.3333362	n/a	n/a	n/a	n/a	n/a	n/a	n/a	"2020-11-05 14:03:44.436144"	"2020-11-05 14:03:45.010183"	31	5.98243051666667
"S201105"	"Response_Inhibition"	"RIGHT"	"RIGHT"	676.880499999925	1050.0000021	n/a	n/a	n/a	n/a	n/a	n/a	n/a	"2020-11-05 14:03:46.070081"	"2020-11-05 14:03:46.956068"	32	5.98243051666667
"S201105"	"Response_Inhibition"	"RIGHT"	"RIGHT"	442.514000600006	1383.3333361	n/a	n/a	n/a	n/a	n/a	n/a	n/a	"2020-11-05 14:03:48.348854"	"2020-11-05 14:03:49.006344"	33	5.98243051666667
"S201105"	"Response_Inhibition"	"LEFT"	"Time_Max_Exceeded"	1500.0483667	1316.6666693	n/a	n/a	n/a	n/a	n/a	n/a	n/a	"2020-11-05 14:03:50.332597"	"2020-11-05 14:03:51.835712"	34	5.98243051666667
"S201105"	"Response_Inhibition"	"LEFT"	"LEFT"	480.252799999903	533.3333344	n/a	n/a	n/a	n/a	n/a	n/a	n/a	"2020-11-05 14:03:52.378657"	"2020-11-05 14:03:53.068584"	35	5.98243051666667
"S201105"	"Response_Inhibition"	"LEFT"	"LEFT"	527.833200000032	650.0000013	n/a	n/a	n/a	n/a	n/a	n/a	n/a	"2020-11-05 14:03:53.731066"	"2020-11-05 14:03:54.466469"	36	5.98243051666667
"S201105"	"Response_Inhibition"	"RIGHT"	"RIGHT"	343.487699999969	1200.0000024	n/a	n/a	n/a	n/a	n/a	n/a	n/a	"2020-11-05 14:03:55.674940"	"2020-11-05 14:03:56.226673"	37	5.98243051666667
"S201105"	"Response_Inhibition"	"RIGHT"	"Time_Max_Exceeded"	1500.05416690003	583.3333345	n/a	n/a	n/a	n/a	n/a	n/a	n/a	"2020-11-05 14:03:56.818220"	"2020-11-05 14:03:58.322325"	38	5.98243051666667
"S201105"	"Response_Inhibition"	"LEFT"	"Time_Max_Exceeded"	1500.05770020005	1250.0000025	n/a	n/a	n/a	n/a	n/a	n/a	n/a	"2020-11-05 14:03:59.581131"	"2020-11-05 14:04:01.085235"	39	5.98243051666667
"S201105"	"Response_Inhibition"	"RIGHT"	"Time_Max_Exceeded"	1500.04700030002	916.6666685	n/a	n/a	n/a	n/a	n/a	n/a	n/a	"2020-11-05 14:04:02.012755"	"2020-11-05 14:04:03.515807"	40	5.98243051666667
"S201105"	"Response_Inhibition"	"LEFT"	"LEFT"	490.94690000004	1466.6666696	n/a	n/a	n/a	n/a	n/a	n/a	n/a	"2020-11-05 14:04:04.991525"	"2020-11-05 14:04:05.691897"	41	5.98243051666667
"S201105"	"Response_Inhibition"	"RIGHT"	"Time_Max_Exceeded"	1500.07676679995	1416.6666695	n/a	n/a	n/a	n/a	n/a	n/a	n/a	"2020-11-05 14:04:07.117049"	"2020-11-05 14:04:08.621057"	42	5.98243051666667
"S201105"	"Response_Inhibition"	"LEFT"	"LEFT"	525.517600000057	1383.3333361	n/a	n/a	n/a	n/a	n/a	n/a	n/a	"2020-11-05 14:04:10.012879"	"2020-11-05 14:04:10.745946"	43	5.98243051666667
"S201105"	"Response_Inhibition"	"LEFT"	"Time_Max_Exceeded"	1500.05896700001	533.3333344	n/a	n/a	n/a	n/a	n/a	n/a	n/a	"2020-11-05 14:04:11.288155"	"2020-11-05 14:04:12.791796"	44	5.98243051666667
"S201105"	"Response_Inhibition"	"LEFT"	"LEFT"	510.595067300004	783.3333349	n/a	n/a	n/a	n/a	n/a	n/a	n/a	"2020-11-05 14:04:13.584969"	"2020-11-05 14:04:14.306927"	45	5.98243051666667
"S201105"	"Response_Inhibition"	"RIGHT"	"RIGHT"	903.070200000002	600.0000012	n/a	n/a	n/a	n/a	n/a	n/a	n/a	"2020-11-05 14:04:14.915299"	"2020-11-05 14:04:16.028296"	46	5.98243051666667
"S201105"	"Response_Inhibition"	"LEFT"	"LEFT"	520.793899999944	916.6666685	n/a	n/a	n/a	n/a	n/a	n/a	n/a	"2020-11-05 14:04:16.954251"	"2020-11-05 14:04:17.683209"	47	5.98243051666667
"S201105"	"Response_Inhibition"	"LEFT"	"Time_Max_Exceeded"	1500.05870040002	1150.0000023	n/a	n/a	n/a	n/a	n/a	n/a	n/a	"2020-11-05 14:04:18.841812"	"2020-11-05 14:04:20.344965"	48	5.98243051666667
"S201105"	"Response_Inhibition"	"LEFT"	"LEFT"	466.007500000046	1316.6666693	n/a	n/a	n/a	n/a	n/a	n/a	n/a	"2020-11-05 14:04:21.672407"	"2020-11-05 14:04:22.347308"	49	5.98243051666667
"S201105"	"Response_Inhibition"	"RIGHT"	"RIGHT"	873.505199999954	933.3333352	n/a	n/a	n/a	n/a	n/a	n/a	n/a	"2020-11-05 14:04:23.289665"	"2020-11-05 14:04:24.371124"	50	5.98243051666667
"S201105"	"Response_Inhibition"	"LEFT"	"Time_Max_Exceeded"	1500.06036680001	1166.666669	n/a	n/a	n/a	n/a	n/a	n/a	n/a	"2020-11-05 14:04:25.547055"	"2020-11-05 14:04:27.051145"	51	5.98243051666667
"S201105"	"Response_Inhibition"	"RIGHT"	"RIGHT"	402.723100000003	900.0000018	n/a	n/a	n/a	n/a	n/a	n/a	n/a	"2020-11-05 14:04:27.960627"	"2020-11-05 14:04:28.570591"	52	5.98243051666667
"S201105"	"Response_Inhibition"	"LEFT"	"LEFT"	347.207700100058	1416.6666695	n/a	n/a	n/a	n/a	n/a	n/a	n/a	"2020-11-05 14:04:29.996221"	"2020-11-05 14:04:30.555181"	53	5.98243051666667
"S201105"	"Response_Inhibition"	"RIGHT"	"RIGHT"	578.337300000044	900.0000018	n/a	n/a	n/a	n/a	n/a	n/a	n/a	"2020-11-05 14:04:31.464257"	"2020-11-05 14:04:32.253010"	54	5.98243051666667
"S201105"	"Response_Inhibition"	"RIGHT"	"RIGHT"	589.290699999992	783.3333349	n/a	n/a	n/a	n/a	n/a	n/a	n/a	"2020-11-05 14:04:33.044933"	"2020-11-05 14:04:33.841802"	55	5.98243051666667
"S201105"	"Response_Inhibition"	"RIGHT"	"RIGHT"	559.223999999972	1216.6666691	n/a	n/a	n/a	n/a	n/a	n/a	n/a	"2020-11-05 14:04:35.067979"	"2020-11-05 14:04:35.834971"	56	5.98243051666667
"S201105"	"Response_Inhibition"	"LEFT"	"LEFT"	823.13750000003	1000.000002	n/a	n/a	n/a	n/a	n/a	n/a	n/a	"2020-11-05 14:04:36.843743"	"2020-11-05 14:04:37.873764"	57	5.98243051666667
"S201105"	"Response_Inhibition"	"LEFT"	"Time_Max_Exceeded"	1500.09270060003	833.333335	n/a	n/a	n/a	n/a	n/a	n/a	n/a	"2020-11-05 14:04:38.715316"	"2020-11-05 14:04:40.218871"	58	5.98243051666667
"S201105"	"Response_Inhibition"	"LEFT"	"LEFT"	591.383400000041	1183.3333357	n/a	n/a	n/a	n/a	n/a	n/a	n/a	"2020-11-05 14:04:41.411258"	"2020-11-05 14:04:42.209526"	59	5.98243051666667
"S201105"	"Response_Inhibition"	"RIGHT"	"RIGHT"	446.214199999986	833.333335	n/a	n/a	n/a	n/a	n/a	n/a	n/a	"2020-11-05 14:04:43.052233"	"2020-11-05 14:04:43.707150"	60	5.98243051666667
"S201105"	"Response_Inhibition"	"LEFT"	"LEFT"	751.593000000071	733.3333348	n/a	n/a	n/a	n/a	n/a	n/a	n/a	"2020-11-05 14:04:44.451327"	"2020-11-05 14:04:45.411714"	61	5.98243051666667
"S201105"	"Response_Inhibition"	"RIGHT"	"RIGHT"	421.413899999948	816.6666683	n/a	n/a	n/a	n/a	n/a	n/a	n/a	"2020-11-05 14:04:46.236736"	"2020-11-05 14:04:46.865603"	62	5.98243051666667
"S201105"	"Response_Inhibition"	"RIGHT"	"RIGHT"	477.975799999967	666.666668	n/a	n/a	n/a	n/a	n/a	n/a	n/a	"2020-11-05 14:04:47.541035"	"2020-11-05 14:04:48.226741"	63	5.98243051666667
"S201105"	"Response_Inhibition"	"RIGHT"	"RIGHT"	453.244200000086	1250.0000025	n/a	n/a	n/a	n/a	n/a	n/a	n/a	"2020-11-05 14:04:49.485405"	"2020-11-05 14:04:50.147172"	64	5.98243051666667
"S201105"	"Response_Inhibition"	"LEFT"	"LEFT"	530.816999999956	500.000001	n/a	n/a	n/a	n/a	n/a	n/a	n/a	"2020-11-05 14:04:50.656017"	"2020-11-05 14:04:51.394581"	65	5.98243051666667
"S201105"	"Response_Inhibition"	"LEFT"	"Time_Max_Exceeded"	1500.06823349994	900.0000018	n/a	n/a	n/a	n/a	n/a	n/a	n/a	"2020-11-05 14:04:52.302699"	"2020-11-05 14:04:53.806780"	66	5.98243051666667
"S201105"	"Response_Inhibition"	"LEFT"	"Time_Max_Exceeded"	1500.05896680004	1083.3333355	n/a	n/a	n/a	n/a	n/a	n/a	n/a	"2020-11-05 14:04:54.899002"	"2020-11-05 14:04:56.401746"	67	5.98243051666667
"S201105"	"Response_Inhibition"	"LEFT"	"LEFT"	467.649699999924	700.0000014	n/a	n/a	n/a	n/a	n/a	n/a	n/a	"2020-11-05 14:04:57.111298"	"2020-11-05 14:04:57.786794"	68	5.98243051666667
"S201105"	"Response_Inhibition"	"RIGHT"	"RIGHT"	379.321933600032	783.3333349	n/a	n/a	n/a	n/a	n/a	n/a	n/a	"2020-11-05 14:04:58.579908"	"2020-11-05 14:04:59.170392"	69	5.98243051666667
"S201105"	"Response_Inhibition"	"RIGHT"	"RIGHT"	577.050500000041	1366.6666694	n/a	n/a	n/a	n/a	n/a	n/a	n/a	"2020-11-05 14:05:00.546077"	"2020-11-05 14:05:01.330593"	70	5.98243051666667
"S201105"	"Response_Inhibition"	"LEFT"	"Time_Max_Exceeded"	1500.04723380001	1050.0000021	n/a	n/a	n/a	n/a	n/a	n/a	n/a	"2020-11-05 14:05:02.390162"	"2020-11-05 14:05:03.893322"	71	5.98243051666667
"S201105"	"Response_Inhibition"	"LEFT"	"LEFT"	532.981999999947	950.0000019	n/a	n/a	n/a	n/a	n/a	n/a	n/a	"2020-11-05 14:05:04.854150"	"2020-11-05 14:05:05.595242"	72	5.98243051666667
"S201105"	"Response_Inhibition"	"LEFT"	"Time_Max_Exceeded"	1500.05586699994	1366.6666694	n/a	n/a	n/a	n/a	n/a	n/a	n/a	"2020-11-05 14:05:06.972594"	"2020-11-05 14:05:08.476112"	73	5.98243051666667
"S201105"	"Response_Inhibition"	"LEFT"	"LEFT"	500.447200000053	1033.3333354	n/a	n/a	n/a	n/a	n/a	n/a	n/a	"2020-11-05 14:05:09.518040"	"2020-11-05 14:05:10.226830"	74	5.98243051666667
"S201105"	"Response_Inhibition"	"RIGHT"	"RIGHT"	624.103099999957	733.3333348	n/a	n/a	n/a	n/a	n/a	n/a	n/a	"2020-11-05 14:05:10.970821"	"2020-11-05 14:05:11.802367"	75	5.98243051666667
"S201105"	"Response_Inhibition"	"RIGHT"	"RIGHT"	560.520600000018	950.0000019	n/a	n/a	n/a	n/a	n/a	n/a	n/a	"2020-11-05 14:05:12.761863"	"2020-11-05 14:05:13.534541"	76	5.98243051666667
"S201105"	"Response_Inhibition"	"LEFT"	"Time_Max_Exceeded"	1500.08976690007	716.6666681	n/a	n/a	n/a	n/a	n/a	n/a	n/a	"2020-11-05 14:05:14.260167"	"2020-11-05 14:05:15.763707"	77	5.98243051666667
"S201105"	"Response_Inhibition"	"RIGHT"	"Time_Max_Exceeded"	1500.05720009995	1500.000003	n/a	n/a	n/a	n/a	n/a	n/a	n/a	"2020-11-05 14:05:17.275489"	"2020-11-05 14:05:18.778545"	78	5.98243051666667
"S201105"	"Response_Inhibition"	"RIGHT"	"RIGHT"	554.765399999951	866.6666684	n/a	n/a	n/a	n/a	n/a	n/a	n/a	"2020-11-05 14:05:19.655448"	"2020-11-05 14:05:20.419197"	79	5.98243051666667
"S201105"	"Response_Inhibition"	"LEFT"	"Time_Max_Exceeded"	1500.05716720004	1433.3333362	n/a	n/a	n/a	n/a	n/a	n/a	n/a	"2020-11-05 14:05:21.861453"	"2020-11-05 14:05:23.364380"	80	5.98243051666667
"S201105"	"Response_Inhibition"	"LEFT"	"LEFT"	968.709099999955	1100.0000022	n/a	n/a	n/a	n/a	n/a	n/a	n/a	"2020-11-05 14:05:24.474223"	"2020-11-05 14:05:25.650263"	81	5.98243051666667
"S201105"	"Response_Inhibition"	"RIGHT"	"RIGHT"	561.050799999975	766.6666682	n/a	n/a	n/a	n/a	n/a	n/a	n/a	"2020-11-05 14:05:26.425833"	"2020-11-05 14:05:27.194532"	82	5.98243051666667
"S201105"	"Response_Inhibition"	"LEFT"	"Time_Max_Exceeded"	1500.23780039999	750.0000015	n/a	n/a	n/a	n/a	n/a	n/a	n/a	"2020-11-05 14:05:27.953415"	"2020-11-05 14:05:29.456084"	83	5.98243051666667
"S201105"	"Response_Inhibition"	"RIGHT"	"RIGHT"	615.962699999955	633.3333346	n/a	n/a	n/a	n/a	n/a	n/a	n/a	"2020-11-05 14:05:30.098882"	"2020-11-05 14:05:30.925693"	84	5.98243051666667
"S201105"	"Response_Inhibition"	"RIGHT"	"RIGHT"	550.276899999972	1333.333336	n/a	n/a	n/a	n/a	n/a	n/a	n/a	"2020-11-05 14:05:32.268784"	"2020-11-05 14:05:33.027027"	85	5.98243051666667
"S201105"	"Response_Inhibition"	"RIGHT"	"RIGHT"	458.786099999998	1300.0000026	n/a	n/a	n/a	n/a	n/a	n/a	n/a	"2020-11-05 14:05:34.335741"	"2020-11-05 14:05:35.005172"	86	5.98243051666667
"S201105"	"Response_Inhibition"	"RIGHT"	"RIGHT"	521.103400000015	850.0000017	n/a	n/a	n/a	n/a	n/a	n/a	n/a	"2020-11-05 14:05:35.865540"	"2020-11-05 14:05:36.595335"	87	5.98243051666667
"S201105"	"Response_Inhibition"	"LEFT"	"LEFT"	424.69820000008	1350.0000027	n/a	n/a	n/a	n/a	n/a	n/a	n/a	"2020-11-05 14:05:37.954284"	"2020-11-05 14:05:38.587420"	88	5.98243051666667
"S201105"	"Response_Inhibition"	"RIGHT"	"RIGHT"	411.619567200021	1000.000002	n/a	n/a	n/a	n/a	n/a	n/a	n/a	"2020-11-05 14:05:39.596162"	"2020-11-05 14:05:40.219873"	89	5.98243051666667
"S201105"	"Response_Inhibition"	"LEFT"	"LEFT"	713.302499999941	1116.6666689	n/a	n/a	n/a	n/a	n/a	n/a	n/a	"2020-11-05 14:05:41.345510"	"2020-11-05 14:05:42.266403"	90	5.98243051666667
"S201105"	"Response_Inhibition"	"LEFT"	"LEFT"	492.869999999925	1466.6666696	n/a	n/a	n/a	n/a	n/a	n/a	n/a	"2020-11-05 14:05:43.741599"	"2020-11-05 14:05:44.443772"	91	5.98243051666667
"S201105"	"Response_Inhibition"	"RIGHT"	"Time_Max_Exceeded"	1500.05443390009	1183.3333357	n/a	n/a	n/a	n/a	n/a	n/a	n/a	"2020-11-05 14:05:45.635810"	"2020-11-05 14:05:47.139519"	92	5.98243051666667
"S201105"	"Response_Inhibition"	"RIGHT"	"RIGHT"	664.834400000018	716.6666681	n/a	n/a	n/a	n/a	n/a	n/a	n/a	"2020-11-05 14:05:47.865760"	"2020-11-05 14:05:48.744654"	93	5.98243051666667
"S201105"	"Response_Inhibition"	"RIGHT"	"RIGHT"	644.947300000013	1116.6666689	n/a	n/a	n/a	n/a	n/a	n/a	n/a	"2020-11-05 14:05:49.870175"	"2020-11-05 14:05:50.722619"	94	5.98243051666667
"S201105"	"Response_Inhibition"	"LEFT"	"Time_Max_Exceeded"	1500.05316710001	850.0000017	n/a	n/a	n/a	n/a	n/a	n/a	n/a	"2020-11-05 14:05:51.581644"	"2020-11-05 14:05:53.084865"	95	5.98243051666667
"S201105"	"Response_Inhibition"	"RIGHT"	"RIGHT"	482.071299999916	650.0000013	n/a	n/a	n/a	n/a	n/a	n/a	n/a	"2020-11-05 14:05:53.744326"	"2020-11-05 14:05:54.434550"	96	5.98243051666667
"S201105"	"Response_Inhibition"	"LEFT"	"LEFT"	584.172399999943	766.6666682	n/a	n/a	n/a	n/a	n/a	n/a	n/a	"2020-11-05 14:05:55.210677"	"2020-11-05 14:05:56.002696"	97	5.98243051666667
"S201105"	"Response_Inhibition"	"LEFT"	"LEFT"	671.928999999977	1416.6666695	n/a	n/a	n/a	n/a	n/a	n/a	n/a	"2020-11-05 14:05:57.427540"	"2020-11-05 14:05:58.307226"	98	5.98243051666667
"S201105"	"Response_Inhibition"	"RIGHT"	"RIGHT"	603.418600000055	1466.6666696	n/a	n/a	n/a	n/a	n/a	n/a	n/a	"2020-11-05 14:05:59.783458"	"2020-11-05 14:06:00.594804"	99	5.98243051666667
"S201105"	"Response_Inhibition"	"LEFT"	"LEFT"	457.18896729993	1216.6666691	n/a	n/a	n/a	n/a	n/a	n/a	n/a	"2020-11-05 14:06:01.821825"	"2020-11-05 14:06:02.490633"	100	5.98243051666667
"S201105"	"Response_Inhibition"	"LEFT"	"LEFT"	655.77780000001	1366.6666694	n/a	n/a	n/a	n/a	n/a	n/a	n/a	"2020-11-05 14:06:03.866971"	"2020-11-05 14:06:04.730848"	101	5.98243051666667
"S201105"	"Response_Inhibition"	"LEFT"	"LEFT"	578.125300000011	1133.3333356	n/a	n/a	n/a	n/a	n/a	n/a	n/a	"2020-11-05 14:06:05.872521"	"2020-11-05 14:06:06.658725"	102	5.98243051666667
"S201105"	"Response_Inhibition"	"RIGHT"	"Time_Max_Exceeded"	1500.04756669993	850.0000017	n/a	n/a	n/a	n/a	n/a	n/a	n/a	"2020-11-05 14:06:07.517562"	"2020-11-05 14:06:09.020700"	103	5.98243051666667
"S201105"	"Response_Inhibition"	"RIGHT"	"RIGHT"	562.688299999991	1033.3333354	n/a	n/a	n/a	n/a	n/a	n/a	n/a	"2020-11-05 14:06:10.063429"	"2020-11-05 14:06:10.834560"	104	5.98243051666667
"S201105"	"Response_Inhibition"	"LEFT"	"Time_Max_Exceeded"	1500.05636689995	966.6666686	n/a	n/a	n/a	n/a	n/a	n/a	n/a	"2020-11-05 14:06:11.810215"	"2020-11-05 14:06:13.313536"	105	5.98243051666667
"S201105"	"Response_Inhibition"	"LEFT"	"LEFT"	563.502699999958	1500.000003	n/a	n/a	n/a	n/a	n/a	n/a	n/a	"2020-11-05 14:06:14.823313"	"2020-11-05 14:06:15.595207"	106	5.98243051666667
"S201105"	"Response_Inhibition"	"RIGHT"	"RIGHT"	566.435599999977	1016.6666687	n/a	n/a	n/a	n/a	n/a	n/a	n/a	"2020-11-05 14:06:16.620551"	"2020-11-05 14:06:17.394534"	107	5.98243051666667
"S201105"	"Response_Inhibition"	"RIGHT"	"RIGHT"	948.974600000042	616.6666679	n/a	n/a	n/a	n/a	n/a	n/a	n/a	"2020-11-05 14:06:18.021861"	"2020-11-05 14:06:19.179312"	108	5.98243051666667
"S201105"	"Response_Inhibition"	"RIGHT"	"Time_Max_Exceeded"	1500.06053349997	1050.0000021	n/a	n/a	n/a	n/a	n/a	n/a	n/a	"2020-11-05 14:06:20.238503"	"2020-11-05 14:06:21.742088"	109	5.98243051666667
"S201105"	"Response_Inhibition"	"RIGHT"	"RIGHT"	483.550499999978	1000.000002	n/a	n/a	n/a	n/a	n/a	n/a	n/a	"2020-11-05 14:06:22.751435"	"2020-11-05 14:06:23.442625"	110	5.98243051666667
"S201105"	"Response_Inhibition"	"RIGHT"	"RIGHT"	583.897500000035	966.6666686	n/a	n/a	n/a	n/a	n/a	n/a	n/a	"2020-11-05 14:06:24.419088"	"2020-11-05 14:06:25.210593"	111	5.98243051666667
"S201105"	"Response_Inhibition"	"LEFT"	"LEFT"	576.080899999965	783.3333349	n/a	n/a	n/a	n/a	n/a	n/a	n/a	"2020-11-05 14:06:26.002510"	"2020-11-05 14:06:26.787930"	112	5.98243051666667
"S201105"	"Response_Inhibition"	"RIGHT"	"RIGHT"	479.731000000015	533.3333344	n/a	n/a	n/a	n/a	n/a	n/a	n/a	"2020-11-05 14:06:27.330664"	"2020-11-05 14:06:28.019333"	113	5.98243051666667
"S201105"	"Response_Inhibition"	"RIGHT"	"Time_Max_Exceeded"	1500.05466719999	683.3333347	n/a	n/a	n/a	n/a	n/a	n/a	n/a	"2020-11-05 14:06:28.712505"	"2020-11-05 14:06:30.216091"	114	5.98243051666667
"S201105"	"Response_Inhibition"	"RIGHT"	"Time_Max_Exceeded"	1500.05733359998	683.3333347	n/a	n/a	n/a	n/a	n/a	n/a	n/a	"2020-11-05 14:06:30.909759"	"2020-11-05 14:06:32.414014"	115	5.98243051666667
"S201105"	"Response_Inhibition"	"RIGHT"	"Time_Max_Exceeded"	1500.06233389999	533.3333344	n/a	n/a	n/a	n/a	n/a	n/a	n/a	"2020-11-05 14:06:32.956093"	"2020-11-05 14:06:34.459124"	116	5.98243051666667
"S201105"	"Response_Inhibition"	"RIGHT"	"RIGHT"	460.69	1416.6666695	n/a	n/a	n/a	n/a	n/a	n/a	n/a	"2020-11-05 14:06:35.885590"	"2020-11-05 14:06:36.554802"	117	5.98243051666667
"S201105"	"Response_Inhibition"	"RIGHT"	"Time_Max_Exceeded"	1500.05280049993	1350.0000027	n/a	n/a	n/a	n/a	n/a	n/a	n/a	"2020-11-05 14:06:37.914106"	"2020-11-05 14:06:39.417654"	118	5.98243051666667
"S201105"	"Response_Inhibition"	"LEFT"	"LEFT"	562.821099999951	683.3333347	n/a	n/a	n/a	n/a	n/a	n/a	n/a	"2020-11-05 14:06:40.111702"	"2020-11-05 14:06:40.882685"	119	5.98243051666667
"S201105"	"Response_Inhibition"	"LEFT"	"LEFT"	579.949400000032	1066.6666688	n/a	n/a	n/a	n/a	n/a	n/a	n/a	"2020-11-05 14:06:41.958886"	"2020-11-05 14:06:42.747331"	120	5.98243051666667
"S201105"	"Response_Inhibition"	"LEFT"	"LEFT"	534.242500000005	600.0000012	n/a	n/a	n/a	n/a	n/a	n/a	n/a	"2020-11-05 14:06:43.356418"	"2020-11-05 14:06:44.099166"	121	5.98243051666667
"S201105"	"Response_Inhibition"	"RIGHT"	"RIGHT"	582.549099999937	1400.0000028	n/a	n/a	n/a	n/a	n/a	n/a	n/a	"2020-11-05 14:06:45.507894"	"2020-11-05 14:06:46.299210"	122	5.98243051666667
"S201105"	"Response_Inhibition"	"LEFT"	"LEFT"	464.597499999968	1333.333336	n/a	n/a	n/a	n/a	n/a	n/a	n/a	"2020-11-05 14:06:47.641612"	"2020-11-05 14:06:48.314693"	123	5.98243051666667
"S201105"	"Response_Inhibition"	"LEFT"	"LEFT"	508.197699999982	1450.0000029	n/a	n/a	n/a	n/a	n/a	n/a	n/a	"2020-11-05 14:06:49.774642"	"2020-11-05 14:06:50.491133"	124	5.98243051666667
"S201105"	"Response_Inhibition"	"LEFT"	"LEFT"	569.649299999924	1050.0000021	n/a	n/a	n/a	n/a	n/a	n/a	n/a	"2020-11-05 14:06:51.552654"	"2020-11-05 14:06:52.332175"	125	5.98243051666667
"S201105"	"Response_Inhibition"	"LEFT"	"LEFT"	519.500400000084	733.3333348	n/a	n/a	n/a	n/a	n/a	n/a	n/a	"2020-11-05 14:06:53.075557"	"2020-11-05 14:06:53.804166"	126	5.98243051666667
"S201105"	"Response_Inhibition"	"LEFT"	"LEFT"	318.231933799974	1300.0000026	n/a	n/a	n/a	n/a	n/a	n/a	n/a	"2020-11-05 14:06:55.113341"	"2020-11-05 14:06:55.643440"	127	5.98243051666667
"S201105"	"Response_Inhibition"	"LEFT"	"Time_Max_Exceeded"	1500.06000029998	550.0000011	n/a	n/a	n/a	n/a	n/a	n/a	n/a	"2020-11-05 14:06:56.203689"	"2020-11-05 14:06:57.706996"	128	5.98243051666667
"S201105"	"Response_Inhibition"	"RIGHT"	"RIGHT"	599.857499999985	750.0000015	n/a	n/a	n/a	n/a	n/a	n/a	n/a	"2020-11-05 14:06:58.466506"	"2020-11-05 14:06:59.275945"	129	5.98243051666667
"S201105"	"Response_Inhibition"	"LEFT"	"LEFT"	546.003700000028	900.0000018	n/a	n/a	n/a	n/a	n/a	n/a	n/a	"2020-11-05 14:07:00.184422"	"2020-11-05 14:07:00.941196"	130	5.98243051666667
"S201105"	"Response_Inhibition"	"RIGHT"	"RIGHT"	1021.17399999997	583.3333345	n/a	n/a	n/a	n/a	n/a	n/a	n/a	"2020-11-05 14:07:01.533758"	"2020-11-05 14:07:02.762431"	131	5.98243051666667
"S201105"	"Response_Inhibition"	"RIGHT"	"RIGHT"	571.022299999981	500.000001	n/a	n/a	n/a	n/a	n/a	n/a	n/a	"2020-11-05 14:07:03.271685"	"2020-11-05 14:07:04.056193"	132	5.98243051666667
"S201105"	"Response_Inhibition"	"RIGHT"	"RIGHT"	403.033599999958	1166.666669	n/a	n/a	n/a	n/a	n/a	n/a	n/a	"2020-11-05 14:07:05.231932"	"2020-11-05 14:07:05.843206"	133	5.98243051666667
"S201105"	"Response_Inhibition"	"RIGHT"	"Time_Max_Exceeded"	1500.05620039997	883.3333351	n/a	n/a	n/a	n/a	n/a	n/a	n/a	"2020-11-05 14:07:06.735890"	"2020-11-05 14:07:08.239264"	134	5.98243051666667
"S201105"	"Response_Inhibition"	"LEFT"	"LEFT"	593.498199999999	800.0000016	n/a	n/a	n/a	n/a	n/a	n/a	n/a	"2020-11-05 14:07:09.049300"	"2020-11-05 14:07:09.851137"	135	5.98243051666667
"S201105"	"Response_Inhibition"	"LEFT"	"LEFT"	420.965999999908	633.3333346	n/a	n/a	n/a	n/a	n/a	n/a	n/a	"2020-11-05 14:07:10.494075"	"2020-11-05 14:07:11.122963"	136	5.98243051666667
"S201105"	"Response_Inhibition"	"RIGHT"	"RIGHT"	664.796199999955	950.0000019	n/a	n/a	n/a	n/a	n/a	n/a	n/a	"2020-11-05 14:07:12.082065"	"2020-11-05 14:07:12.956190"	137	5.98243051666667
"S201105"	"Response_Inhibition"	"RIGHT"	"Time_Max_Exceeded"	1500.09950000003	800.0000016	n/a	n/a	n/a	n/a	n/a	n/a	n/a	"2020-11-05 14:07:13.765225"	"2020-11-05 14:07:15.265482"	138	5.98243051666667
"S201105"	"Response_Inhibition"	"LEFT"	"LEFT"	396.991500000013	1200.0000024	n/a	n/a	n/a	n/a	n/a	n/a	n/a	"2020-11-05 14:07:16.478148"	"2020-11-05 14:07:17.082874"	139	5.98243051666667
"S201105"	"Response_Inhibition"	"RIGHT"	"RIGHT"	327.574933699987	1100.0000022	n/a	n/a	n/a	n/a	n/a	n/a	n/a	"2020-11-05 14:07:18.191740"	"2020-11-05 14:07:18.730408"	140	5.98243051666667
"S201105"	"Response_Inhibition"	"LEFT"	"LEFT"	515.745400000014	1283.3333359	n/a	n/a	n/a	n/a	n/a	n/a	n/a	"2020-11-05 14:07:20.022738"	"2020-11-05 14:07:20.750500"	141	5.98243051666667
"S201105"	"Response_Inhibition"	"LEFT"	"Time_Max_Exceeded"	1500.0544337	666.666668	n/a	n/a	n/a	n/a	n/a	n/a	n/a	"2020-11-05 14:07:21.426479"	"2020-11-05 14:07:22.930207"	142	5.98243051666667
"S201105"	"Response_Inhibition"	"LEFT"	"LEFT"	599.125299999969	583.3333345	n/a	n/a	n/a	n/a	n/a	n/a	n/a	"2020-11-05 14:07:23.523332"	"2020-11-05 14:07:24.331204"	143	5.98243051666667
"S201105"	"Response_Inhibition"	"RIGHT"	"RIGHT"	570.028600000001	1316.6666693	n/a	n/a	n/a	n/a	n/a	n/a	n/a	"2020-11-05 14:07:25.656724"	"2020-11-05 14:07:26.435456"	144	5.98243051666667
"S201105"	"Response_Inhibition"	"RIGHT"	"RIGHT"	564.254499999947	1266.6666692	n/a	n/a	n/a	n/a	n/a	n/a	n/a	"2020-11-05 14:07:27.710300"	"2020-11-05 14:07:28.483158"	145	5.98243051666667
"S201105"	"Response_Inhibition"	"LEFT"	"LEFT"	707.39679999997	683.3333347	n/a	n/a	n/a	n/a	n/a	n/a	n/a	"2020-11-05 14:07:29.175346"	"2020-11-05 14:07:30.091219"	146	5.98243051666667
"S201105"	"Response_Inhibition"	"RIGHT"	"Time_Max_Exceeded"	1500.05493379998	1316.6666693	n/a	n/a	n/a	n/a	n/a	n/a	n/a	"2020-11-05 14:07:31.416360"	"2020-11-05 14:07:32.920310"	147	5.98243051666667
"S201105"	"Response_Inhibition"	"LEFT"	"LEFT"	432.284100000061	816.6666683	n/a	n/a	n/a	n/a	n/a	n/a	n/a	"2020-11-05 14:07:33.746288"	"2020-11-05 14:07:34.387751"	148	5.98243051666667
"S201105"	"Response_Inhibition"	"LEFT"	"Time_Max_Exceeded"	1500.05856709997	1483.3333363	n/a	n/a	n/a	n/a	n/a	n/a	n/a	"2020-11-05 14:07:35.879163"	"2020-11-05 14:07:37.383195"	149	5.98243051666667
"S201105"	"Response_Inhibition"	"LEFT"	"LEFT"	477.879699999903	1100.0000022	n/a	n/a	n/a	n/a	n/a	n/a	n/a	"2020-11-05 14:07:38.492894"	"2020-11-05 14:07:39.180271"	150	5.98243051666667
"S201105"	"Response_Inhibition"	"RIGHT"	"RIGHT"	754.272800000081	1450.0000029	n/a	n/a	n/a	n/a	n/a	n/a	n/a	"2020-11-05 14:07:40.640260"	"2020-11-05 14:07:41.602503"	151	5.98243051666667
"S201105"	"Response_Inhibition"	"RIGHT"	"Time_Max_Exceeded"	1500.06190049999	1066.6666688	n/a	n/a	n/a	n/a	n/a	n/a	n/a	"2020-11-05 14:07:42.677621"	"2020-11-05 14:07:44.181324"	152	5.98243051666667
"S201105"	"Response_Inhibition"	"LEFT"	"LEFT"	653.103099999953	1400.0000028	n/a	n/a	n/a	n/a	n/a	n/a	n/a	"2020-11-05 14:07:45.589931"	"2020-11-05 14:07:46.450372"	153	5.98243051666667
"S201105"	"Response_Inhibition"	"LEFT"	"Time_Max_Exceeded"	1500.04943370001	1016.6666687	n/a	n/a	n/a	n/a	n/a	n/a	n/a	"2020-11-05 14:07:47.475895"	"2020-11-05 14:07:48.979348"	154	5.98243051666667
"S201105"	"Response_Inhibition"	"LEFT"	"LEFT"	610.571199999981	883.3333351	n/a	n/a	n/a	n/a	n/a	n/a	n/a	"2020-11-05 14:07:49.872433"	"2020-11-05 14:07:50.691976"	155	5.98243051666667
"S201105"	"Response_Inhibition"	"LEFT"	"LEFT"	567.730600000004	516.6666677	n/a	n/a	n/a	n/a	n/a	n/a	n/a	"2020-11-05 14:07:51.218612"	"2020-11-05 14:07:51.995013"	156	5.98243051666667
"S201105"	"Response_Inhibition"	"RIGHT"	"RIGHT"	386.70019999995	516.6666677	n/a	n/a	n/a	n/a	n/a	n/a	n/a	"2020-11-05 14:07:52.519779"	"2020-11-05 14:07:53.113712"	157	5.98243051666667
"S201105"	"Response_Inhibition"	"RIGHT"	"RIGHT"	492.723700000056	700.0000014	n/a	n/a	n/a	n/a	n/a	n/a	n/a	"2020-11-05 14:07:53.821826"	"2020-11-05 14:07:54.522369"	158	5.98243051666667
"S201105"	"Response_Inhibition"	"LEFT"	"LEFT"	482.518099999993	933.3333352	n/a	n/a	n/a	n/a	n/a	n/a	n/a	"2020-11-05 14:07:55.464104"	"2020-11-05 14:07:56.154473"	159	5.98243051666667
"S201105"	"Response_Inhibition"	"LEFT"	"LEFT"	391.335600000048	1216.6666691	n/a	n/a	n/a	n/a	n/a	n/a	n/a	"2020-11-05 14:07:57.379200"	"2020-11-05 14:07:57.979581"	160	5.98243051666667
"S201105"	"Response_Selection"	"LEFT"	"LEFT"	354.982399999983	1266.6666692	n/a	n/a	n/a	n/a	n/a	n/a	n/a	"2020-11-05 13:59:55.223438"	"2020-11-05 13:59:55.786713"	1	2.97793843333333
"S201105"	"Response_Selection"	"LEFT"	"LEFT"	355.708099999958	883.3333351	n/a	n/a	n/a	n/a	n/a	n/a	n/a	"2020-11-05 13:59:56.678402"	"2020-11-05 13:59:57.242000"	2	2.97793843333333
"S201105"	"Response_Selection"	"LEFT"	"LEFT"	295.685600000013	983.3333353	n/a	n/a	n/a	n/a	n/a	n/a	n/a	"2020-11-05 13:59:58.235020"	"2020-11-05 13:59:58.737966"	3	2.97793843333333
"S201105"	"Response_Selection"	"LEFT"	"LEFT"	309.160700000007	1250.0000025	n/a	n/a	n/a	n/a	n/a	n/a	n/a	"2020-11-05 13:59:59.996961"	"2020-11-05 14:00:00.515115"	4	2.97793843333333
"S201105"	"Response_Selection"	"LEFT"	"LEFT"	280.873499999984	1350.0000027	n/a	n/a	n/a	n/a	n/a	n/a	n/a	"2020-11-05 14:00:01.873732"	"2020-11-05 14:00:02.365141"	5	2.97793843333333
"S201105"	"Response_Selection"	"LEFT"	"LEFT"	267.357500000003	800.0000016	n/a	n/a	n/a	n/a	n/a	n/a	n/a	"2020-11-05 14:00:03.175537"	"2020-11-05 14:00:03.650727"	6	2.97793843333333
"S201105"	"Response_Selection"	"RIGHT"	"RIGHT"	294.912100000033	1400.0000028	n/a	n/a	n/a	n/a	n/a	n/a	n/a	"2020-11-05 14:00:05.059123"	"2020-11-05 14:00:05.567144"	7	2.97793843333333
"S201105"	"Response_Selection"	"RIGHT"	"RIGHT"	262.51910000002	916.6666685	n/a	n/a	n/a	n/a	n/a	n/a	n/a	"2020-11-05 14:00:06.491869"	"2020-11-05 14:00:06.962610"	8	2.97793843333333
"S201105"	"Response_Selection"	"RIGHT"	"RIGHT"	352.628900000013	550.0000011	n/a	n/a	n/a	n/a	n/a	n/a	n/a	"2020-11-05 14:00:07.522135"	"2020-11-05 14:00:08.086485"	9	2.97793843333333
"S201105"	"Response_Selection"	"RIGHT"	"RIGHT"	281.298100000015	1250.0000025	n/a	n/a	n/a	n/a	n/a	n/a	n/a	"2020-11-05 14:00:09.345040"	"2020-11-05 14:00:09.834619"	10	2.97793843333333
"S201105"	"Response_Selection"	"RIGHT"	"RIGHT"	286.177900000041	1033.3333354	n/a	n/a	n/a	n/a	n/a	n/a	n/a	"2020-11-05 14:00:10.876374"	"2020-11-05 14:00:11.371275"	11	2.97793843333333
"S201105"	"Response_Selection"	"RIGHT"	"RIGHT"	282.751799999971	1500.000003	n/a	n/a	n/a	n/a	n/a	n/a	n/a	"2020-11-05 14:00:12.879649"	"2020-11-05 14:00:13.370410"	12	2.97793843333333
"S201105"	"Response_Selection"	"LEFT"	"LEFT"	300.776399999961	1033.3333354	n/a	n/a	n/a	n/a	n/a	n/a	n/a	"2020-11-05 14:00:14.413712"	"2020-11-05 14:00:14.922371"	13	2.97793843333333
"S201105"	"Response_Selection"	"RIGHT"	"RIGHT"	401.128099999994	966.6666686	n/a	n/a	n/a	n/a	n/a	n/a	n/a	"2020-11-05 14:00:15.897410"	"2020-11-05 14:00:16.506945"	14	2.97793843333333
"S201105"	"Response_Selection"	"RIGHT"	"RIGHT"	263.432000000023	783.3333349	n/a	n/a	n/a	n/a	n/a	n/a	n/a	"2020-11-05 14:00:17.299242"	"2020-11-05 14:00:17.770985"	15	2.97793843333333
"S201105"	"Response_Selection"	"LEFT"	"RIGHT"	258.326299999965	1500.000003	n/a	n/a	n/a	n/a	n/a	n/a	n/a	"2020-11-05 14:00:19.280154"	"2020-11-05 14:00:19.745687"	16	2.97793843333333
"S201105"	"Response_Selection"	"LEFT"	"LEFT"	334.477000000049	833.333335	n/a	n/a	n/a	n/a	n/a	n/a	n/a	"2020-11-05 14:00:20.587585"	"2020-11-05 14:00:21.136118"	17	2.97793843333333
"S201105"	"Response_Selection"	"LEFT"	"LEFT"	360.838799999954	1016.6666687	n/a	n/a	n/a	n/a	n/a	n/a	n/a	"2020-11-05 14:00:22.161706"	"2020-11-05 14:00:22.730597"	18	2.97793843333333
"S201105"	"Response_Selection"	"LEFT"	"LEFT"	290.172600000005	1133.3333356	n/a	n/a	n/a	n/a	n/a	n/a	n/a	"2020-11-05 14:00:23.871862"	"2020-11-05 14:00:24.370513"	19	2.97793843333333
"S201105"	"Response_Selection"	"RIGHT"	"RIGHT"	321.729300000015	1350.0000027	n/a	n/a	n/a	n/a	n/a	n/a	n/a	"2020-11-05 14:00:25.728787"	"2020-11-05 14:00:26.258879"	20	2.97793843333333
"S201105"	"Response_Selection"	"RIGHT"	"RIGHT"	400.88129999998	533.3333344	n/a	n/a	n/a	n/a	n/a	n/a	n/a	"2020-11-05 14:00:26.801428"	"2020-11-05 14:00:27.410972"	21	2.97793843333333
"S201105"	"Response_Selection"	"LEFT"	"LEFT"	292.418499999997	633.3333346	n/a	n/a	n/a	n/a	n/a	n/a	n/a	"2020-11-05 14:00:28.054256"	"2020-11-05 14:00:28.554452"	22	2.97793843333333
"S201105"	"Response_Selection"	"RIGHT"	"RIGHT"	280.332299999998	983.3333353	n/a	n/a	n/a	n/a	n/a	n/a	n/a	"2020-11-05 14:00:29.546168"	"2020-11-05 14:00:30.034585"	23	2.97793843333333
"S201105"	"Response_Selection"	"RIGHT"	"RIGHT"	317.50790000001	1016.6666687	n/a	n/a	n/a	n/a	n/a	n/a	n/a	"2020-11-05 14:00:31.061145"	"2020-11-05 14:00:31.587328"	24	2.97793843333333
"S201105"	"Response_Selection"	"LEFT"	"RIGHT"	257.874800000025	1083.3333355	n/a	n/a	n/a	n/a	n/a	n/a	n/a	"2020-11-05 14:00:32.681040"	"2020-11-05 14:00:33.146008"	25	2.97793843333333
"S201105"	"Response_Selection"	"RIGHT"	"RIGHT"	352.139699999952	800.0000016	n/a	n/a	n/a	n/a	n/a	n/a	n/a	"2020-11-05 14:00:33.954729"	"2020-11-05 14:00:34.515078"	26	2.97793843333333
"S201105"	"Response_Selection"	"LEFT"	"LEFT"	295.992500000011	733.3333348	n/a	n/a	n/a	n/a	n/a	n/a	n/a	"2020-11-05 14:00:35.258803"	"2020-11-05 14:00:35.763126"	27	2.97793843333333
"S201105"	"Response_Selection"	"LEFT"	"LEFT"	344.207799999992	1366.6666694	n/a	n/a	n/a	n/a	n/a	n/a	n/a	"2020-11-05 14:00:37.138673"	"2020-11-05 14:00:37.689683"	28	2.97793843333333
"S201105"	"Response_Selection"	"RIGHT"	"RIGHT"	305.149900000004	750.0000015	n/a	n/a	n/a	n/a	n/a	n/a	n/a	"2020-11-05 14:00:38.449122"	"2020-11-05 14:00:38.963476"	29	2.97793843333333
"S201105"	"Response_Selection"	"LEFT"	"LEFT"	282.199900000023	1300.0000026	n/a	n/a	n/a	n/a	n/a	n/a	n/a	"2020-11-05 14:00:40.271889"	"2020-11-05 14:00:40.763052"	30	2.97793843333333
"S201105"	"Response_Selection"	"LEFT"	"LEFT"	289.579500000002	933.3333352	n/a	n/a	n/a	n/a	n/a	n/a	n/a	"2020-11-05 14:00:41.705168"	"2020-11-05 14:00:42.201927"	31	2.97793843333333
"S201105"	"Response_Selection"	"RIGHT"	"RIGHT"	310.217399999999	1450.0000029	n/a	n/a	n/a	n/a	n/a	n/a	n/a	"2020-11-05 14:00:43.660586"	"2020-11-05 14:00:44.178815"	32	2.97793843333333
"S201105"	"Response_Selection"	"LEFT"	"LEFT"	264.219400000002	966.6666686	n/a	n/a	n/a	n/a	n/a	n/a	n/a	"2020-11-05 14:00:45.154204"	"2020-11-05 14:00:45.627352"	33	2.97793843333333
"S201105"	"Response_Selection"	"RIGHT"	"RIGHT"	305.714800000032	1316.6666693	n/a	n/a	n/a	n/a	n/a	n/a	n/a	"2020-11-05 14:00:46.952991"	"2020-11-05 14:00:47.465944"	34	2.97793843333333
"S201105"	"Response_Selection"	"LEFT"	"LEFT"	314.087799999982	750.0000015	n/a	n/a	n/a	n/a	n/a	n/a	n/a	"2020-11-05 14:00:48.224545"	"2020-11-05 14:00:48.747141"	35	2.97793843333333
"S201105"	"Response_Selection"	"RIGHT"	"RIGHT"	324.493899999993	866.6666684	n/a	n/a	n/a	n/a	n/a	n/a	n/a	"2020-11-05 14:00:49.622161"	"2020-11-05 14:00:50.153747"	36	2.97793843333333
"S201105"	"Response_Selection"	"RIGHT"	"LEFT"	469.854499999997	833.333335	n/a	n/a	n/a	n/a	n/a	n/a	n/a	"2020-11-05 14:00:50.996648"	"2020-11-05 14:00:51.674723"	37	2.97793843333333
"S201105"	"Response_Selection"	"RIGHT"	"RIGHT"	315.903800000001	683.3333347	n/a	n/a	n/a	n/a	n/a	n/a	n/a	"2020-11-05 14:00:52.366380"	"2020-11-05 14:00:52.891193"	38	2.97793843333333
"S201105"	"Response_Selection"	"RIGHT"	"RIGHT"	358.837999999992	1200.0000024	n/a	n/a	n/a	n/a	n/a	n/a	n/a	"2020-11-05 14:00:54.100061"	"2020-11-05 14:00:54.666940"	39	2.97793843333333
"S201105"	"Response_Selection"	"LEFT"	"LEFT"	446.88160000004	600.0000012	n/a	n/a	n/a	n/a	n/a	n/a	n/a	"2020-11-05 14:00:55.275711"	"2020-11-05 14:00:55.930609"	40	2.97793843333333
"S201105"	"Response_Selection"	"LEFT"	"LEFT"	485.000700000001	866.6666684	n/a	n/a	n/a	n/a	n/a	n/a	n/a	"2020-11-05 14:00:56.805316"	"2020-11-05 14:00:57.497649"	41	2.97793843333333
"S201105"	"Response_Selection"	"LEFT"	"LEFT"	343.813300000022	1216.6666691	n/a	n/a	n/a	n/a	n/a	n/a	n/a	"2020-11-05 14:00:58.722847"	"2020-11-05 14:00:59.274979"	42	2.97793843333333
"S201105"	"Response_Selection"	"RIGHT"	"RIGHT"	372.981999999979	650.0000013	n/a	n/a	n/a	n/a	n/a	n/a	n/a	"2020-11-05 14:00:59.933634"	"2020-11-05 14:01:00.514688"	43	2.97793843333333
"S201105"	"Response_Selection"	"RIGHT"	"RIGHT"	294.703099999992	1216.6666691	n/a	n/a	n/a	n/a	n/a	n/a	n/a	"2020-11-05 14:01:01.740755"	"2020-11-05 14:01:02.243422"	44	2.97793843333333
"S201105"	"Response_Selection"	"RIGHT"	"RIGHT"	315.519399999971	883.3333351	n/a	n/a	n/a	n/a	n/a	n/a	n/a	"2020-11-05 14:01:03.135534"	"2020-11-05 14:01:03.659123"	45	2.97793843333333
"S201105"	"Response_Selection"	"LEFT"	"LEFT"	487.186599999973	783.3333349	n/a	n/a	n/a	n/a	n/a	n/a	n/a	"2020-11-05 14:01:04.451876"	"2020-11-05 14:01:05.147251"	46	2.97793843333333
"S201105"	"Response_Selection"	"RIGHT"	"RIGHT"	291.806199999996	1466.6666696	n/a	n/a	n/a	n/a	n/a	n/a	n/a	"2020-11-05 14:01:06.622864"	"2020-11-05 14:01:07.123215"	47	2.97793843333333
"S201105"	"Response_Selection"	"RIGHT"	"RIGHT"	535.146800000007	583.3333345	n/a	n/a	n/a	n/a	n/a	n/a	n/a	"2020-11-05 14:01:07.715792"	"2020-11-05 14:01:08.457830"	48	2.97793843333333
"S201105"	"Response_Selection"	"RIGHT"	"RIGHT"	327.381099999968	1416.6666695	n/a	n/a	n/a	n/a	n/a	n/a	n/a	"2020-11-05 14:01:09.883676"	"2020-11-05 14:01:10.419236"	49	2.97793843333333
"S201105"	"Response_Selection"	"RIGHT"	"RIGHT"	379.145100000017	1066.6666688	n/a	n/a	n/a	n/a	n/a	n/a	n/a	"2020-11-05 14:01:11.495012"	"2020-11-05 14:01:12.082643"	50	2.97793843333333
"S201105"	"Response_Selection"	"LEFT"	"LEFT"	324.568999999997	1066.6666688	n/a	n/a	n/a	n/a	n/a	n/a	n/a	"2020-11-05 14:01:13.158091"	"2020-11-05 14:01:13.690849"	51	2.97793843333333
"S201105"	"Response_Selection"	"LEFT"	"LEFT"	400.614200000007	533.3333344	n/a	n/a	n/a	n/a	n/a	n/a	n/a	"2020-11-05 14:01:14.233851"	"2020-11-05 14:01:14.843243"	52	2.97793843333333
"S201105"	"Response_Selection"	"RIGHT"	"RIGHT"	296.584399999972	933.3333352	n/a	n/a	n/a	n/a	n/a	n/a	n/a	"2020-11-05 14:01:15.786206"	"2020-11-05 14:01:16.290462"	53	2.97793843333333
"S201105"	"Response_Selection"	"LEFT"	"LEFT"	289.094499999976	1116.6666689	n/a	n/a	n/a	n/a	n/a	n/a	n/a	"2020-11-05 14:01:17.417053"	"2020-11-05 14:01:17.915231"	54	2.97793843333333
"S201105"	"Response_Selection"	"RIGHT"	"RIGHT"	289.738199999988	733.3333348	n/a	n/a	n/a	n/a	n/a	n/a	n/a	"2020-11-05 14:01:18.657098"	"2020-11-05 14:01:19.155287"	55	2.97793843333333
"S201105"	"Response_Selection"	"LEFT"	"LEFT"	307.712100000003	1466.6666696	n/a	n/a	n/a	n/a	n/a	n/a	n/a	"2020-11-05 14:01:20.631021"	"2020-11-05 14:01:21.146701"	56	2.97793843333333
"S201105"	"Response_Selection"	"LEFT"	"LEFT"	337.95120000002	500.000001	n/a	n/a	n/a	n/a	n/a	n/a	n/a	"2020-11-05 14:01:21.656869"	"2020-11-05 14:01:22.202197"	57	2.97793843333333
"S201105"	"Response_Selection"	"RIGHT"	"RIGHT"	295.269200000007	1366.6666694	n/a	n/a	n/a	n/a	n/a	n/a	n/a	"2020-11-05 14:01:23.579513"	"2020-11-05 14:01:24.081748"	58	2.97793843333333
"S201105"	"Response_Selection"	"RIGHT"	"RIGHT"	356.424599999968	1083.3333355	n/a	n/a	n/a	n/a	n/a	n/a	n/a	"2020-11-05 14:01:25.174341"	"2020-11-05 14:01:25.741118"	59	2.97793843333333
"S201105"	"Response_Selection"	"LEFT"	"LEFT"	632.350400000007	700.0000014	n/a	n/a	n/a	n/a	n/a	n/a	n/a	"2020-11-05 14:01:26.449838"	"2020-11-05 14:01:27.290743"	60	2.97793843333333
"S201105"	"Response_Selection"	"RIGHT"	"RIGHT"	451.291099999992	500.000001	n/a	n/a	n/a	n/a	n/a	n/a	n/a	"2020-11-05 14:01:27.798990"	"2020-11-05 14:01:28.458654"	61	2.97793843333333
"S201105"	"Response_Selection"	"RIGHT"	"RIGHT"	313.898999999992	1133.3333356	n/a	n/a	n/a	n/a	n/a	n/a	n/a	"2020-11-05 14:01:29.600379"	"2020-11-05 14:01:30.122357"	62	2.97793843333333
"S201105"	"Response_Selection"	"RIGHT"	"RIGHT"	451.014900000018	1300.0000026	n/a	n/a	n/a	n/a	n/a	n/a	n/a	"2020-11-05 14:01:31.431640"	"2020-11-05 14:01:32.091330"	63	2.97793843333333
"S201105"	"Response_Selection"	"LEFT"	"LEFT"	756.813099999988	650.0000013	n/a	n/a	n/a	n/a	n/a	n/a	n/a	"2020-11-05 14:01:32.749525"	"2020-11-05 14:01:33.714973"	64	2.97793843333333
"S201105"	"Response_Selection"	"LEFT"	"RIGHT"	424.025000000029	550.0000011	n/a	n/a	n/a	n/a	n/a	n/a	n/a	"2020-11-05 14:01:34.274114"	"2020-11-05 14:01:34.906999"	65	2.97793843333333
"S201105"	"Response_Selection"	"LEFT"	"LEFT"	335.06490000002	583.3333345	n/a	n/a	n/a	n/a	n/a	n/a	n/a	"2020-11-05 14:01:35.499040"	"2020-11-05 14:01:36.045633"	66	2.97793843333333
"S201105"	"Response_Selection"	"LEFT"	"LEFT"	351.904699999977	916.6666685	n/a	n/a	n/a	n/a	n/a	n/a	n/a	"2020-11-05 14:01:36.971116"	"2020-11-05 14:01:37.530345"	67	2.97793843333333
"S201105"	"Response_Selection"	"LEFT"	"LEFT"	336.739000000023	1166.666669	n/a	n/a	n/a	n/a	n/a	n/a	n/a	"2020-11-05 14:01:38.705882"	"2020-11-05 14:01:39.250910"	68	2.97793843333333
"S201105"	"Response_Selection"	"RIGHT"	"RIGHT"	371.805600000016	1266.6666692	n/a	n/a	n/a	n/a	n/a	n/a	n/a	"2020-11-05 14:01:40.526926"	"2020-11-05 14:01:41.107967"	69	2.97793843333333
"S201105"	"Response_Selection"	"LEFT"	"LEFT"	334.057799999982	1400.0000028	n/a	n/a	n/a	n/a	n/a	n/a	n/a	"2020-11-05 14:01:42.516739"	"2020-11-05 14:01:43.063063"	70	2.97793843333333
"S201105"	"Response_Selection"	"RIGHT"	"RIGHT"	334.432499999991	700.0000014	n/a	n/a	n/a	n/a	n/a	n/a	n/a	"2020-11-05 14:01:43.772240"	"2020-11-05 14:01:44.314902"	71	2.97793843333333
"S201105"	"Response_Selection"	"LEFT"	"LEFT"	348.747500000002	1450.0000029	n/a	n/a	n/a	n/a	n/a	n/a	n/a	"2020-11-05 14:01:45.773882"	"2020-11-05 14:01:46.331004"	72	2.97793843333333
"S201105"	"Response_Selection"	"LEFT"	"LEFT"	291.555000000017	683.3333347	n/a	n/a	n/a	n/a	n/a	n/a	n/a	"2020-11-05 14:01:47.022760"	"2020-11-05 14:01:47.523651"	73	2.97793843333333
"S201105"	"Response_Selection"	"RIGHT"	"RIGHT"	255.952000000036	1166.666669	n/a	n/a	n/a	n/a	n/a	n/a	n/a	"2020-11-05 14:01:48.699218"	"2020-11-05 14:01:49.161568"	74	2.97793843333333
"S201105"	"Response_Selection"	"RIGHT"	"RIGHT"	338.517299999978	1116.6666689	n/a	n/a	n/a	n/a	n/a	n/a	n/a	"2020-11-05 14:01:50.287611"	"2020-11-05 14:01:50.834243"	75	2.97793843333333
"S201105"	"Response_Selection"	"LEFT"	"LEFT"	510.990899999967	1416.6666695	n/a	n/a	n/a	n/a	n/a	n/a	n/a	"2020-11-05 14:01:52.259742"	"2020-11-05 14:01:52.979967"	76	2.97793843333333
"S201105"	"Response_Selection"	"LEFT"	"LEFT"	349.835799999994	1200.0000024	n/a	n/a	n/a	n/a	n/a	n/a	n/a	"2020-11-05 14:01:54.189002"	"2020-11-05 14:01:54.745819"	77	2.97793843333333
"S201105"	"Response_Selection"	"RIGHT"	"RIGHT"	366.918799999951	600.0000012	n/a	n/a	n/a	n/a	n/a	n/a	n/a	"2020-11-05 14:01:55.356016"	"2020-11-05 14:01:55.931028"	78	2.97793843333333
"S201105"	"Response_Selection"	"LEFT"	"LEFT"	330.273700000021	1316.6666693	n/a	n/a	n/a	n/a	n/a	n/a	n/a	"2020-11-05 14:01:57.255868"	"2020-11-05 14:01:57.794689"	79	2.97793843333333
"S201105"	"Response_Selection"	"RIGHT"	"RIGHT"	316.864599999974	633.3333346	n/a	n/a	n/a	n/a	n/a	n/a	n/a	"2020-11-05 14:01:58.437333"	"2020-11-05 14:01:58.962986"	80	2.97793843333333
