index	Trial_Type	Participant_ID	Trial_Probability	Question_Position_Prediction_Correct	Question_Position_Prediction_Agent	Question_Position_Comparison_Self	Question_Position_Comparison_Irrelevant	Trial_Stake	Trial_Stake_Jitter	Trial_Type_Jitter	Trial_Result_Jitter	Balance_Update_Jitter	Question_Comparison_Condition	Question_Comparison_Type	Question_Comparison_Question	Question_Comparison_Label	Question_Comparison_Item	Question_Comparison_Proportion_Yes	Question_Factual_Condition	Question_Factual_Item	Question_Factual_Question	Question_Factual_Label	Question_Factual_Proportion_DontKnow	Question_Factual_Type	Answer_Prediction_Correct	Answer_Prediction_Correct_RT	Answer_Prediction_Agent	Answer_Prediction_Agent_RT	Answer_Irrelevant	Answer_Irrelevant_RT	Answer_Self	Answer_Self_RT	Trial_Balance	Trial_Balance_Effect	Trial_Condition	Trial_ProbableSide	Prediction_Choice	Prediction_Result	Prediction_RT	Trial_Order	Trial_Datetime
20	Self	S201105	0.666666667	1	2	2	1	0.8	1150.000002	1433.333336	2066.666671	2500.000005	Minor	Good_deeds	40	You have sold illegal drugs	C1_14	1.0	Hard	I1_10	48	The hyoid bone is the only jointless bone	0.833333333	No	LEFT	784.6013	RIGHT	1446.0061	LEFT	2405.9991	LEFT	1214.1797	9.2	0.8	Probable_Lie	LEFT	LEFT	5	1863.3156	0	37:13.8
78	Self	S201105	0.666666667	2	1	2	1	0.6	1216.666669	1216.666669	2216.666671	2500.000005	Minor	Wrong_doings	50	You have cursed at your loved ones	C1_31	0.7	Easy	I2_44	2	Mexico's National Day is September 16	0.0	No	RIGHT	782.3057	RIGHT	611.6811	LEFT	2021.352	LEFT	1685.7819	9.8	0.6	Probable_Truth	LEFT	LEFT	1	930.0335	1	37:39.6
4	Self	S201105	0.5	1	2	2	1	0.3	1350.000003	1216.666669	2350.000005	1650.000003	Major	Good_deeds	14	You have blackmailed others for money	C1_57	1.0	Hard	I1_17	43	Red is a color	0.888888889	No	LEFT	758.619	LEFT	853.1359	RIGHT	1305.6679	LEFT	1061.7019	9.8	0.3	Probable_Lie	LEFT	RIGHT	2	1657.0528	2	38:04.4
41	Self	S201105	0.833333333	2	1	1	2	0.2	1350.000003	1433.333336	2350.000005	2216.666671	Major	Wrong_doings	38	You have volunteered for a disaster-related humanitarian mission	C2_42	0.95	Easy	I1_58	58	Cleopatra was born in Greece	0.111111111	No	RIGHT	486.5086	RIGHT	981.5585	RIGHT	2149.8079	LEFT	3441.6003	10.0	0.2	Probable_Truth	LEFT	LEFT	1	914.161	3	38:32.3
58	Self	S201105	0.5	2	1	1	2	0.3	1216.666669	1216.666669	2350.000005	1650.000003	Major	Wrong_doings	50	You have stopped using products tested on animals	C1_50	0.95	Easy	I2_39	39	Singapore is a country	0.111111111	No	RIGHT	374.3975	RIGHT	750.7639	RIGHT	974.3698	LEFT	4255.9497	10.3	0.3	Probable_Truth	LEFT	RIGHT	4	1793.5409	4	38:59.5
72	Self	S201105	0.666666667	2	1	1	2	0.3	1283.333336	1500.000003	1783.333337	2066.666671	Minor	Good_deeds	58	You have helped others to pick up their belongings	C1_51	1.0	Hard	I2_2	40	There are 20 bones in the human skull	0.722222222	Yes	RIGHT	421.7006	RIGHT	917.767	RIGHT	1718.0211	RIGHT	2575.4102	10.6	0.3	Probable_Truth	LEFT	LEFT	2	859.6691	5	39:25.2
17	Self	S201105	0.666666667	1	2	1	2	0.4	1283.333336	1350.000003	1933.333337	1933.333337	Minor	Good_deeds	60	You have watched a pirated movie	C1_11	0.0	Easy	I2_48	9	French is Singapore's official language	0.944444444	Yes	RIGHT	758.3405	RIGHT	453.4463	LEFT	1469.5224	LEFT	2149.2568	11.0	0.4	Probable_Truth	LEFT	LEFT	2	826.7866	6	39:49.9
96	Computer	S201105	0.5	1	2	1	2	0.6	1000.000002	1283.333336	1500.000003	1783.333337	Minor	Good_deeds	59	You have attended all lectures as a student	C2_54	0.25	Hard	I1_43	17	There are 7 days in a week	0.055555556	Yes	RIGHT	1786.1845	LEFT	733.1699	RIGHT	957.8732	RIGHT	2923.1878	11.0	0.6	Probable_Truth	RIGHT	RIGHT	6	595.6499954	7	40:15.1
64	Self	S201105	0.666666667	1	2	1	2	0.8	1500.000003	1283.333336	2216.666671	1500.000003	Minor	Good_deeds	49	You have fabricated facts about yourself	C2_40	1.0	Hard	I2_54	54	Penguin can fly with their wings	0.722222222	No	LEFT	1411.7628	LEFT	734.6963	LEFT	1620.8448	LEFT	1686.9946	11.0	0.8	Probable_Lie	LEFT	LEFT	6	629.4434	8	40:40.3
46	Self	S201105	0.833333333	2	1	2	1	0.7	1433.333336	1150.000002	2500.000005	1650.000003	Minor	Wrong_doings	42	You have engaged in money laundering	C2_27	0.0	Easy	I1_21	58	The Eiffel Tower is in Paris	0.944444444	No	RIGHT	336.3639	RIGHT	914.0914	RIGHT	2487.7274	LEFT	1214.5212	11.7	0.7	Probable_Truth	LEFT	LEFT	1	724.2705	9	41:05.3
139	Computer	S201105	0.833333333	2	1	1	2	0.5	1150.000002	1066.666669	1650.000003	1650.000003	Major	Wrong_doings	9	You have bribed a police officer	C2_9	0.0	Hard	I1_19	19	Last day of the year is 30th December	0.888888889	No	LEFT	445.6159	LEFT	554.3879	LEFT	1621.7568	LEFT	1080.2102	11.7	0.5	Probable_Lie	RIGHT	LEFT	6	509.4314337	10	41:27.6
134	Computer	S201105	0.833333333	1	2	2	1	0.3	1500.000003	1150.000002	2350.000005	2500.000005	Minor	Wrong_doings	39	You have been arrested	C1_6	0.0	Hard	I2_51	15	It is snowing outside now	0.0	No	LEFT	966.3392	LEFT	342.7414	LEFT	2277.5159	LEFT	813.9164	11.7	0.3	Probable_Lie	RIGHT	LEFT	6	877.7730942	11	41:53.0
69	Self	S201105	0.666666667	1	2	2	1	0.3	1066.666669	1433.333336	1500.000003	2066.666671	Major	Wrong_doings	1	You have sheltered others from disasters	C2_30	1.0	Hard	I1_24	24	Summer is hotter than winter	0.944444444	No	RIGHT	775.1284	RIGHT	335.2545	RIGHT	1560.7083	LEFT	2902.2897	12.0	0.3	Probable_Truth	LEFT	LEFT	2	1034.816	12	42:18.3
9	Self	S201105	0.5	2	1	1	2	0.4	1000.000002	1066.666669	2216.666671	1500.000003	Major	Wrong_doings	42	You have engaged in underage smoking	C2_6	0.85	Hard	I2_8	32	It sometimes snows in Singapore	0.0	No	LEFT	1141.9231	LEFT	4034.8406	LEFT	957.4982	LEFT	1165.9831	12.0	0.4	Probable_Lie	LEFT	RIGHT	2	949.7542	13	42:44.9
105	Computer	S201105	0.5	2	1	1	2	0.2	1283.333336	1500.000003	1500.000003	2066.666671	Major	Wrong_doings	42	You have engaged in underage smoking	C2_6	0.85	Hard	I2_8	32	It sometimes snows in Singapore	0.0	No	LEFT	382.3644	LEFT	411.1852	LEFT	694.8058	LEFT	1471.315	12.0	0.2	Probable_Lie	LEFT	LEFT	6	670.6185162	14	43:07.5
62	Self	S201105	0.5	2	1	2	1	0.2	1150.000002	1000.000002	1933.333337	2216.666671	Minor	Good_deeds	36	You have failed to keep promises	C2_13	1.0	Easy	I1_35	25	Carnivore refers to meat-eater	0.055555556	Yes	LEFT	405.3674	RIGHT	759.9253	RIGHT	2866.4625	LEFT	957.7136	11.8	0.2	Probable_Lie	RIGHT	RIGHT	1	876.772	15	43:32.2
126	Computer	S201105	0.666666667	2	1	2	1	0.3	1000.000002	1500.000003	1783.333337	2500.000005	Major	Wrong_doings	47	You have let a homeless man into your house	C2_37	0.0	Hard	I2_33	3	Feijoa is a type of grape	0.0	No	LEFT	494.0252	LEFT	657.9376	RIGHT	2878.8115	LEFT	1894.0851	11.8	0.3	Probable_Lie	RIGHT	RIGHT	2	840.6066152	16	43:58.3
35	Self	S201105	0.833333333	1	2	1	2	0.6	1000.000002	1150.000002	1783.333337	2350.000005	Major	Good_deeds	6	You have taken months off to volunteer	C1_39	0.65	Easy	I2_21	51	Mageirocophobia is a fear of deathly disease	0.0	No	RIGHT	461.9632	RIGHT	405.7658	RIGHT	3926.6009	RIGHT	3445.4082	12.4	0.6	Probable_Truth	LEFT	LEFT	1	835.7116	17	44:26.3
112	Computer	S201105	0.666666667	1	2	1	2	0.3	1350.000003	1433.333336	1933.333337	2216.666671	Major	Good_deeds	23	You have helped with household chores	C2_57	1.0	Hard	I1_46	46	Afghan Hound is the first cloned cat	0.833333333	Yes	LEFT	2321.3705	LEFT	382.4771	LEFT	1805.6479	RIGHT	2249.5892	12.4	0.3	Probable_Lie	LEFT	LEFT	5	957.0619734	18	44:53.5
83	Self	S201105	0.833333333	1	2	1	2	0.4	1066.666669	1433.333336	1933.333337	1650.000003	Minor	Wrong_doings	25	You have said thank you when you have received help	C2_52	0.05	Hard	I1_29	36	The hardest bone in human body is the jawbone	0.833333333	No	RIGHT	831.8357	RIGHT	365.611	RIGHT	2606.4755	RIGHT	1350.5944	12.8	0.4	Probable_Truth	RIGHT	RIGHT	5	1430.8022	19	45:18.8
100	Computer	S201105	0.5	1	2	2	1	0.7	1150.000002	1350.000003	2066.666671	1933.333337	Major	Good_deeds	14	You have blackmailed others for money	C1_57	1.0	Hard	I1_17	43	Red is a color	0.888888889	No	RIGHT	526.5789	RIGHT	318.5016	RIGHT	2103.0428	LEFT	965.0384	13.5	0.7	Probable_Truth	RIGHT	LEFT	1	870.2035114	20	45:42.7
59	Self	S201105	0.5	2	1	1	2	0.5	1500.000003	1433.333336	2066.666671	2500.000005	Minor	Good_deeds	39	You have been convicted in court	C1_24	0.0	Easy	I1_27	48	It takes 500 days to travel from Earth to Mars	0.833333333	Yes	LEFT	398.0761	RIGHT	1025.042	RIGHT	2885.427	LEFT	1246.0203	13.0	0.5	Probable_Lie	RIGHT	LEFT	6	805.8341	21	46:09.1
19	Self	S201105	0.666666667	1	2	1	2	0.2	1350.000003	1283.333336	2216.666671	1783.333337	Major	Good_deeds	8	You have adopted a zero-waste lifestyle	C2_23	1.0	Hard	I2_5	33	The sun rises at night	0.0	No	RIGHT	355.1005	RIGHT	326.2522	LEFT	1270.1514	RIGHT	2114.3076	13.2	0.2	Probable_Lie	LEFT	LEFT	3	767.1033	22	46:33.2
51	Self	S201105	0.5	1	2	1	2	0.5	1150.000002	1000.000002	2066.666671	2216.666671	Major	Good_deeds	18	You have downloaded pirated movies	C1_48	0.7	Hard	I1_52	23	Hot chocolate was created by the Mayan culture	0.833333333	No	LEFT	2249.8273	LEFT	406.6765	RIGHT	2044.2275	LEFT	1337.527	13.2	0.5	Probable_Lie	LEFT	RIGHT	2	1868.9863	23	47:00.1
50	Self	S201105	0.5	1	2	1	2	0.3	1500.000003	1500.000003	1783.333337	1650.000003	Major	Wrong_doings	59	You have pretended to be busy to avoid a social situation	C2_18	0.0	Hard	I1_26	18	Singapore has four seasons	0.0	No	LEFT	1934.0522	LEFT	974.1526	LEFT	1341.3066	LEFT	4553.3224	13.2	0.3	Probable_Lie	RIGHT	RIGHT	2	1448.9356	24	47:29.4
86	Self	S201105	0.833333333	1	2	2	1	0.7	1150.000002	1000.000002	2216.666671	1500.000003	Major	Good_deeds	26	You have participated in a scamming business	C2_26	0.7	Easy	I1_1	1	Singapore ranked 8th in World's smallest countries	0.611111111	Yes	RIGHT	434.3407	RIGHT	310.7151	RIGHT	2517.8561	LEFT	1190.4892	13.9	0.7	Probable_Truth	RIGHT	RIGHT	3	748.8811	25	47:53.1
6	Self	S201105	0.5	1	2	2	1	0.4	1000.000002	1150.000002	1650.000003	1783.333337	Minor	Wrong_doings	22	You have cheated on a test	C1_22	0.2	Easy	I2_41	36	Africa is the continent with the least rainfall	0.888888889	Yes	LEFT	1061.3433	RIGHT	957.7312	LEFT	2658.2557	LEFT	980.9119	13.5	0.4	Probable_Lie	RIGHT	LEFT	6	1421.6766	26	48:18.3
76	Self	S201105	0.666666667	2	1	2	1	0.1	1150.000002	1066.666669	2500.000005	2350.000005	Minor	Wrong_doings	51	You have taken responsibility for your actions	C2_50	0.0	Hard	I1_38	5	Chickens lay eggs	0.888888889	Yes	LEFT	541.648	RIGHT	855.6455	RIGHT	3532.9403	RIGHT	1262.7314	13.4	0.1	Probable_Lie	RIGHT	LEFT	4	1482.8664	27	48:45.7
102	Computer	S201105	0.5	1	2	2	1	0.5	1066.666669	1216.666669	1783.333337	1650.000003	Minor	Wrong_doings	22	You have cheated on a test	C1_22	0.2	Easy	I2_41	36	Africa is the continent with the least rainfall	0.888888889	Yes	LEFT	883.7069	LEFT	735.1023	RIGHT	1768.0614	LEFT	885.8799	13.4	0.5	Probable_Lie	RIGHT	RIGHT	1	639.2593631	28	49:08.9
77	Self	S201105	0.666666667	2	1	2	1	0.5	1066.666669	1283.333336	2350.000005	1933.333337	Major	Good_deeds	17	You have organized a violent protest	C2_58	0.7	Easy	I2_56	44	There are 9 rings in the Olympic flag	0.0	No	RIGHT	318.1842	RIGHT	759.8912	RIGHT	2301.7518	LEFT	1373.5202	13.9	0.5	Probable_Truth	LEFT	LEFT	1	974.6226	29	49:33.8
132	Computer	S201105	0.833333333	1	2	2	1	0.7	1350.000003	1000.000002	2216.666671	2066.666671	Major	Wrong_doings	56	You have volunteered every week for many years	C2_3	0.9	Easy	I2_53	53	Nomophobia is the fear of being without a phone or computer	0.0	No	LEFT	366.8664	LEFT	333.7265	RIGHT	3621.9854	LEFT	3110.3207	13.9	0.7	Probable_Lie	LEFT	RIGHT	1	826.9691391	30	50:01.3
103	Computer	S201105	0.5	1	2	2	1	0.3	1500.000003	1150.000002	2500.000005	1500.000003	Minor	Good_deeds	54	You have confessed to your mistake	C1_30	0.0	Easy	I1_14	41	There are 6 million animal species on Earth	0.611111111	Yes	RIGHT	676.7632	LEFT	294.4905	RIGHT	3100.4139	RIGHT	1262.971	13.9	0.3	Probable_Truth	LEFT	RIGHT	4	783.658112	31	50:26.7
116	Computer	S201105	0.666666667	1	2	2	1	0.1	1066.666669	1066.666669	1500.000003	2350.000005	Minor	Good_deeds	40	You have sold illegal drugs	C1_14	1.0	Hard	I1_10	48	The hyoid bone is the only jointless bone	0.833333333	No	RIGHT	635.4455	LEFT	519.2211	RIGHT	1699.3019	LEFT	893.2696	13.9	0.1	Probable_Truth	RIGHT	RIGHT	5	517.5939891	32	50:49.5
106	Computer	S201105	0.5	2	1	1	2	0.1	1500.000003	1000.000002	2066.666671	1500.000003	Minor	Wrong_doings	8	You have kept your promises	C2_29	0.95	Easy	I2_59	16	Saturn's rings are between 30 and 300 feet thick	0.0	No	LEFT	893.4878	LEFT	1019.3456	RIGHT	1381.8234	RIGHT	1639.4267	13.9	0.1	Probable_Truth	LEFT	RIGHT	5	837.5550742	33	51:14.0
95	Self	S201105	0.833333333	2	1	2	1	0.1	1000.000002	1433.333336	1650.000003	1500.000003	Minor	Good_deeds	10	You have given directions to a lost tourist	C2_2	0.95	Hard	I1_12	40	Bears have the biggest eyes among mammals	0.888888889	No	RIGHT	285.8633	RIGHT	292.4258	RIGHT	1693.9536	RIGHT	1302.2333	14.0	0.1	Probable_Truth	LEFT	LEFT	1	1104.9933	34	51:36.8
45	Self	S201105	0.833333333	2	1	2	1	0.6	1283.333336	1216.666669	1650.000003	1500.000003	Minor	Wrong_doings	58	You have given way to the handicapped	C1_44	1.0	Easy	I2_58	21	Algeria is Africa's second largest country	0.0	Yes	RIGHT	390.8482	RIGHT	299.0671	RIGHT	1181.0307	RIGHT	1326.0455	14.6	0.6	Probable_Truth	LEFT	LEFT	1	815.7252	35	51:59.1
110	Computer	S201105	0.5	2	1	2	1	0.4	1350.000003	1150.000002	1650.000003	2216.666671	Minor	Wrong_doings	35	You have bought cocaine	C1_35	0.45	Easy	I1_25	8	A square has 3 corners	0.944444444	No	RIGHT	311.1854	RIGHT	345.8018	LEFT	2970.3731	LEFT	1356.785	15.0	0.4	Probable_Truth	RIGHT	RIGHT	6	787.8237885	36	52:23.8
89	Self	S201105	0.833333333	2	1	1	2	0.3	1283.333336	1283.333336	2066.666671	1650.000003	Major	Wrong_doings	15	You have illegally stayed in a country	C2_53	0.1	Hard	I2_40	6	Astatine is the rarest element in the Earth's crust	0.0	Yes	LEFT	1078.0533	LEFT	705.0	RIGHT	2013.1861	LEFT	1985.7121	15.0	0.3	Probable_Lie	RIGHT	RIGHT	1	716.4514	37	52:49.2
65	Self	S201105	0.666666667	1	2	1	2	0.2	1000.000002	1066.666669	2350.000005	1783.333337	Major	Good_deeds	31	You have thrown your trash into the bin	C1_38	0.55	Easy	I1_23	13	Milwaukee Art Museum is located in California	0.166666667	Yes	RIGHT	599.2002	RIGHT	495.0081	RIGHT	1638.4822	RIGHT	1698.8968	15.2	0.2	Probable_Truth	RIGHT	RIGHT	6	1030.9058	38	53:13.4
94	Self	S201105	0.833333333	2	1	2	1	0.8	1150.000002	1000.000002	1783.333337	2350.000005	Minor	Good_deeds	2	You have helped a friend in need	C1_15	0.0	Easy	I2_6	24	There are 30 hours in a day	0.055555556	Yes	RIGHT	269.7031	RIGHT	444.5903	LEFT	1981.075	RIGHT	1005.1066	16.0	0.8	Probable_Truth	RIGHT	RIGHT	4	575.4687	39	53:36.6
5	Self	S201105	0.5	1	2	2	1	0.6	1283.333336	1000.000002	2216.666671	2066.666671	Major	Wrong_doings	11	You have a non-judgmental attitude towards everyone	C2_45	0.65	Easy	I2_49	14	The Franco-Prussian War occurred in the 19th century	0.0	No	RIGHT	1347.4152	RIGHT	398.1967	RIGHT	3407.601	RIGHT	1900.9789	16.6	0.6	Probable_Lie	LEFT	LEFT	5	1711.6258	40	54:04.5
92	Self	S201105	0.833333333	2	1	2	1	0.5	1433.333336	1350.000003	1500.000003	1933.333337	Major	Good_deeds	53	You have gossiped about your best friend	C1_20	0.0	Hard	I1_47	37	Most plants emit oxygen in the day	0.666666667	No	LEFT	326.1526	RIGHT	1504.3913	RIGHT	1445.4919	LEFT	1277.6778	16.1	0.5	Probable_Lie	RIGHT	RIGHT	1	579.014	41	54:28.5
138	Computer	S201105	0.833333333	2	1	1	2	0.6	1216.666669	1150.000002	1500.000003	2500.000005	Major	Good_deeds	12	You have done something against your values	C1_16	0.9	Hard	I2_38	28	Statute of Liberty is in New York	1.0	Yes	LEFT	253.6555	LEFT	596.1813	RIGHT	925.8741	LEFT	2454.8563	16.1	0.6	Probable_Lie	RIGHT	RIGHT	1	685.2434751	42	54:52.3
73	Self	S201105	0.666666667	2	1	1	2	0.8	1433.333336	1150.000002	1650.000003	1500.000003	Major	Wrong_doings	20	You have coveted things that belong to others	C2_20	0.0	Easy	I1_5	56	It is night time now	0.055555556	No	RIGHT	829.7348	RIGHT	698.0398	LEFT	1118.2725	LEFT	3558.1144	16.9	0.8	Probable_Truth	RIGHT	RIGHT	5	696.9906	43	55:17.6
111	Computer	S201105	0.5	2	1	2	1	0.8	1150.000002	1350.000003	1783.333337	1783.333337	Major	Good_deeds	35	You have been physically hurt to protect others	C2_35	0.85	Hard	I1_11	43	Earth's atmosphere extends up to 10,000km into space	0.666666667	Yes	LEFT	277.3582	LEFT	437.2174	RIGHT	4689.6426	RIGHT	2629.0308	16.9	0.8	Probable_Lie	LEFT	LEFT	4	790.6167775	44	55:45.1
114	Computer	S201105	0.666666667	1	2	1	2	0.2	1433.333336	1216.666669	1650.000003	1783.333337	Major	Wrong_doings	11	You have helped your parents when asked to	C1_40	0.0	Easy	I2_52	31	The Moon orbits around the Earth	0.0	Yes	RIGHT	428.331	RIGHT	247.3884	RIGHT	1103.2077	RIGHT	2755.1661	17.1	0.2	Probable_Truth	RIGHT	LEFT	1	806.2609141	45	56:09.1
88	Self	S201105	0.833333333	2	1	1	2	0.6	1216.666669	1216.666669	2216.666671	2500.000005	Minor	Wrong_doings	53	You have signed up as a bone marrow donor	C2_43	0.55	Hard	I1_37	60	The Seine river is 50 feet above sea level	0.0	Yes	RIGHT	261.3339	RIGHT	306.8166	RIGHT	1252.9928	RIGHT	1373.2918	17.7	0.6	Probable_Lie	LEFT	LEFT	2	599.4611	46	56:32.6
54	Self	S201105	0.5	1	2	2	1	0.4	1000.000002	1350.000003	2216.666671	2350.000005	Minor	Wrong_doings	24	You have returned your trays in food courts	C1_13	1.0	Easy	I2_18	26	There is typically 0.6 grams of mercury in glass thermometer	0.777777778	Yes	RIGHT	1380.5481	RIGHT	471.9122	RIGHT	1114.1751	RIGHT	1487.1597	18.1	0.4	Probable_Truth	RIGHT	RIGHT	6	1467.059	47	56:58.0
8	Self	S201105	0.5	2	1	1	2	0.3	1216.666669	1000.000002	1500.000003	1650.000003	Major	Good_deeds	29	You have cursed at others	C1_9	0.2	Hard	I1_32	11	A dog has four legs	0.055555556	Yes	RIGHT	312.4014	RIGHT	580.301	RIGHT	872.5966	LEFT	1272.4678	18.4	0.3	Probable_Truth	RIGHT	RIGHT	5	2014.4802	48	58:28.1
129	Computer	S201105	0.833333333	1	2	1	2	0.2	1433.333336	1216.666669	2066.666671	1500.000003	Major	Wrong_doings	3	You have said sorry when you were rude	C2_48	0.0	Hard	I1_45	45	The first Olympic Games was held in the 5th century B.C	0.888888889	No	RIGHT	403.5054	LEFT	1184.1508	RIGHT	2086.6937	RIGHT	2100.0385	18.4	0.2	Probable_Truth	LEFT	LEFT	1	885.1632914	49	58:53.6
130	Computer	S201105	0.833333333	1	2	1	2	0.5	1150.000002	1066.666669	1933.333337	1933.333337	Minor	Good_deeds	48	You have lied to your parents	C2_1	0.15	Easy	I1_15	17	Nanyang Technological University is in Australia	0.055555556	Yes	LEFT	1056.4483	LEFT	416.2514	LEFT	2022.8463	LEFT	1227.801	18.4	0.5	Probable_Lie	LEFT	RIGHT	1	782.23434	50	59:17.7
44	Self	S201105	0.833333333	2	1	2	1	0.3	1216.666669	1350.000003	1933.333337	2350.000005	Minor	Good_deeds	27	You have risked your life to save another person's life	C2_38	0.05	Hard	I2_1	60	Cheese is an Asian staple	0.0	Yes	RIGHT	288.5593	RIGHT	820.8271	RIGHT	1682.533	LEFT	2616.2309	18.7	0.3	Probable_Truth	LEFT	LEFT	1	592.1945	51	59:43.1
80	Self	S201105	0.833333333	1	2	1	2	0.6	1350.000003	1066.666669	2500.000005	2350.000005	Major	Good_deeds	7	You have used a fake name online	C1_7	0.85	Easy	I2_26	55	Dutch is the 6th Europe's most widely spoken language	0.0	No	RIGHT	459.9969	RIGHT	327.9058	LEFT	1576.0711	LEFT	1828.0215	19.3	0.6	Probable_Truth	RIGHT	RIGHT	5	574.0547	52	00:07.7
43	Self	S201105	0.833333333	2	1	1	2	0.4	1000.000002	1066.666669	2216.666671	1783.333337	Major	Wrong_doings	9	You have bribed a police officer	C2_9	0.0	Hard	I1_19	19	Last day of the year is 30th December	0.888888889	No	RIGHT	304.9427	RIGHT	303.6695	LEFT	1167.4318	LEFT	897.4345	19.7	0.4	Probable_Truth	LEFT	LEFT	1	630.4753	53	00:29.7
90	Self	S201105	0.833333333	2	1	1	2	0.4	1350.000003	1500.000003	2350.000005	1783.333337	Major	Good_deeds	20	You have been donating all your excess food to a food bank	C2_10	0.0	Easy	I2_60	12	Fishes can swim in water	0.944444444	No	RIGHT	287.0997	RIGHT	715.1104	RIGHT	1080.076	RIGHT	3105.9707	20.1	0.4	Probable_Lie	LEFT	LEFT	3	525.3073	54	00:55.0
47	Self	S201105	0.833333333	2	1	2	1	0.5	1066.666669	1500.000003	1783.333337	2066.666671	Major	Good_deeds	16	You have complimented others for good work	C1_58	0.05	Easy	I2_28	1	"Statue of Liberty is 151 feet tall"	0.722222222	Yes	RIGHT	280.5278	RIGHT	721.5582	RIGHT	2480.1399	RIGHT	1486.7796	20.6	0.5	Probable_Truth	LEFT	LEFT	1	480.4529	55	01:19.4
91	Self	S201105	0.833333333	2	1	1	2	0.2	1066.666669	1150.000002	1933.333337	2216.666671	Major	Wrong_doings	43	You have made someone cry	C1_34	1.0	Easy	I2_24	8	Pyramid of Giza is 468 feet tall	0.0	Yes	RIGHT	343.4339	RIGHT	676.5871	LEFT	1021.6026	LEFT	1969.1883	20.8	0.2	Probable_Truth	RIGHT	RIGHT	6	596.6949	56	01:43.0
109	Computer	S201105	0.5	2	1	2	1	0.6	1000.000002	1216.666669	1933.333337	2350.000005	Major	Wrong_doings	9	You have held the elevator doors for others	C1_8	0.8	Hard	I2_16	25	R. Amundsen discovered the South Pole	1.0	Yes	LEFT	288.6023	LEFT	478.2356	LEFT	2132.4694	RIGHT	1359.6303	20.8	0.6	Probable_Lie	LEFT	RIGHT	3	974.7708964	57	02:07.3
141	Computer	S201105	0.833333333	2	1	2	1	0.3	1000.000002	1000.000002	1933.333337	1500.000003	Minor	Wrong_doings	58	You have given way to the handicapped	C1_44	1.0	Easy	I2_58	21	Algeria is Africa's second largest country	0.0	Yes	RIGHT	247.8798	RIGHT	266.1986	LEFT	1090.2613	LEFT	1096.4278	21.1	0.3	Probable_Truth	LEFT	LEFT	1	682.5716701	58	02:28.7
31	Self	S201105	0.666666667	2	1	2	1	0.4	1350.000003	1433.333336	2066.666671	1500.000003	Major	Wrong_doings	5	You have been sued	C2_47	0.55	Easy	I2_45	4	Singapore is in Africa	0.777777778	Yes	LEFT	240.727	LEFT	870.7534	LEFT	2484.5886	LEFT	1039.5953	21.1	0.4	Probable_Lie	LEFT	LEFT	5	1135.4819	59	02:53.4
34	Self	S201105	0.833333333	1	2	1	2	0.2	1150.000002	1066.666669	1933.333337	1783.333337	Minor	Good_deeds	48	You have lied to your parents	C2_1	0.15	Easy	I1_15	17	Nanyang Technological University is in Australia	0.055555556	Yes	RIGHT	811.2744	RIGHT	561.2944	LEFT	1455.3216	LEFT	1241.3842	21.3	0.2	Probable_Truth	RIGHT	RIGHT	3	685.9618	60	03:16.6
113	Computer	S201105	0.666666667	1	2	1	2	0.4	1283.333336	1350.000003	2500.000005	1933.333337	Minor	Good_deeds	60	You have watched a pirated movie	C1_11	0.0	Easy	I2_48	9	French is Singapore's official language	0.944444444	Yes	LEFT	339.221	LEFT	294.6681	LEFT	935.244	LEFT	1947.8001	21.3	0.4	Probable_Truth	LEFT	RIGHT	3	951.6926559	61	03:40.7
29	Self	S201105	0.666666667	2	1	2	1	0.6	1433.333336	1216.666669	1933.333337	2216.666671	Minor	Good_deeds	37	You have followed instructions	C1_37	0.65	Hard	I2_4	45	The Amazon forest covers an area of 1 billion acres	0.888888889	Yes	RIGHT	295.1567	RIGHT	1460.378	RIGHT	2127.4433	RIGHT	1599.386	21.9	0.6	Probable_Lie	RIGHT	RIGHT	2	668.8964	62	04:06.3
42	Self	S201105	0.833333333	2	1	1	2	0.1	1500.000003	1283.333336	1500.000003	2500.000005	Major	Good_deeds	12	You have done something against your values	C1_16	0.9	Hard	I2_38	28	Statute of Liberty is in New York	1.0	Yes	RIGHT	480.9518	RIGHT	1957.8675	RIGHT	1030.186	LEFT	4370.7706	22.0	0.1	Probable_Truth	LEFT	LEFT	1	552.0867	63	04:34.0
12	Self	S201105	0.5	2	1	2	1	0.1	1433.333336	1216.666669	1650.000003	1933.333337	Minor	Good_deeds	46	You have provided shelter for stray animals	C1_42	0.05	Easy	I1_44	59	Today is a weekday	0.0	No	LEFT	232.7462	RIGHT	2019.9171	RIGHT	1548.7517	RIGHT	2287.7402	21.9	0.1	Probable_Lie	RIGHT	RIGHT	3	1852.7759	64	05:00.8
52	Self	S201105	0.5	1	2	2	1	0.7	1066.666669	1150.000002	2500.000005	1500.000003	Major	Good_deeds	60	You have sign up to sponsor a needy child	C2_59	0.0	Easy	I1_57	57	December is the last month of the year	0.0	No	LEFT	1758.069	RIGHT	279.6779	RIGHT	1738.0001	LEFT	2215.7344	21.2	0.7	Probable_Lie	RIGHT	RIGHT	2	2711.0986	65	05:28.3
67	Self	S201105	0.666666667	1	2	1	2	0.4	1433.333336	1216.666669	1650.000003	2500.000005	Minor	Good_deeds	30	You have drunk alcohol when you were underage	C1_49	0.5	Hard	I1_54	27	A caterpillar has more muscle than a human	0.0	No	RIGHT	584.2133	RIGHT	288.1092	LEFT	3599.9926	LEFT	1342.4797	21.6	0.4	Probable_Truth	LEFT	LEFT	2	751.7861	66	05:54.2
39	Self	S201105	0.833333333	1	2	2	1	0.8	1283.333336	1500.000003	2500.000005	2216.666671	Major	Good_deeds	28	You have deceived a loved one	C1_45	0.05	Hard	I1_41	3	A triangle has three sides	0.944444444	Yes	RIGHT	1885.4386	RIGHT	208.7287	RIGHT	1746.3636	LEFT	1582.442	22.4	0.8	Probable_Lie	RIGHT	RIGHT	1	1303.3936	67	06:21.0
24	Self	S201105	0.666666667	2	1	1	2	0.7	1000.000002	1350.000003	1500.000003	2500.000005	Major	Wrong_doings	37	You have claimed doing things that you never did	C2_7	0.1	Easy	I1_53	53	February has 30 days	0.777777778	No	RIGHT	438.1925	RIGHT	1084.3777	LEFT	1088.9525	LEFT	2197.7654	23.1	0.7	Probable_Lie	LEFT	LEFT	3	925.8677	68	06:45.7
108	Computer	S201105	0.5	2	1	2	1	0.5	1216.666669	1433.333336	2216.666671	2500.000005	Minor	Good_deeds	46	You have provided shelter for stray animals	C1_42	0.05	Easy	I1_44	59	Today is a weekday	0.0	No	LEFT	272.5843	LEFT	370.7663	RIGHT	1340.4712	LEFT	1087.7527	23.1	0.5	Probable_Lie	RIGHT	RIGHT	1	545.3061214	69	07:09.2
135	Computer	S201105	0.833333333	1	2	2	1	0.6	1066.666669	1283.333336	1500.000003	2350.000005	Major	Good_deeds	28	You have deceived a loved one	C1_45	0.05	Hard	I1_41	3	A triangle has three sides	0.944444444	Yes	LEFT	904.4682	LEFT	695.8528	RIGHT	986.9179	LEFT	736.2376	23.1	0.6	Probable_Lie	RIGHT	LEFT	2	670.5917678	70	07:32.0
61	Self	S201105	0.5	2	1	2	1	0.1	1350.000003	1150.000002	1650.000003	2066.666671	Minor	Wrong_doings	24	You have shown your appreciation to your teachers	C2_39	0.0	Easy	I1_28	30	Airbags in cars are filled with sodium azide	0.833333333	No	LEFT	296.465	RIGHT	902.7215	RIGHT	4110.0181	RIGHT	1944.2683	23.0	0.1	Probable_Lie	RIGHT	LEFT	5	1628.2244	71	07:59.6
33	Self	S201105	0.833333333	1	2	1	2	0.1	1350.000003	1350.000003	2216.666671	2066.666671	Major	Wrong_doings	3	You have said sorry when you were rude	C2_48	0.0	Hard	I1_45	45	The first Olympic Games was held in the 5th century B.C	0.888888889	No	RIGHT	847.2229	RIGHT	815.5194	LEFT	1503.923	RIGHT	2534.927	23.1	0.1	Probable_Truth	RIGHT	RIGHT	3	750.8283	72	08:25.7
53	Self	S201105	0.5	1	2	2	1	0.6	1433.333336	1283.333336	1500.000003	2500.000005	Major	Good_deeds	19	You have lost everything just to help others	C1_19	0.05	Easy	I2_42	6	Marijuana is legal in Singapore	1.0	Yes	LEFT	1917.2067	RIGHT	407.5324	LEFT	1541.3911	RIGHT	2318.8711	22.5	0.6	Probable_Lie	RIGHT	RIGHT	2	1448.2246	73	08:52.6
142	Computer	S201105	0.833333333	2	1	2	1	0.7	1500.000003	1283.333336	2350.000005	2066.666671	Minor	Wrong_doings	42	You have engaged in money laundering	C2_27	0.0	Easy	I1_21	58	The Eiffel Tower is in Paris	0.944444444	No	LEFT	280.762	LEFT	520.0746	RIGHT	1366.9764	LEFT	967.5626	22.5	0.7	Probable_Lie	RIGHT	LEFT	4	773.8955361	74	09:16.3
55	Self	S201105	0.5	1	2	2	1	0.8	1216.666669	1433.333336	1650.000003	1783.333337	Minor	Wrong_doings	47	You have extorted money from anyone	C2_24	0.95	Easy	I1_6	50	It takes 112 years to build the Pisa Tower	0.666666667	Yes	LEFT	1119.1875	LEFT	199.5639	LEFT	1731.4979	LEFT	1214.5941	22.5	0.8	Probable_Lie	RIGHT	LEFT	5	870.8016	75	09:40.0
122	Computer	S201105	0.666666667	2	1	1	2	0.2	1433.333336	1433.333336	1650.000003	1500.000003	Minor	Good_deeds	3	You have donated blood every 6 months for many years	C1_33	0.95	Hard	I1_50	50	Mozambique is the world's poorest country	0.0	Yes	RIGHT	440.8659	LEFT	935.2073	RIGHT	2872.5562	RIGHT	2636.1812	22.5	0.2	Probable_Lie	LEFT	LEFT	4	801.5830038	76	10:06.3
133	Computer	S201105	0.833333333	1	2	2	1	0.1	1283.333336	1350.000003	1783.333337	2216.666671	Minor	Wrong_doings	1	You have switched off appliances when not in use	C1_28	1.0	Hard	I2_17	41	Brazil is in South America	0.944444444	Yes	LEFT	3940.6853	LEFT	448.9038	RIGHT	1447.7407	RIGHT	1183.3733	22.5	0.1	Probable_Lie	LEFT	RIGHT	1	817.4913122	77	10:33.4
27	Self	S201105	0.666666667	2	1	1	2	0.2	1500.000003	1150.000002	1783.333337	1783.333337	Minor	Wrong_doings	17	You have stolen something	C1_3	0.95	Hard	I2_3	4	Malay is one of the races in Singapore	0.833333333	Yes	RIGHT	478.8244	RIGHT	712.159	RIGHT	1623.2669	LEFT	961.6009	22.7	0.2	Probable_Lie	RIGHT	RIGHT	2	717.7788	78	10:56.6
131	Computer	S201105	0.833333333	1	2	1	2	0.4	1000.000002	1500.000003	2500.000005	1783.333337	Major	Good_deeds	6	You have taken months off to volunteer	C1_39	0.65	Easy	I2_21	51	Mageirocophobia is a fear of deathly disease	0.0	No	LEFT	317.1706	LEFT	488.1826	RIGHT	903.7408	RIGHT	1878.1441	22.7	0.4	Probable_Lie	LEFT	RIGHT	1	606.8156227	79	11:20.2
30	Self	S201105	0.666666667	2	1	2	1	0.3	1216.666669	1500.000003	2500.000005	1933.333337	Major	Wrong_doings	47	You have let a homeless man into your house	C2_37	0.0	Hard	I2_33	3	Feijoa is a type of grape	0.0	No	RIGHT	238.2823	RIGHT	520.7078	RIGHT	1970.3904	RIGHT	805.9456	23.0	0.3	Probable_Truth	RIGHT	RIGHT	3	950.2732	80	11:44.4
26	Self	S201105	0.666666667	2	1	1	2	0.8	1150.000002	1000.000002	2216.666671	2350.000005	Minor	Good_deeds	3	You have donated blood every 6 months for many years	C1_33	0.95	Hard	I1_50	50	Mozambique is the world's poorest country	0.0	Yes	RIGHT	190.9375	RIGHT	293.1207	RIGHT	790.7938	RIGHT	879.3647	23.8	0.8	Probable_Truth	RIGHT	RIGHT	6	437.8378	81	12:06.3
71	Self	S201105	0.666666667	1	2	2	1	0.1	1216.666669	1150.000002	1783.333337	2350.000005	Major	Wrong_doings	40	You have stopped using plastics completely	C1_1	0.0	Easy	I2_13	39	Kangaroos live in Africa	0.888888889	No	LEFT	153.3227	RIGHT	520.6124	RIGHT	1116.6074	RIGHT	1200.0412	23.7	0.1	Probable_Lie	LEFT	LEFT	6	696.9642	82	12:29.1
97	Computer	S201105	0.5	1	2	1	2	0.8	1283.333336	1433.333336	2216.666671	2216.666671	Major	Wrong_doings	45	You have made counterfeit money	C2_14	0.9	Hard	I2_36	31	Singapore is a poor country	0.888888889	No	LEFT	607.4424	LEFT	248.6675	LEFT	1022.8997	LEFT	1409.0422	23.7	0.8	Probable_Lie	LEFT	LEFT	4	985.2045764	83	12:53.1
56	Self	S201105	0.5	2	1	1	2	0.4	1283.333336	1500.000003	1500.000003	2350.000005	Major	Good_deeds	13	You have bought cigarettes for a minor	C2_28	0.75	Hard	I2_25	35	There are 10 continents in the World	0.0	Yes	LEFT	176.6864	RIGHT	971.839	LEFT	1456.0092	LEFT	1091.7444	23.3	0.4	Probable_Lie	LEFT	LEFT	4	1273.1487	84	13:17.3
2	Self	S201105	0.5	1	2	1	2	0.5	1150.000002	1066.666669	2066.666671	2216.666671	Major	Wrong_doings	57	You have faked an illness	C1_59	0.85	Easy	I2_11	11	Arabi is the oldest surviving breed of horse	0.0	No	RIGHT	491.7469	RIGHT	425.0131	LEFT	896.2089	LEFT	975.933	23.8	0.5	Probable_Lie	RIGHT	LEFT	4	1717.8348	85	13:40.9
63	Self	S201105	0.5	2	1	2	1	0.8	1066.666669	1066.666669	2216.666671	1783.333337	Minor	Wrong_doings	28	You have started an NGO using your savings	C1_46	0.1	Hard	I2_30	27	North Korea is more developed than South Korea	0.666666667	No	RIGHT	136.4559	RIGHT	143.9494	LEFT	2084.4171	LEFT	2295.5158	24.6	0.8	Probable_Truth	RIGHT	RIGHT	4	1025.8935	86	14:05.2
57	Self	S201105	0.5	2	1	1	2	0.6	1000.000002	1283.333336	2500.000005	1500.000003	Major	Wrong_doings	4	You have given up your seat in the MRT	C1_4	0.05	Hard	I2_34	34	The human's inner ear is larger than a pencil eraser	0.0	No	LEFT	487.603	RIGHT	1678.1153	LEFT	2304.5301	LEFT	1365.8356	24.0	0.6	Probable_Lie	LEFT	RIGHT	3	688.7632	87	14:30.6
49	Self	S201105	0.5	1	2	1	2	0.1	1283.333336	1216.666669	2350.000005	2066.666671	Minor	Good_deeds	48	You have kidnapped someone	C1_47	0.05	Hard	I2_23	42	Vegetarians can eat vegetable products	0.0	No	LEFT	1698.7533	RIGHT	472.2676	RIGHT	1534.7796	LEFT	1204.6025	23.9	0.1	Probable_Lie	RIGHT	RIGHT	3	1051.5303	88	14:56.1
82	Self	S201105	0.833333333	1	2	1	2	0.5	1000.000002	1283.333336	1783.333337	1783.333337	Major	Wrong_doings	43	You have cheated on a national exam	C1_27	0.85	Hard	I1_36	42	Today is Sunday	1.0	No	RIGHT	634.2239	RIGHT	168.9494	LEFT	1167.3494	LEFT	1098.7478	24.4	0.5	Probable_Truth	RIGHT	RIGHT	4	482.3097	89	15:18.1
84	Self	S201105	0.833333333	1	2	2	1	0.3	1433.333336	1500.000003	2066.666671	1933.333337	Minor	Good_deeds	33	You have eaten something in the MRT train	C1_43	0.0	Easy	I1_42	26	China is a part of Asia	0.0	Yes	RIGHT	319.6224	RIGHT	128.1137	RIGHT	1972.4597	RIGHT	1519.646	24.7	0.3	Probable_Truth	RIGHT	RIGHT	5	599.3912	90	15:42.1
18	Self	S201105	0.666666667	1	2	1	2	0.1	1500.000003	1150.000002	1500.000003	2066.666671	Major	Wrong_doings	11	You have helped your parents when asked to	C1_40	0.0	Easy	I2_52	31	The Moon orbits around the Earth	0.0	Yes	RIGHT	746.8253	RIGHT	128.3944	RIGHT	927.0664	RIGHT	1403.5256	24.8	0.1	Probable_Truth	RIGHT	RIGHT	6	644.5639	91	16:04.8
87	Self	S201105	0.833333333	1	2	2	1	0.8	1283.333336	1350.000003	1500.000003	2500.000005	Major	Wrong_doings	52	You have started a movement to support a cause	C2_33	1.0	Hard	I2_12	29	Christmas Day is in March	0.0	Yes	LEFT	917.8819	RIGHT	312.0736	LEFT	1766.1003	LEFT	2279.8804	24.0	0.8	Probable_Lie	RIGHT	RIGHT	1	956.9832	92	16:30.2
121	Computer	S201105	0.666666667	2	1	1	2	0.5	1283.333336	1350.000003	2066.666671	1650.000003	Minor	Good_deeds	7	You have held the door open for a stranger	C1_5	0.0	Easy	I1_13	33	There are 6000 spoken languages in the World	0.0	No	RIGHT	423.446	RIGHT	32.7746	RIGHT	1335.9958	RIGHT	1473.5939	24.5	0.5	Probable_Lie	LEFT	LEFT	3	738.6963653	93	16:53.1
1	Self	S201105	0.5	1	2	1	2	0.8	1066.666669	1500.000003	1500.000003	1933.333337	Major	Wrong_doings	45	You have made counterfeit money	C2_14	0.9	Hard	I2_36	31	Singapore is a poor country	0.888888889	No	RIGHT	259.0625	RIGHT	232.1827	LEFT	807.0446	LEFT	1299.4458	25.3	0.8	Probable_Truth	LEFT	LEFT	3	1271.9038	94	17:15.6
85	Self	S201105	0.833333333	1	2	2	1	0.2	1216.666669	1216.666669	1650.000003	2216.666671	Minor	Wrong_doings	27	You have rescued others from a catastrophe	C2_25	0.0	Hard	I2_46	46	Cernan was the second last man to walk on the Moon	0.0	Yes	RIGHT	500.9585	RIGHT	289.3016	LEFT	4653.8873	RIGHT	1559.5047	25.5	0.2	Probable_Truth	LEFT	LEFT	1	437.1512	95	17:41.9
10	Self	S201105	0.5	2	1	1	2	0.6	1500.000003	1433.333336	2066.666671	2350.000005	Minor	Wrong_doings	8	You have kept your promises	C2_29	0.95	Easy	I2_59	16	Saturn's rings are between 30 and 300 feet thick	0.0	No	LEFT	512.0336	LEFT	676.6313	RIGHT	1054.9476	RIGHT	1280.2152	25.5	0.6	Probable_Lie	LEFT	LEFT	6	2113.0579	96	19:13.0
98	Computer	S201105	0.5	1	2	1	2	0.4	1216.666669	1066.666669	1650.000003	2500.000005	Major	Wrong_doings	57	You have faked an illness	C1_59	0.85	Easy	I2_11	11	Arabi is the oldest surviving breed of horse	0.0	No	RIGHT	975.4535	LEFT	607.6778	LEFT	2048.8049	LEFT	1188.3087	25.5	0.4	Probable_Truth	LEFT	LEFT	3	934.467181	97	19:37.8
66	Self	S201105	0.666666667	1	2	1	2	0.7	1350.000003	1000.000002	2066.666671	2216.666671	Minor	Good_deeds	38	You have engaged in drink-driving	C2_19	0.05	Hard	I2_22	23	The first Grammy awards was held in 1959	0.666666667	Yes	RIGHT	878.5586	RIGHT	655.6932	RIGHT	1069.0451	LEFT	1552.8602	26.2	0.7	Probable_Truth	LEFT	LEFT	2	664.6137	98	20:01.8
16	Self	S201105	0.666666667	1	2	1	2	0.6	1433.333336	1066.666669	1650.000003	2216.666671	Major	Good_deeds	23	You have helped with household chores	C2_57	1.0	Hard	I1_46	46	Afghan Hound is the first cloned cat	0.833333333	Yes	RIGHT	356.5466	RIGHT	400.8109	LEFT	1909.2984	RIGHT	1482.1696	26.8	0.6	Probable_Truth	LEFT	LEFT	2	628.4662	99	20:25.5
93	Self	S201105	0.833333333	2	1	2	1	0.7	1500.000003	1066.666669	2500.000005	2066.666671	Minor	Wrong_doings	34	You have taken part in violent demonstration	C1_53	1.0	Easy	I1_8	47	It is 20th Century now	0.944444444	No	RIGHT	633.0397	RIGHT	1411.1151	LEFT	1958.0473	LEFT	1374.2711	27.5	0.7	Probable_Lie	RIGHT	RIGHT	1	927.2924	100	20:51.6
137	Computer	S201105	0.833333333	2	1	1	2	0.8	1433.333336	1500.000003	2066.666671	2216.666671	Major	Wrong_doings	38	You have volunteered for a disaster-related humanitarian mission	C2_42	0.95	Easy	I1_58	58	Cleopatra was born in Greece	0.111111111	No	RIGHT	255.7404	RIGHT	392.7548	RIGHT	1318.8904	RIGHT	2386.4662	28.3	0.8	Probable_Truth	RIGHT	RIGHT	3	819.0994688	101	21:16.5
117	Computer	S201105	0.666666667	1	2	2	1	0.7	1150.000002	1000.000002	2350.000005	1650.000003	Minor	Wrong_doings	57	You have been restricting your electricity consumption	C1_60	0.65	Easy	I2_31	10	The Earth is round	0.611111111	No	RIGHT	875.8774	LEFT	702.9108	RIGHT	1496.4258	RIGHT	2623.9708	28.3	0.7	Probable_Truth	RIGHT	RIGHT	4	520.9154282	102	21:41.4
70	Self	S201105	0.666666667	1	2	2	1	0.6	1283.333336	1500.000003	1933.333337	1650.000003	Major	Wrong_doings	23	You have used heroin	C1_23	0.15	Easy	I1_39	54	Polish is 20th most spoken language in the World	0.0	Yes	RIGHT	832.9695	RIGHT	335.0572	RIGHT	2224.6665	LEFT	1192.293	28.9	0.6	Probable_Truth	LEFT	LEFT	2	773.3006	103	22:05.8
79	Self	S201105	0.666666667	2	1	2	1	0.7	1500.000003	1350.000003	2066.666671	1650.000003	Minor	Good_deeds	16	You have started a hotline for victims of bully	C2_16	0.0	Hard	I1_2	2	Animals are living things	1.0	Yes	RIGHT	305.1224	RIGHT	581.8736	RIGHT	1182.3907	LEFT	2791.9561	29.6	0.7	Probable_Truth	LEFT	LEFT	1	587.7215	104	22:30.4
107	Computer	S201105	0.5	2	1	1	2	0.3	1066.666669	1066.666669	2500.000005	1933.333337	Minor	Good_deeds	6	You have borrowed things and never returned	C2_46	0.0	Easy	I2_43	44	Septicemia is a lung infection condition	0.777777778	Yes	LEFT	336.4909	LEFT	1203.7589	RIGHT	1679.4131	LEFT	2411.4359	29.6	0.3	Probable_Lie	RIGHT	LEFT	5	745.7186812	105	22:55.9
104	Computer	S201105	0.5	2	1	1	2	0.7	1433.333336	1283.333336	2350.000005	1650.000003	Major	Good_deeds	29	You have cursed at others	C1_9	0.2	Hard	I1_32	11	A dog has four legs	0.055555556	Yes	LEFT	1143.9782	LEFT	1086.3918	RIGHT	871.7759	LEFT	1071.5789	29.6	0.7	Probable_Lie	LEFT	LEFT	4	703.080937	106	23:20.0
32	Self	S201105	0.833333333	1	2	1	2	0.7	1500.000003	1283.333336	1500.000003	2500.000005	Minor	Good_deeds	45	You have taken part in burglary	C2_56	0.95	Easy	I1_3	21	The Earth turns the closest to the sun in May	0.777777778	Yes	RIGHT	1196.6808	RIGHT	385.1399	RIGHT	2710.9248	LEFT	1518.2097	30.3	0.7	Probable_Truth	LEFT	LEFT	1	950.0161	107	23:46.2
119	Computer	S201105	0.666666667	1	2	2	1	0.8	1000.000002	1283.333336	2066.666671	1500.000003	Major	Wrong_doings	34	You have watched an M18 movie when you were underage	C2_34	0.05	Easy	I1_9	52	Teddy Roosevelt was the youngest US President	0.0	No	RIGHT	1232.6694	RIGHT	688.5576	LEFT	2947.7787	LEFT	2279.6146	31.1	0.8	Probable_Lie	LEFT	RIGHT	1	654.9527123	108	24:12.4
14	Self	S201105	0.5	2	1	2	1	0.5	1066.666669	1350.000003	1933.333337	2216.666671	Minor	Wrong_doings	35	You have bought cocaine	C1_35	0.45	Easy	I1_25	8	A square has 3 corners	0.944444444	No	LEFT	416.0398	LEFT	499.3396	LEFT	2160.981	LEFT	999.4805	31.1	0.5	Probable_Lie	LEFT	LEFT	5	1082.1433	109	24:36.7
21	Self	S201105	0.666666667	1	2	2	1	0.5	1000.000002	1216.666669	2500.000005	1650.000003	Minor	Wrong_doings	57	You have been restricting your electricity consumption	C1_60	0.65	Easy	I2_31	10	The Earth is round	0.611111111	No	RIGHT	1202.4347	RIGHT	376.3029	RIGHT	1333.7042	RIGHT	1063.6231	31.6	0.5	Probable_Truth	LEFT	LEFT	2	800.5371	110	25:00.4
36	Self	S201105	0.833333333	1	2	2	1	0.3	1216.666669	1216.666669	2350.000005	1650.000003	Major	Wrong_doings	56	You have volunteered every week for many years	C2_3	0.9	Easy	I2_53	53	Nomophobia is the fear of being without a phone or computer	0.0	No	RIGHT	416.0584	RIGHT	264.4985	RIGHT	3837.1439	RIGHT	1414.8323	31.9	0.3	Probable_Truth	LEFT	LEFT	1	781.588	111	25:26.2
74	Self	S201105	0.666666667	2	1	1	2	0.4	1000.000002	1000.000002	1933.333337	1783.333337	Major	Good_deeds	29	You have donated a pay cheque to charity	C1_17	0.2	Hard	I2_35	38	Acoustic Kitty refers to cat with implants	0.764705882	No	RIGHT	256.7389	RIGHT	453.354	RIGHT	2383.9361	LEFT	2595.6102	32.3	0.4	Probable_Truth	RIGHT	RIGHT	3	1323.9264	112	25:51.5
28	Self	S201105	0.666666667	2	1	2	1	0.1	1283.333336	1066.666669	1650.000003	1650.000003	Major	Good_deeds	33	You have engaged in arson	C2_17	0.0	Easy	I1_4	13	Beer is an alcoholic drink	0.0	No	LEFT	216.3425	RIGHT	694.6551	RIGHT	1496.4301	LEFT	1591.5984	32.2	0.1	Probable_Lie	RIGHT	LEFT	3	1247.6906	113	26:14.9
15	Self	S201105	0.5	2	1	2	1	0.2	1350.000003	1500.000003	1783.333337	1783.333337	Major	Good_deeds	35	You have been physically hurt to protect others	C2_35	0.85	Hard	I1_11	43	Earth's atmosphere extends up to 10,000km into space	0.666666667	Yes	LEFT	953.1458	LEFT	722.1875	RIGHT	1282.8404	RIGHT	1686.5784	32.2	0.2	Probable_Lie	RIGHT	LEFT	5	857.1728	114	26:39.4
127	Computer	S201105	0.666666667	2	1	2	1	0.4	1350.000003	1066.666669	2500.000005	2216.666671	Major	Wrong_doings	5	You have been sued	C2_47	0.55	Easy	I2_45	4	Singapore is in Africa	0.777777778	Yes	LEFT	287.3671	LEFT	1422.2346	LEFT	1186.0759	LEFT	768.0187	32.2	0.4	Probable_Truth	LEFT	RIGHT	4	608.0040947	115	27:03.4
136	Computer	S201105	0.833333333	2	1	1	2	0.2	1066.666669	1350.000003	2216.666671	1933.333337	Minor	Good_deeds	44	You have told someone's secret to others	C1_12	0.8	Hard	I1_60	38	Slavery was abolished in Cuba in 1886	0.055555556	No	LEFT	472.0134	LEFT	774.1629	RIGHT	1823.0461	LEFT	3597.7069	32.2	0.2	Probable_Lie	RIGHT	LEFT	2	916.3810609	116	27:30.1
13	Self	S201105	0.5	2	1	2	1	0.8	1150.000002	1150.000002	2350.000005	2500.000005	Major	Wrong_doings	9	You have held the elevator doors for others	C1_8	0.8	Hard	I2_16	25	R. Amundsen discovered the South Pole	1.0	Yes	LEFT	455.7825	RIGHT	1769.3876	LEFT	1388.9238	RIGHT	2223.8279	31.4	0.8	Probable_Lie	LEFT	LEFT	4	2108.1294	117	27:57.8
60	Self	S201105	0.5	2	1	2	1	0.7	1433.333336	1350.000003	1783.333337	1933.333337	Major	Good_deeds	46	You have violated a traffic law	C2_36	0.85	Hard	I1_48	28	Some owl species hunt fish	0.722222222	Yes	RIGHT	263.8578	RIGHT	754.8332	RIGHT	2476.4433	LEFT	950.5681	32.1	0.7	Probable_Truth	RIGHT	LEFT	3	1027.389	118	28:22.4
48	Self	S201105	0.5	1	2	1	2	0.2	1350.000003	1066.666669	1933.333337	1933.333337	Minor	Wrong_doings	13	You have queued to enter the MRT train	C2_60	1.0	Hard	I2_50	52	South East Asia is currently free from polio	0.0	Yes	RIGHT	579.2443	RIGHT	239.9991	RIGHT	4832.0805	RIGHT	2161.5445	32.3	0.2	Probable_Lie	RIGHT	LEFT	6	1043.3968	119	28:50.1
38	Self	S201105	0.833333333	1	2	2	1	0.5	1066.666669	1000.000002	2066.666671	1933.333337	Minor	Wrong_doings	39	You have been arrested	C1_6	0.0	Hard	I2_51	15	It is snowing outside now	0.0	No	RIGHT	497.4905	RIGHT	205.5684	LEFT	1332.0641	LEFT	808.2958	32.8	0.5	Probable_Truth	RIGHT	RIGHT	2	1377.066	120	29:13.0
0	Self	S201105	0.5	1	2	1	2	0.7	1433.333336	1350.000003	1933.333337	2500.000005	Minor	Good_deeds	59	You have attended all lectures as a student	C2_54	0.25	Hard	I1_43	17	There are 7 days in a week	0.055555556	Yes	LEFT	2012.5329	LEFT	96.0495	RIGHT	831.8056	RIGHT	1716.2913	32.8	0.7	Probable_Lie	LEFT	RIGHT	3	840.1918	121	29:38.3
68	Self	S201105	0.666666667	1	2	2	1	0.5	1150.000002	1350.000003	2500.000005	1933.333337	Minor	Wrong_doings	19	You have offered a listening ear to a friend	C2_31	0.0	Easy	I2_27	22	The current century is 21st	0.055555556	Yes	RIGHT	652.2029	RIGHT	255.2347	RIGHT	1527.1791	RIGHT	1247.4416	33.3	0.5	Probable_Truth	LEFT	LEFT	1	745.4951	122	30:02.2
120	Computer	S201105	0.666666667	2	1	1	2	0.6	1500.000003	1283.333336	2216.666671	2066.666671	Major	Wrong_doings	37	You have claimed doing things that you never did	C2_7	0.1	Easy	I1_53	53	February has 30 days	0.777777778	No	LEFT	295.7181	LEFT	1049.1764	LEFT	824.0046	RIGHT	2510.4186	33.3	0.6	Probable_Lie	RIGHT	LEFT	4	880.4752433	123	30:27.4
143	Computer	S201105	0.833333333	2	1	2	1	0.4	1350.000003	1433.333336	2500.000005	2350.000005	Major	Good_deeds	16	You have complimented others for good work	C1_58	0.05	Easy	I2_28	1	"Statue of Liberty is 151 feet tall"	0.722222222	Yes	LEFT	103.37	LEFT	366.9332	RIGHT	1732.3703	RIGHT	780.9743	33.3	0.4	Probable_Lie	RIGHT	RIGHT	1	777.3888842	124	30:51.4
22	Self	S201105	0.666666667	1	2	2	1	0.3	1216.666669	1500.000003	2350.000005	2350.000005	Minor	Wrong_doings	14	You have assisted in a crime	C2_8	0.45	Hard	I1_33	5	Fibers in oranges can be used to make fabric	0.055555556	Yes	RIGHT	763.9845	RIGHT	1257.3997	RIGHT	4217.9293	LEFT	1200.3159	33.6	0.3	Probable_Truth	RIGHT	RIGHT	6	933.2734	125	31:19.7
140	Computer	S201105	0.833333333	2	1	2	1	0.1	1283.333336	1216.666669	1783.333337	1783.333337	Minor	Good_deeds	27	You have risked your life to save another person's life	C2_38	0.05	Hard	I2_1	60	Cheese is an Asian staple	0.0	Yes	LEFT	336.2431	LEFT	903.347	LEFT	2779.456	LEFT	2759.1479	33.6	0.1	Probable_Lie	LEFT	RIGHT	1	855.9285329	126	31:46.0
128	Computer	S201105	0.833333333	1	2	1	2	0.8	1216.666669	1433.333336	1650.000003	1650.000003	Minor	Good_deeds	45	You have taken part in burglary	C2_56	0.95	Easy	I1_3	21	The Earth turns the closest to the sun in May	0.777777778	Yes	RIGHT	1530.6348	LEFT	279.6773	RIGHT	1647.439	LEFT	1040.2559	33.6	0.8	Probable_Truth	LEFT	LEFT	1	921.5164611	127	32:09.9
99	Computer	S201105	0.5	1	2	1	2	0.1	1350.000003	1000.000002	2350.000005	2066.666671	Minor	Good_deeds	30	You have intentionally let others cut in line	C2_11	0.0	Hard	I1_31	49	Obama is the USA president now	0.0	Yes	RIGHT	2469.3543	RIGHT	847.3661	LEFT	1423.5282	LEFT	4483.7259	33.7	0.1	Probable_Lie	RIGHT	RIGHT	2	898.0121784	128	32:39.4
115	Computer	S201105	0.666666667	1	2	1	2	0.5	1500.000003	1150.000002	1783.333337	2066.666671	Major	Good_deeds	8	You have adopted a zero-waste lifestyle	C2_23	1.0	Hard	I2_5	33	The sun rises at night	0.0	No	LEFT	578.4947	LEFT	167.2134	LEFT	1057.1592	RIGHT	3102.9497	33.7	0.5	Probable_Truth	LEFT	RIGHT	4	828.2562896	129	33:04.2
125	Computer	S201105	0.666666667	2	1	2	1	0.8	1150.000002	1216.666669	2350.000005	2350.000005	Minor	Good_deeds	37	You have followed instructions	C1_37	0.65	Hard	I2_4	45	The Amazon forest covers an area of 1 billion acres	0.888888889	Yes	LEFT	48.3831	LEFT	1632.3859	RIGHT	1815.4039	RIGHT	1999.4979	33.7	0.8	Probable_Lie	LEFT	RIGHT	1	847.5325584	130	33:30.2
40	Self	S201105	0.833333333	2	1	1	2	0.8	1150.000002	1000.000002	2066.666671	1933.333337	Minor	Good_deeds	44	You have told someone's secret to others	C1_12	0.8	Hard	I1_60	38	Slavery was abolished in Cuba in 1886	0.055555556	No	RIGHT	56.0828	RIGHT	318.3324	RIGHT	1334.4041	LEFT	1971.2702	34.5	0.8	Probable_Lie	LEFT	LEFT	3	1887.6183	131	33:54.5
118	Computer	S201105	0.666666667	1	2	2	1	0.6	1216.666669	1500.000003	2216.666671	2500.000005	Minor	Wrong_doings	14	You have assisted in a crime	C2_8	0.45	Hard	I1_33	5	Fibers in oranges can be used to make fabric	0.055555556	Yes	LEFT	1142.1654	LEFT	87.0241	RIGHT	2189.071	LEFT	1032.1696	34.5	0.6	Probable_Lie	RIGHT	LEFT	5	606.2493151	132	34:19.6
3	Self	S201105	0.5	1	2	1	2	0.2	1500.000003	1283.333336	1783.333337	2350.000005	Minor	Good_deeds	30	You have intentionally let others cut in line	C2_11	0.0	Hard	I1_31	49	Obama is the USA president now	0.0	Yes	LEFT	938.2864	RIGHT	64.5255	LEFT	1024.4108	LEFT	1057.0164	34.3	0.2	Probable_Lie	LEFT	LEFT	5	1513.0916	133	34:43.7
75	Self	S201105	0.666666667	2	1	1	2	0.2	1350.000003	1433.333336	1500.000003	2216.666671	Major	Wrong_doings	31	You have bribed someone to improve a grade	C1_29	0.95	Easy	I1_40	35	Lehman Brothers went bankrupt on 20th September	0.0	Yes	RIGHT	295.6428	RIGHT	853.717	LEFT	1255.9959	LEFT	1759.5194	34.5	0.2	Probable_Truth	LEFT	LEFT	1	973.3281	134	35:07.9
37	Self	S201105	0.833333333	1	2	2	1	0.4	1433.333336	1433.333336	1650.000003	1500.000003	Minor	Wrong_doings	1	You have switched off appliances when not in use	C1_28	1.0	Hard	I2_17	41	Brazil is in South America	0.944444444	Yes	LEFT	799.8367	RIGHT	1216.2166	RIGHT	1533.2291	RIGHT	1406.6048	34.1	0.4	Probable_Lie	LEFT	LEFT	6	644.0044	135	35:32.1
23	Self	S201105	0.666666667	1	2	2	1	0.7	1066.666669	1000.000002	1783.333337	1500.000003	Major	Wrong_doings	34	You have watched an M18 movie when you were underage	C2_34	0.05	Easy	I1_9	52	Teddy Roosevelt was the youngest US President	0.0	No	LEFT	3017.3037	LEFT	336.7568	LEFT	1644.2406	LEFT	942.4854	34.1	0.7	Probable_Lie	LEFT	LEFT	6	557.2929	136	35:56.5
11	Self	S201105	0.5	2	1	1	2	0.7	1283.333336	1283.333336	2500.000005	2066.666671	Minor	Good_deeds	6	You have borrowed things and never returned	C2_46	0.0	Easy	I2_43	44	Septicemia is a lung infection condition	0.777777778	Yes	LEFT	232.773	RIGHT	1413.3056	RIGHT	1287.2977	LEFT	1510.7162	33.4	0.7	Probable_Lie	RIGHT	RIGHT	2	792.2038	137	36:21.4
123	Computer	S201105	0.666666667	2	1	1	2	0.7	1066.666669	1000.000002	1933.333337	1783.333337	Minor	Wrong_doings	17	You have stolen something	C1_3	0.95	Hard	I2_3	4	Malay is one of the races in Singapore	0.833333333	Yes	RIGHT	335.356	LEFT	677.0876	RIGHT	1551.283	LEFT	874.3584	33.4	0.7	Probable_Truth	RIGHT	LEFT	1	590.7773885	138	36:43.8
124	Computer	S201105	0.666666667	2	1	2	1	0.1	1216.666669	1150.000002	1500.000003	1933.333337	Major	Good_deeds	33	You have engaged in arson	C2_17	0.0	Easy	I1_4	13	Beer is an alcoholic drink	0.0	No	LEFT	503.3141	LEFT	953.2167	RIGHT	1330.5712	LEFT	1039.8068	33.4	0.1	Probable_Lie	RIGHT	RIGHT	2	802.2459365	139	37:06.8
81	Self	S201105	0.833333333	1	2	1	2	0.1	1500.000003	1150.000002	2350.000005	2066.666671	Minor	Good_deeds	36	You have sorted your trash into recycling bin	C1_36	0.05	Easy	I2_55	12	Beef comes from cows	0.888888889	No	RIGHT	451.1927	RIGHT	264.2831	RIGHT	1623.6232	RIGHT	2908.5311	33.5	0.1	Probable_Truth	RIGHT	RIGHT	4	1370.6999	140	37:33.1
7	Self	S201105	0.5	1	2	2	1	0.1	1216.666669	1433.333336	2500.000005	1500.000003	Minor	Good_deeds	54	You have confessed to your mistake	C1_30	0.0	Easy	I1_14	41	There are 6 million animal species on Earth	0.611111111	Yes	LEFT	661.441	RIGHT	1094.8478	RIGHT	2093.2761	RIGHT	1406.8129	33.4	0.1	Probable_Lie	LEFT	RIGHT	1	693.1255	141	37:58.3
25	Self	S201105	0.666666667	2	1	1	2	0.5	1066.666669	1283.333336	2350.000005	2066.666671	Minor	Good_deeds	7	You have held the door open for a stranger	C1_5	0.0	Easy	I1_13	33	There are 6000 spoken languages in the World	0.0	No	LEFT	288.36	RIGHT	1002.1915	RIGHT	1320.1297	RIGHT	1470.4284	32.9	0.5	Probable_Lie	LEFT	LEFT	5	798.7283	142	38:22.5
101	Computer	S201105	0.5	1	2	2	1	0.2	1433.333336	1500.000003	1933.333337	2350.000005	Major	Wrong_doings	11	You have a non-judgmental attitude towards everyone	C2_45	0.65	Easy	I2_49	14	The Franco-Prussian War occurred in the 19th century	0.0	No	LEFT	321.0195	LEFT	280.364	LEFT	1419.1097	RIGHT	1583.2263	32.9	0.2	Probable_Lie	LEFT	RIGHT	3	985.6553531	143	38:46.9
