"Participant"	"Task"	"Stimulus_Side"	"Response"	"RT"	"ITI"	"Previous_Response"	"Previous_RT"	"Stop_Signal"	"Stop_Signal_RT"	"Conflict"	"Cue_Response"	"Cue_Response_RT"	"Trial_Onset"	"Trial_End"	"Trial_Order"	"Duration"
"S210217"	"Conflict_Resolution"	"LEFT"	"LEFT"	1315.97539999996	1216.6666691	n/a	n/a	n/a	n/a	"True"	n/a	n/a	"2021-02-17 14:14:13.773734"	"2021-02-17 14:14:15.297266"	1	5.95822213333333
"S210217"	"Conflict_Resolution"	"RIGHT"	"RIGHT"	593.152500000087	1100.0000022	n/a	n/a	n/a	n/a	"True"	n/a	n/a	"2021-02-17 14:14:16.416463"	"2021-02-17 14:14:17.216876"	2	5.95822213333333
"S210217"	"Conflict_Resolution"	"LEFT"	"LEFT"	488.621999999964	733.3333348	n/a	n/a	n/a	n/a	"False"	n/a	n/a	"2021-02-17 14:14:17.968902"	"2021-02-17 14:14:18.666159"	3	5.95822213333333
"S210217"	"Conflict_Resolution"	"RIGHT"	"RIGHT"	541.19849999995	583.3333345	n/a	n/a	n/a	n/a	"True"	n/a	n/a	"2021-02-17 14:14:19.268200"	"2021-02-17 14:14:20.017795"	4	5.95822213333333
"S210217"	"Conflict_Resolution"	"LEFT"	"LEFT"	580.625300000065	1016.6666687	n/a	n/a	n/a	n/a	"True"	n/a	n/a	"2021-02-17 14:14:21.053618"	"2021-02-17 14:14:21.842644"	5	5.95822213333333
"S210217"	"Conflict_Resolution"	"RIGHT"	"RIGHT"	515.74729999993	950.0000019	n/a	n/a	n/a	n/a	"False"	n/a	n/a	"2021-02-17 14:14:22.813703"	"2021-02-17 14:14:23.538656"	6	5.95822213333333
"S210217"	"Conflict_Resolution"	"LEFT"	"LEFT"	420.028699999989	1400.0000028	n/a	n/a	n/a	n/a	"False"	n/a	n/a	"2021-02-17 14:14:24.958047"	"2021-02-17 14:14:25.585922"	7	5.95822213333333
"S210217"	"Conflict_Resolution"	"LEFT"	"LEFT"	405.814699999951	783.3333349	n/a	n/a	n/a	n/a	"False"	n/a	n/a	"2021-02-17 14:14:26.388033"	"2021-02-17 14:14:27.002516"	8	5.95822213333333
"S210217"	"Conflict_Resolution"	"RIGHT"	"RIGHT"	382.360000000062	533.3333344	n/a	n/a	n/a	n/a	"False"	n/a	n/a	"2021-02-17 14:14:27.555106"	"2021-02-17 14:14:28.147184"	9	5.95822213333333
"S210217"	"Conflict_Resolution"	"RIGHT"	"RIGHT"	594.631199999981	1233.3333358	n/a	n/a	n/a	n/a	"True"	n/a	n/a	"2021-02-17 14:14:29.398890"	"2021-02-17 14:14:30.201998"	10	5.95822213333333
"S210217"	"Conflict_Resolution"	"LEFT"	"LEFT"	541.009099999997	1400.0000028	n/a	n/a	n/a	n/a	"True"	n/a	n/a	"2021-02-17 14:14:31.621362"	"2021-02-17 14:14:32.370358"	11	5.95822213333333
"S210217"	"Conflict_Resolution"	"RIGHT"	"RIGHT"	490.659499999992	1433.3333362	n/a	n/a	n/a	n/a	"True"	n/a	n/a	"2021-02-17 14:14:33.823113"	"2021-02-17 14:14:34.522292"	12	5.95822213333333
"S210217"	"Conflict_Resolution"	"LEFT"	"LEFT"	407.668199999989	1316.6666693	n/a	n/a	n/a	n/a	"False"	n/a	n/a	"2021-02-17 14:14:35.857873"	"2021-02-17 14:14:36.473263"	13	5.95822213333333
"S210217"	"Conflict_Resolution"	"RIGHT"	"RIGHT"	407.239899999922	1333.333336	n/a	n/a	n/a	n/a	"False"	n/a	n/a	"2021-02-17 14:14:37.826931"	"2021-02-17 14:14:38.442367"	14	5.95822213333333
"S210217"	"Conflict_Resolution"	"LEFT"	"LEFT"	429.803699999979	1150.0000023	n/a	n/a	n/a	n/a	"False"	n/a	n/a	"2021-02-17 14:14:39.612182"	"2021-02-17 14:14:40.250254"	15	5.95822213333333
"S210217"	"Conflict_Resolution"	"RIGHT"	"RIGHT"	500.506300000097	1000.000002	n/a	n/a	n/a	n/a	"True"	n/a	n/a	"2021-02-17 14:14:41.269614"	"2021-02-17 14:14:41.978242"	16	5.95822213333333
"S210217"	"Conflict_Resolution"	"RIGHT"	"RIGHT"	651.455300000066	633.3333346	n/a	n/a	n/a	n/a	"True"	n/a	n/a	"2021-02-17 14:14:42.630135"	"2021-02-17 14:14:43.489104"	17	5.95822213333333
"S210217"	"Conflict_Resolution"	"RIGHT"	"RIGHT"	355.673400000001	633.3333346	n/a	n/a	n/a	n/a	"False"	n/a	n/a	"2021-02-17 14:14:44.141973"	"2021-02-17 14:14:44.705101"	18	5.95822213333333
"S210217"	"Conflict_Resolution"	"LEFT"	"LEFT"	387.829099999976	633.3333346	n/a	n/a	n/a	n/a	"False"	n/a	n/a	"2021-02-17 14:14:45.358467"	"2021-02-17 14:14:45.953345"	19	5.95822213333333
"S210217"	"Conflict_Resolution"	"LEFT"	"LEFT"	446.514799999932	1166.666669	n/a	n/a	n/a	n/a	"True"	n/a	n/a	"2021-02-17 14:14:47.139011"	"2021-02-17 14:14:47.794383"	20	5.95822213333333
"S210217"	"Conflict_Resolution"	"RIGHT"	"RIGHT"	341.125000000034	1183.3333357	n/a	n/a	n/a	n/a	"False"	n/a	n/a	"2021-02-17 14:14:48.996845"	"2021-02-17 14:14:49.545747"	21	5.95822213333333
"S210217"	"Conflict_Resolution"	"RIGHT"	"RIGHT"	370.669399999997	1050.0000021	n/a	n/a	n/a	n/a	"False"	n/a	n/a	"2021-02-17 14:14:50.615125"	"2021-02-17 14:14:51.193576"	22	5.95822213333333
"S210217"	"Conflict_Resolution"	"RIGHT"	"LEFT"	409.945600000015	683.3333347	n/a	n/a	n/a	n/a	"True"	n/a	n/a	"2021-02-17 14:14:51.895359"	"2021-02-17 14:14:52.512898"	23	5.95822213333333
"S210217"	"Conflict_Resolution"	"LEFT"	"LEFT"	498.419300000023	866.6666684	n/a	n/a	n/a	n/a	"True"	n/a	n/a	"2021-02-17 14:14:53.398740"	"2021-02-17 14:14:54.105003"	24	5.95822213333333
"S210217"	"Conflict_Resolution"	"LEFT"	"LEFT"	474.032400000056	1300.0000026	n/a	n/a	n/a	n/a	"True"	n/a	n/a	"2021-02-17 14:14:55.424123"	"2021-02-17 14:14:56.105056"	25	5.95822213333333
"S210217"	"Conflict_Resolution"	"LEFT"	"LEFT"	457.290599999965	916.6666685	n/a	n/a	n/a	n/a	"True"	n/a	n/a	"2021-02-17 14:14:57.040113"	"2021-02-17 14:14:57.706587"	26	5.95822213333333
"S210217"	"Conflict_Resolution"	"LEFT"	"LEFT"	547.114400000055	1016.6666687	n/a	n/a	n/a	n/a	"False"	n/a	n/a	"2021-02-17 14:14:58.742037"	"2021-02-17 14:14:59.498422"	27	5.95822213333333
"S210217"	"Conflict_Resolution"	"LEFT"	"LEFT"	472.668999999996	900.0000018	n/a	n/a	n/a	n/a	"False"	n/a	n/a	"2021-02-17 14:15:00.417484"	"2021-02-17 14:15:01.098105"	28	5.95822213333333
"S210217"	"Conflict_Resolution"	"RIGHT"	"RIGHT"	471.071300000062	533.3333344	n/a	n/a	n/a	n/a	"True"	n/a	n/a	"2021-02-17 14:15:01.650261"	"2021-02-17 14:15:02.330446"	29	5.95822213333333
"S210217"	"Conflict_Resolution"	"LEFT"	"LEFT"	559.780300000057	1116.6666689	n/a	n/a	n/a	n/a	"True"	n/a	n/a	"2021-02-17 14:15:03.465733"	"2021-02-17 14:15:04.233152"	30	5.95822213333333
"S210217"	"Conflict_Resolution"	"RIGHT"	"RIGHT"	400.115600000049	1483.3333363	n/a	n/a	n/a	n/a	"False"	n/a	n/a	"2021-02-17 14:15:05.737767"	"2021-02-17 14:15:06.346435"	31	5.95822213333333
"S210217"	"Conflict_Resolution"	"RIGHT"	"RIGHT"	429.157099999998	1383.3333361	n/a	n/a	n/a	n/a	"False"	n/a	n/a	"2021-02-17 14:15:07.748549"	"2021-02-17 14:15:08.385387"	32	5.95822213333333
"S210217"	"Conflict_Resolution"	"RIGHT"	"RIGHT"	402.10460000003	1083.3333355	n/a	n/a	n/a	n/a	"False"	n/a	n/a	"2021-02-17 14:15:09.487947"	"2021-02-17 14:15:10.097302"	33	5.95822213333333
"S210217"	"Conflict_Resolution"	"RIGHT"	"RIGHT"	407.930100000044	1133.3333356	n/a	n/a	n/a	n/a	"False"	n/a	n/a	"2021-02-17 14:15:11.249595"	"2021-02-17 14:15:11.866577"	34	5.95822213333333
"S210217"	"Conflict_Resolution"	"RIGHT"	"RIGHT"	378.164300000094	650.0000013	n/a	n/a	n/a	n/a	"False"	n/a	n/a	"2021-02-17 14:15:12.535202"	"2021-02-17 14:15:13.121309"	35	5.95822213333333
"S210217"	"Conflict_Resolution"	"LEFT"	"LEFT"	460.455899999943	1416.6666695	n/a	n/a	n/a	n/a	"True"	n/a	n/a	"2021-02-17 14:15:14.557780"	"2021-02-17 14:15:15.226289"	36	5.95822213333333
"S210217"	"Conflict_Resolution"	"RIGHT"	"RIGHT"	495.761300000026	1316.6666693	n/a	n/a	n/a	n/a	"True"	n/a	n/a	"2021-02-17 14:15:16.561901"	"2021-02-17 14:15:17.265400"	37	5.95822213333333
"S210217"	"Conflict_Resolution"	"RIGHT"	"RIGHT"	443.968899999959	833.333335	n/a	n/a	n/a	n/a	"False"	n/a	n/a	"2021-02-17 14:15:18.118306"	"2021-02-17 14:15:18.770558"	38	5.95822213333333
"S210217"	"Conflict_Resolution"	"LEFT"	"LEFT"	427.464799999939	783.3333349	n/a	n/a	n/a	n/a	"True"	n/a	n/a	"2021-02-17 14:15:19.574130"	"2021-02-17 14:15:20.209012"	39	5.95822213333333
"S210217"	"Conflict_Resolution"	"RIGHT"	"RIGHT"	464.78710000008	1333.333336	n/a	n/a	n/a	n/a	"True"	n/a	n/a	"2021-02-17 14:15:21.561380"	"2021-02-17 14:15:22.233638"	40	5.95822213333333
"S210217"	"Conflict_Resolution"	"LEFT"	"LEFT"	424.053399999934	516.6666677	n/a	n/a	n/a	n/a	"False"	n/a	n/a	"2021-02-17 14:15:22.770204"	"2021-02-17 14:15:23.402487"	41	5.95822213333333
"S210217"	"Conflict_Resolution"	"RIGHT"	"RIGHT"	509.536199999957	1366.6666694	n/a	n/a	n/a	n/a	"False"	n/a	n/a	"2021-02-17 14:15:24.788587"	"2021-02-17 14:15:25.504791"	42	5.95822213333333
"S210217"	"Conflict_Resolution"	"LEFT"	"LEFT"	402.162599999997	1066.6666688	n/a	n/a	n/a	n/a	"False"	n/a	n/a	"2021-02-17 14:15:26.592031"	"2021-02-17 14:15:27.201302"	43	5.95822213333333
"S210217"	"Conflict_Resolution"	"LEFT"	"LEFT"	549.50939999992	1200.0000024	n/a	n/a	n/a	n/a	"True"	n/a	n/a	"2021-02-17 14:15:28.420576"	"2021-02-17 14:15:29.177079"	44	5.95822213333333
"S210217"	"Conflict_Resolution"	"LEFT"	"LEFT"	399.253499999986	1350.0000027	n/a	n/a	n/a	n/a	"False"	n/a	n/a	"2021-02-17 14:15:30.546644"	"2021-02-17 14:15:31.153764"	45	5.95822213333333
"S210217"	"Conflict_Resolution"	"LEFT"	"LEFT"	503.004399999895	950.0000019	n/a	n/a	n/a	n/a	"True"	n/a	n/a	"2021-02-17 14:15:32.122681"	"2021-02-17 14:15:32.834350"	46	5.95822213333333
"S210217"	"Conflict_Resolution"	"LEFT"	"LEFT"	399.761699999999	1116.6666689	n/a	n/a	n/a	n/a	"False"	n/a	n/a	"2021-02-17 14:15:33.970407"	"2021-02-17 14:15:34.578573"	47	5.95822213333333
"S210217"	"Conflict_Resolution"	"RIGHT"	"RIGHT"	393.079999999941	683.3333347	n/a	n/a	n/a	n/a	"False"	n/a	n/a	"2021-02-17 14:15:35.280736"	"2021-02-17 14:15:35.882216"	48	5.95822213333333
"S210217"	"Conflict_Resolution"	"RIGHT"	"RIGHT"	421.42530000001	983.3333353	n/a	n/a	n/a	n/a	"True"	n/a	n/a	"2021-02-17 14:15:36.884147"	"2021-02-17 14:15:37.513221"	49	5.95822213333333
"S210217"	"Conflict_Resolution"	"RIGHT"	"RIGHT"	550.376200000073	1383.3333361	n/a	n/a	n/a	n/a	"True"	n/a	n/a	"2021-02-17 14:15:38.915604"	"2021-02-17 14:15:39.674525"	50	5.95822213333333
"S210217"	"Conflict_Resolution"	"LEFT"	"LEFT"	476.265900000044	816.6666683	n/a	n/a	n/a	n/a	"True"	n/a	n/a	"2021-02-17 14:15:40.510341"	"2021-02-17 14:15:41.193900"	51	5.95822213333333
"S210217"	"Conflict_Resolution"	"LEFT"	"LEFT"	395.099899999991	850.0000017	n/a	n/a	n/a	n/a	"False"	n/a	n/a	"2021-02-17 14:15:42.062929"	"2021-02-17 14:15:42.666605"	52	5.95822213333333
"S210217"	"Conflict_Resolution"	"LEFT"	"LEFT"	473.605799999973	850.0000017	n/a	n/a	n/a	n/a	"True"	n/a	n/a	"2021-02-17 14:15:43.536564"	"2021-02-17 14:15:44.216872"	53	5.95822213333333
"S210217"	"Conflict_Resolution"	"RIGHT"	"RIGHT"	471.398399999998	750.0000015	n/a	n/a	n/a	n/a	"True"	n/a	n/a	"2021-02-17 14:15:44.985885"	"2021-02-17 14:15:45.665093"	54	5.95822213333333
"S210217"	"Conflict_Resolution"	"LEFT"	"LEFT"	386.294499999963	683.3333347	n/a	n/a	n/a	n/a	"False"	n/a	n/a	"2021-02-17 14:15:46.367934"	"2021-02-17 14:15:46.962499"	55	5.95822213333333
"S210217"	"Conflict_Resolution"	"LEFT"	"LEFT"	367.937999999981	716.6666681	n/a	n/a	n/a	n/a	"False"	n/a	n/a	"2021-02-17 14:15:47.697544"	"2021-02-17 14:15:48.273004"	56	5.95822213333333
"S210217"	"Conflict_Resolution"	"RIGHT"	"RIGHT"	525.832700000024	1416.6666695	n/a	n/a	n/a	n/a	"True"	n/a	n/a	"2021-02-17 14:15:49.708361"	"2021-02-17 14:15:50.440726"	57	5.95822213333333
"S210217"	"Conflict_Resolution"	"LEFT"	"LEFT"	512.502100000006	683.3333347	n/a	n/a	n/a	n/a	"True"	n/a	n/a	"2021-02-17 14:15:51.144948"	"2021-02-17 14:15:51.866231"	58	5.95822213333333
"S210217"	"Conflict_Resolution"	"LEFT"	"LEFT"	384.03100000005	1100.0000022	n/a	n/a	n/a	n/a	"False"	n/a	n/a	"2021-02-17 14:15:52.985860"	"2021-02-17 14:15:53.578504"	59	5.95822213333333
"S210217"	"Conflict_Resolution"	"LEFT"	"LEFT"	372.100699999919	1000.000002	n/a	n/a	n/a	n/a	"False"	n/a	n/a	"2021-02-17 14:15:54.597588"	"2021-02-17 14:15:55.178648"	60	5.95822213333333
"S210217"	"Conflict_Resolution"	"RIGHT"	"RIGHT"	433.898999999997	1466.6666696	n/a	n/a	n/a	n/a	"True"	n/a	n/a	"2021-02-17 14:15:56.664515"	"2021-02-17 14:15:57.305760"	61	5.95822213333333
"S210217"	"Conflict_Resolution"	"LEFT"	"LEFT"	413.779099999942	566.6666678	n/a	n/a	n/a	n/a	"False"	n/a	n/a	"2021-02-17 14:15:57.892290"	"2021-02-17 14:15:58.513178"	62	5.95822213333333
"S210217"	"Conflict_Resolution"	"LEFT"	"LEFT"	443.884700000012	616.6666679	n/a	n/a	n/a	n/a	"True"	n/a	n/a	"2021-02-17 14:15:59.149478"	"2021-02-17 14:15:59.801267"	63	5.95822213333333
"S210217"	"Conflict_Resolution"	"LEFT"	"LEFT"	382.806100000039	966.6666686	n/a	n/a	n/a	n/a	"False"	n/a	n/a	"2021-02-17 14:16:00.786942"	"2021-02-17 14:16:01.378359"	64	5.95822213333333
"S210217"	"Conflict_Resolution"	"LEFT"	"LEFT"	352.566300000035	1266.6666692	n/a	n/a	n/a	n/a	"False"	n/a	n/a	"2021-02-17 14:16:02.664684"	"2021-02-17 14:16:03.225688"	65	5.95822213333333
"S210217"	"Conflict_Resolution"	"LEFT"	"LEFT"	323.468199999979	1216.6666691	n/a	n/a	n/a	n/a	"False"	n/a	n/a	"2021-02-17 14:16:04.461977"	"2021-02-17 14:16:04.993555"	66	5.95822213333333
"S210217"	"Conflict_Resolution"	"RIGHT"	"RIGHT"	493.866199999957	1183.3333357	n/a	n/a	n/a	n/a	"True"	n/a	n/a	"2021-02-17 14:16:06.196052"	"2021-02-17 14:16:06.897176"	67	5.95822213333333
"S210217"	"Conflict_Resolution"	"RIGHT"	"RIGHT"	426.498300000048	1266.6666692	n/a	n/a	n/a	n/a	"False"	n/a	n/a	"2021-02-17 14:16:08.182775"	"2021-02-17 14:16:08.817039"	68	5.95822213333333
"S210217"	"Conflict_Resolution"	"RIGHT"	"RIGHT"	368.32620000007	733.3333348	n/a	n/a	n/a	n/a	"False"	n/a	n/a	"2021-02-17 14:16:09.569110"	"2021-02-17 14:16:10.146122"	69	5.95822213333333
"S210217"	"Conflict_Resolution"	"RIGHT"	"LEFT"	363.003299999946	1033.3333354	n/a	n/a	n/a	n/a	"True"	n/a	n/a	"2021-02-17 14:16:11.198990"	"2021-02-17 14:16:11.768989"	70	5.95822213333333
"S210217"	"Conflict_Resolution"	"RIGHT"	"RIGHT"	391.277400000035	550.0000011	n/a	n/a	n/a	n/a	"False"	n/a	n/a	"2021-02-17 14:16:12.338479"	"2021-02-17 14:16:12.938376"	71	5.95822213333333
"S210217"	"Conflict_Resolution"	"RIGHT"	"RIGHT"	445.694000000003	933.3333352	n/a	n/a	n/a	n/a	"True"	n/a	n/a	"2021-02-17 14:16:13.892299"	"2021-02-17 14:16:14.546637"	72	5.95822213333333
"S210217"	"Conflict_Resolution"	"LEFT"	"LEFT"	442.222300000026	1250.0000025	n/a	n/a	n/a	n/a	"True"	n/a	n/a	"2021-02-17 14:16:15.815747"	"2021-02-17 14:16:16.465409"	73	5.95822213333333
"S210217"	"Conflict_Resolution"	"RIGHT"	"RIGHT"	373.73690000004	983.3333353	n/a	n/a	n/a	n/a	"False"	n/a	n/a	"2021-02-17 14:16:17.468112"	"2021-02-17 14:16:18.049030"	74	5.95822213333333
"S210217"	"Conflict_Resolution"	"RIGHT"	"RIGHT"	393.565599999988	900.0000018	n/a	n/a	n/a	n/a	"False"	n/a	n/a	"2021-02-17 14:16:18.968655"	"2021-02-17 14:16:19.569862"	75	5.95822213333333
"S210217"	"Conflict_Resolution"	"RIGHT"	"RIGHT"	560.92799999999	700.0000014	n/a	n/a	n/a	n/a	"True"	n/a	n/a	"2021-02-17 14:16:20.289212"	"2021-02-17 14:16:21.057691"	76	5.95822213333333
"S210217"	"Conflict_Resolution"	"RIGHT"	"RIGHT"	383.238399999982	1150.0000023	n/a	n/a	n/a	n/a	"False"	n/a	n/a	"2021-02-17 14:16:22.226002"	"2021-02-17 14:16:22.817957"	77	5.95822213333333
"S210217"	"Conflict_Resolution"	"LEFT"	"LEFT"	392.970300000002	866.6666684	n/a	n/a	n/a	n/a	"False"	n/a	n/a	"2021-02-17 14:16:23.704364"	"2021-02-17 14:16:24.305905"	78	5.95822213333333
"S210217"	"Conflict_Resolution"	"LEFT"	"LEFT"	668.967099999918	1350.0000027	n/a	n/a	n/a	n/a	"True"	n/a	n/a	"2021-02-17 14:16:25.676218"	"2021-02-17 14:16:26.554180"	79	5.95822213333333
"S210217"	"Conflict_Resolution"	"LEFT"	"LEFT"	477.593200000001	533.3333344	n/a	n/a	n/a	n/a	"False"	n/a	n/a	"2021-02-17 14:16:27.107736"	"2021-02-17 14:16:27.792902"	80	5.95822213333333
"S210217"	"Conflict_Resolution"	"RIGHT"	"RIGHT"	355.843299999947	1233.3333358	n/a	n/a	n/a	n/a	"False"	n/a	n/a	"2021-02-17 14:16:29.045446"	"2021-02-17 14:16:29.609921"	81	5.95822213333333
"S210217"	"Conflict_Resolution"	"LEFT"	"LEFT"	471.861099999956	666.666668	n/a	n/a	n/a	n/a	"True"	n/a	n/a	"2021-02-17 14:16:30.298292"	"2021-02-17 14:16:30.979469"	82	5.95822213333333
"S210217"	"Conflict_Resolution"	"RIGHT"	"RIGHT"	460.0236	550.0000011	n/a	n/a	n/a	n/a	"True"	n/a	n/a	"2021-02-17 14:16:31.549600"	"2021-02-17 14:16:32.218825"	83	5.95822213333333
"S210217"	"Conflict_Resolution"	"RIGHT"	"RIGHT"	463.191100000017	1050.0000021	n/a	n/a	n/a	n/a	"True"	n/a	n/a	"2021-02-17 14:16:33.298147"	"2021-02-17 14:16:33.971403"	84	5.95822213333333
"S210217"	"Conflict_Resolution"	"LEFT"	"LEFT"	503.214500000013	583.3333345	n/a	n/a	n/a	n/a	"True"	n/a	n/a	"2021-02-17 14:16:34.577958"	"2021-02-17 14:16:35.293596"	85	5.95822213333333
"S210217"	"Conflict_Resolution"	"RIGHT"	"RIGHT"	464.39620000001	1483.3333363	n/a	n/a	n/a	n/a	"True"	n/a	n/a	"2021-02-17 14:16:36.801642"	"2021-02-17 14:16:37.477153"	86	5.95822213333333
"S210217"	"Conflict_Resolution"	"RIGHT"	"RIGHT"	431.209099999933	1316.6666693	n/a	n/a	n/a	n/a	"False"	n/a	n/a	"2021-02-17 14:16:38.818638"	"2021-02-17 14:16:39.458101"	87	5.95822213333333
"S210217"	"Conflict_Resolution"	"RIGHT"	"RIGHT"	427.54309999998	1133.3333356	n/a	n/a	n/a	n/a	"True"	n/a	n/a	"2021-02-17 14:16:40.614050"	"2021-02-17 14:16:41.250937"	88	5.95822213333333
"S210217"	"Conflict_Resolution"	"RIGHT"	"RIGHT"	537.42520000003	600.0000012	n/a	n/a	n/a	n/a	"False"	n/a	n/a	"2021-02-17 14:16:41.872282"	"2021-02-17 14:16:42.621825"	89	5.95822213333333
"S210217"	"Conflict_Resolution"	"RIGHT"	"RIGHT"	522.66069999996	500.000001	n/a	n/a	n/a	n/a	"True"	n/a	n/a	"2021-02-17 14:16:43.143432"	"2021-02-17 14:16:43.874146"	90	5.95822213333333
"S210217"	"Conflict_Resolution"	"LEFT"	"LEFT"	431.46749999994	733.3333348	n/a	n/a	n/a	n/a	"True"	n/a	n/a	"2021-02-17 14:16:44.626508"	"2021-02-17 14:16:45.266442"	91	5.95822213333333
"S210217"	"Conflict_Resolution"	"LEFT"	"LEFT"	442.682199999922	616.6666679	n/a	n/a	n/a	n/a	"False"	n/a	n/a	"2021-02-17 14:16:45.902483"	"2021-02-17 14:16:46.555284"	92	5.95822213333333
"S210217"	"Conflict_Resolution"	"RIGHT"	"RIGHT"	390.706499999965	1466.6666696	n/a	n/a	n/a	n/a	"False"	n/a	n/a	"2021-02-17 14:16:48.042853"	"2021-02-17 14:16:48.643227"	93	5.95822213333333
"S210217"	"Conflict_Resolution"	"RIGHT"	"RIGHT"	408.109600000103	1100.0000022	n/a	n/a	n/a	n/a	"False"	n/a	n/a	"2021-02-17 14:16:49.762444"	"2021-02-17 14:16:50.379298"	94	5.95822213333333
"S210217"	"Conflict_Resolution"	"LEFT"	"LEFT"	451.661800000011	1200.0000024	n/a	n/a	n/a	n/a	"False"	n/a	n/a	"2021-02-17 14:16:51.597753"	"2021-02-17 14:16:52.256987"	95	5.95822213333333
"S210217"	"Conflict_Resolution"	"RIGHT"	"RIGHT"	454.986899999994	750.0000015	n/a	n/a	n/a	n/a	"False"	n/a	n/a	"2021-02-17 14:16:53.027192"	"2021-02-17 14:16:53.689461"	96	5.95822213333333
"S210217"	"Conflict_Resolution"	"LEFT"	"LEFT"	436.794300000088	1416.6666695	n/a	n/a	n/a	n/a	"False"	n/a	n/a	"2021-02-17 14:16:55.124879"	"2021-02-17 14:16:55.768844"	97	5.95822213333333
"S210217"	"Conflict_Resolution"	"LEFT"	"LEFT"	379.185300000017	1466.6666696	n/a	n/a	n/a	n/a	"False"	n/a	n/a	"2021-02-17 14:16:57.254031"	"2021-02-17 14:16:57.842277"	98	5.95822213333333
"S210217"	"Conflict_Resolution"	"LEFT"	"RIGHT"	402.278600000045	1266.6666692	n/a	n/a	n/a	n/a	"True"	n/a	n/a	"2021-02-17 14:16:59.127581"	"2021-02-17 14:16:59.737948"	99	5.95822213333333
"S210217"	"Conflict_Resolution"	"RIGHT"	"RIGHT"	510.78960000018	500.000001	n/a	n/a	n/a	n/a	"False"	n/a	n/a	"2021-02-17 14:17:00.259325"	"2021-02-17 14:17:00.977094"	100	5.95822213333333
"S210217"	"Conflict_Resolution"	"LEFT"	"LEFT"	386.894700000084	1466.6666696	n/a	n/a	n/a	n/a	"True"	n/a	n/a	"2021-02-17 14:17:02.462901"	"2021-02-17 14:17:03.059339"	101	5.95822213333333
"S210217"	"Conflict_Resolution"	"RIGHT"	"RIGHT"	394.691299999977	1216.6666691	n/a	n/a	n/a	n/a	"False"	n/a	n/a	"2021-02-17 14:17:04.295224"	"2021-02-17 14:17:04.897612"	102	5.95822213333333
"S210217"	"Conflict_Resolution"	"RIGHT"	"RIGHT"	442.403499999955	1266.6666692	n/a	n/a	n/a	n/a	"True"	n/a	n/a	"2021-02-17 14:17:06.182926"	"2021-02-17 14:17:06.834483"	103	5.95822213333333
"S210217"	"Conflict_Resolution"	"LEFT"	"LEFT"	436.741199999915	766.6666682	n/a	n/a	n/a	n/a	"True"	n/a	n/a	"2021-02-17 14:17:07.620377"	"2021-02-17 14:17:08.266635"	104	5.95822213333333
"S210217"	"Conflict_Resolution"	"LEFT"	"LEFT"	567.149100000051	1316.6666693	n/a	n/a	n/a	n/a	"True"	n/a	n/a	"2021-02-17 14:17:09.602274"	"2021-02-17 14:17:10.377747"	105	5.95822213333333
"S210217"	"Conflict_Resolution"	"RIGHT"	"RIGHT"	556.006300000035	833.333335	n/a	n/a	n/a	n/a	"True"	n/a	n/a	"2021-02-17 14:17:11.230084"	"2021-02-17 14:17:11.993042"	106	5.95822213333333
"S210217"	"Conflict_Resolution"	"RIGHT"	"RIGHT"	430.622699999958	950.0000019	n/a	n/a	n/a	n/a	"True"	n/a	n/a	"2021-02-17 14:17:12.963452"	"2021-02-17 14:17:13.601106"	107	5.95822213333333
"S210217"	"Conflict_Resolution"	"LEFT"	"LEFT"	403.489699999909	1450.0000029	n/a	n/a	n/a	n/a	"False"	n/a	n/a	"2021-02-17 14:17:15.070546"	"2021-02-17 14:17:15.682291"	108	5.95822213333333
"S210217"	"Conflict_Resolution"	"RIGHT"	"RIGHT"	427.600999999868	850.0000017	n/a	n/a	n/a	n/a	"False"	n/a	n/a	"2021-02-17 14:17:16.551436"	"2021-02-17 14:17:17.187518"	109	5.95822213333333
"S210217"	"Conflict_Resolution"	"RIGHT"	"RIGHT"	412.486899999976	583.3333345	n/a	n/a	n/a	n/a	"False"	n/a	n/a	"2021-02-17 14:17:17.789424"	"2021-02-17 14:17:18.409314"	110	5.95822213333333
"S210217"	"Conflict_Resolution"	"LEFT"	"LEFT"	448.081999999886	533.3333344	n/a	n/a	n/a	n/a	"True"	n/a	n/a	"2021-02-17 14:17:18.961260"	"2021-02-17 14:17:19.617380"	111	5.95822213333333
"S210217"	"Conflict_Resolution"	"RIGHT"	"RIGHT"	409.468999999945	1083.3333355	n/a	n/a	n/a	n/a	"True"	n/a	n/a	"2021-02-17 14:17:20.720579"	"2021-02-17 14:17:21.337927"	112	5.95822213333333
"S210217"	"Conflict_Resolution"	"LEFT"	"LEFT"	536.734600000045	900.0000018	n/a	n/a	n/a	n/a	"True"	n/a	n/a	"2021-02-17 14:17:22.257130"	"2021-02-17 14:17:23.002689"	113	5.95822213333333
"S210217"	"Conflict_Resolution"	"RIGHT"	"RIGHT"	456.462300000112	883.3333351	n/a	n/a	n/a	n/a	"False"	n/a	n/a	"2021-02-17 14:17:23.904908"	"2021-02-17 14:17:24.569347"	114	5.95822213333333
"S210217"	"Conflict_Resolution"	"RIGHT"	"RIGHT"	944.730699999809	900.0000018	n/a	n/a	n/a	n/a	"True"	n/a	n/a	"2021-02-17 14:17:25.488477"	"2021-02-17 14:17:26.640733"	115	5.95822213333333
"S210217"	"Conflict_Resolution"	"RIGHT"	"RIGHT"	459.53059999988	650.0000013	n/a	n/a	n/a	n/a	"True"	n/a	n/a	"2021-02-17 14:17:27.310670"	"2021-02-17 14:17:27.978437"	116	5.95822213333333
"S210217"	"Conflict_Resolution"	"RIGHT"	"RIGHT"	468.012699999917	800.0000016	n/a	n/a	n/a	n/a	"True"	n/a	n/a	"2021-02-17 14:17:28.797293"	"2021-02-17 14:17:29.472795"	117	5.95822213333333
"S210217"	"Conflict_Resolution"	"LEFT"	"LEFT"	466.865699999971	1066.6666688	n/a	n/a	n/a	n/a	"True"	n/a	n/a	"2021-02-17 14:17:30.558554"	"2021-02-17 14:17:31.234458"	118	5.95822213333333
"S210217"	"Conflict_Resolution"	"LEFT"	"LEFT"	387.088899999981	816.6666683	n/a	n/a	n/a	n/a	"False"	n/a	n/a	"2021-02-17 14:17:32.070310"	"2021-02-17 14:17:32.666014"	119	5.95822213333333
"S210217"	"Conflict_Resolution"	"LEFT"	"LEFT"	446.483899999976	950.0000019	n/a	n/a	n/a	n/a	"False"	n/a	n/a	"2021-02-17 14:17:33.635126"	"2021-02-17 14:17:34.289493"	120	5.95822213333333
"S210217"	"Conflict_Resolution"	"LEFT"	"LEFT"	421.315099999902	583.3333345	n/a	n/a	n/a	n/a	"False"	n/a	n/a	"2021-02-17 14:17:34.892269"	"2021-02-17 14:17:35.521232"	121	5.95822213333333
"S210217"	"Conflict_Resolution"	"RIGHT"	"RIGHT"	329.899099999921	1283.3333359	n/a	n/a	n/a	n/a	"False"	n/a	n/a	"2021-02-17 14:17:36.824075"	"2021-02-17 14:17:37.361258"	122	5.95822213333333
"S210217"	"Conflict_Resolution"	"LEFT"	"LEFT"	441.423299999997	1100.0000022	n/a	n/a	n/a	n/a	"True"	n/a	n/a	"2021-02-17 14:17:38.479887"	"2021-02-17 14:17:39.130013"	123	5.95822213333333
"S210217"	"Conflict_Resolution"	"RIGHT"	"RIGHT"	545.330899999954	883.3333351	n/a	n/a	n/a	n/a	"True"	n/a	n/a	"2021-02-17 14:17:40.032804"	"2021-02-17 14:17:40.785095"	124	5.95822213333333
"S210217"	"Conflict_Resolution"	"RIGHT"	"RIGHT"	412.206800000149	1033.3333354	n/a	n/a	n/a	n/a	"False"	n/a	n/a	"2021-02-17 14:17:41.837198"	"2021-02-17 14:17:42.457023"	125	5.95822213333333
"S210217"	"Conflict_Resolution"	"LEFT"	"LEFT"	470.81130000015	1366.6666694	n/a	n/a	n/a	n/a	"False"	n/a	n/a	"2021-02-17 14:17:43.843117"	"2021-02-17 14:17:44.521511"	126	5.95822213333333
"S210217"	"Conflict_Resolution"	"LEFT"	"LEFT"	432.976300000064	1300.0000026	n/a	n/a	n/a	n/a	"False"	n/a	n/a	"2021-02-17 14:17:45.840268"	"2021-02-17 14:17:46.481598"	127	5.95822213333333
"S210217"	"Conflict_Resolution"	"RIGHT"	"RIGHT"	414.022899999964	783.3333349	n/a	n/a	n/a	n/a	"False"	n/a	n/a	"2021-02-17 14:17:47.283813"	"2021-02-17 14:17:47.906617"	128	5.95822213333333
"S210217"	"Conflict_Resolution"	"LEFT"	"LEFT"	444.914400000016	1366.6666694	n/a	n/a	n/a	n/a	"True"	n/a	n/a	"2021-02-17 14:17:49.292460"	"2021-02-17 14:17:49.946318"	129	5.95822213333333
"S210217"	"Conflict_Resolution"	"LEFT"	"LEFT"	415.93469999998	916.6666685	n/a	n/a	n/a	n/a	"False"	n/a	n/a	"2021-02-17 14:17:50.881267"	"2021-02-17 14:17:51.504807"	130	5.95822213333333
"S210217"	"Conflict_Resolution"	"LEFT"	"LEFT"	477.9367000001	1000.000002	n/a	n/a	n/a	n/a	"True"	n/a	n/a	"2021-02-17 14:17:52.523601"	"2021-02-17 14:17:53.210271"	131	5.95822213333333
"S210217"	"Conflict_Resolution"	"RIGHT"	"RIGHT"	448.228399999834	850.0000017	n/a	n/a	n/a	n/a	"True"	n/a	n/a	"2021-02-17 14:17:54.080943"	"2021-02-17 14:17:54.738184"	132	5.95822213333333
"S210217"	"Conflict_Resolution"	"LEFT"	"LEFT"	511.669600000005	516.6666677	n/a	n/a	n/a	n/a	"True"	n/a	n/a	"2021-02-17 14:17:55.273762"	"2021-02-17 14:17:55.993635"	133	5.95822213333333
"S210217"	"Conflict_Resolution"	"LEFT"	"LEFT"	571.124800000007	1450.0000029	n/a	n/a	n/a	n/a	"True"	n/a	n/a	"2021-02-17 14:17:57.462812"	"2021-02-17 14:17:58.243234"	134	5.95822213333333
"S210217"	"Conflict_Resolution"	"RIGHT"	"RIGHT"	485.635199999933	733.3333348	n/a	n/a	n/a	n/a	"True"	n/a	n/a	"2021-02-17 14:17:58.996303"	"2021-02-17 14:17:59.689605"	135	5.95822213333333
"S210217"	"Conflict_Resolution"	"RIGHT"	"RIGHT"	511.220099999946	1150.0000023	n/a	n/a	n/a	n/a	"True"	n/a	n/a	"2021-02-17 14:18:00.858041"	"2021-02-17 14:18:01.577656"	136	5.95822213333333
"S210217"	"Conflict_Resolution"	"RIGHT"	"RIGHT"	383.410200000071	933.3333352	n/a	n/a	n/a	n/a	"False"	n/a	n/a	"2021-02-17 14:18:02.530367"	"2021-02-17 14:18:03.121081"	137	5.95822213333333
"S210217"	"Conflict_Resolution"	"LEFT"	"LEFT"	419.007800000145	666.666668	n/a	n/a	n/a	n/a	"False"	n/a	n/a	"2021-02-17 14:18:03.806443"	"2021-02-17 14:18:04.433688"	138	5.95822213333333
"S210217"	"Conflict_Resolution"	"RIGHT"	"RIGHT"	477.333000000044	783.3333349	n/a	n/a	n/a	n/a	"True"	n/a	n/a	"2021-02-17 14:18:05.236685"	"2021-02-17 14:18:05.920854"	139	5.95822213333333
"S210217"	"Conflict_Resolution"	"LEFT"	"LEFT"	404.970400000138	1166.666669	n/a	n/a	n/a	n/a	"False"	n/a	n/a	"2021-02-17 14:18:07.108585"	"2021-02-17 14:18:07.722592"	140	5.95822213333333
"S210217"	"Conflict_Resolution"	"RIGHT"	"RIGHT"	417.806700000028	1433.3333362	n/a	n/a	n/a	n/a	"False"	n/a	n/a	"2021-02-17 14:18:09.175334"	"2021-02-17 14:18:09.801005"	141	5.95822213333333
"S210217"	"Conflict_Resolution"	"LEFT"	"LEFT"	452.947499999937	1050.0000021	n/a	n/a	n/a	n/a	"True"	n/a	n/a	"2021-02-17 14:18:10.869280"	"2021-02-17 14:18:11.529914"	142	5.95822213333333
"S210217"	"Conflict_Resolution"	"RIGHT"	"RIGHT"	405.143799999905	1000.000002	n/a	n/a	n/a	n/a	"False"	n/a	n/a	"2021-02-17 14:18:12.548223"	"2021-02-17 14:18:13.161421"	143	5.95822213333333
"S210217"	"Conflict_Resolution"	"RIGHT"	"RIGHT"	356.368499999917	1416.6666695	n/a	n/a	n/a	n/a	"False"	n/a	n/a	"2021-02-17 14:18:14.596654"	"2021-02-17 14:18:15.161211"	144	5.95822213333333
"S210217"	"Conflict_Resolution"	"RIGHT"	"RIGHT"	532.662299999856	1216.6666691	n/a	n/a	n/a	n/a	"True"	n/a	n/a	"2021-02-17 14:18:16.397164"	"2021-02-17 14:18:17.136976"	145	5.95822213333333
"S210217"	"Conflict_Resolution"	"LEFT"	"LEFT"	564.564700000119	633.3333346	n/a	n/a	n/a	n/a	"True"	n/a	n/a	"2021-02-17 14:18:17.789350"	"2021-02-17 14:18:18.562282"	146	5.95822213333333
"S210217"	"Conflict_Resolution"	"LEFT"	"LEFT"	397.12970000005	1500.000003	n/a	n/a	n/a	n/a	"False"	n/a	n/a	"2021-02-17 14:18:20.084765"	"2021-02-17 14:18:20.689008"	147	5.95822213333333
"S210217"	"Conflict_Resolution"	"LEFT"	"LEFT"	494.852199999968	566.6666678	n/a	n/a	n/a	n/a	"True"	n/a	n/a	"2021-02-17 14:18:21.274453"	"2021-02-17 14:18:21.976889"	148	5.95822213333333
"S210217"	"Conflict_Resolution"	"RIGHT"	"RIGHT"	437.63940000008	600.0000012	n/a	n/a	n/a	n/a	"True"	n/a	n/a	"2021-02-17 14:18:22.595776"	"2021-02-17 14:18:23.241082"	149	5.95822213333333
"S210217"	"Conflict_Resolution"	"RIGHT"	"RIGHT"	384.416099999953	700.0000014	n/a	n/a	n/a	n/a	"False"	n/a	n/a	"2021-02-17 14:18:23.961535"	"2021-02-17 14:18:24.554453"	150	5.95822213333333
"S210217"	"Conflict_Resolution"	"RIGHT"	"RIGHT"	389.113899999984	1366.6666694	n/a	n/a	n/a	n/a	"True"	n/a	n/a	"2021-02-17 14:18:25.940370"	"2021-02-17 14:18:26.537100"	151	5.95822213333333
"S210217"	"Conflict_Resolution"	"LEFT"	"LEFT"	454.88320000004	966.6666686	n/a	n/a	n/a	n/a	"True"	n/a	n/a	"2021-02-17 14:18:27.523184"	"2021-02-17 14:18:28.185555"	152	5.95822213333333
"S210217"	"Conflict_Resolution"	"RIGHT"	"RIGHT"	465.257099999917	1283.3333359	n/a	n/a	n/a	n/a	"True"	n/a	n/a	"2021-02-17 14:18:29.488464"	"2021-02-17 14:18:30.160806"	153	5.95822213333333
"S210217"	"Conflict_Resolution"	"RIGHT"	"RIGHT"	461.175600000161	800.0000016	n/a	n/a	n/a	n/a	"False"	n/a	n/a	"2021-02-17 14:18:30.980079"	"2021-02-17 14:18:31.648803"	154	5.95822213333333
"S210217"	"Conflict_Resolution"	"LEFT"	"LEFT"	413.188900000023	766.6666682	n/a	n/a	n/a	n/a	"False"	n/a	n/a	"2021-02-17 14:18:32.436207"	"2021-02-17 14:18:33.057429"	155	5.95822213333333
"S210217"	"Conflict_Resolution"	"LEFT"	"RIGHT"	480.818400000089	1500.000003	n/a	n/a	n/a	n/a	"True"	n/a	n/a	"2021-02-17 14:18:34.576319"	"2021-02-17 14:18:35.265446"	156	5.95822213333333
"S210217"	"Conflict_Resolution"	"LEFT"	"LEFT"	388.448200000084	1050.0000021	n/a	n/a	n/a	n/a	"False"	n/a	n/a	"2021-02-17 14:18:36.334166"	"2021-02-17 14:18:36.930293"	157	5.95822213333333
"S210217"	"Conflict_Resolution"	"LEFT"	"LEFT"	551.80960000007	716.6666681	n/a	n/a	n/a	n/a	"True"	n/a	n/a	"2021-02-17 14:18:37.665359"	"2021-02-17 14:18:38.425152"	158	5.95822213333333
"S210217"	"Conflict_Resolution"	"LEFT"	"LEFT"	378.864999999905	1250.0000025	n/a	n/a	n/a	n/a	"False"	n/a	n/a	"2021-02-17 14:18:39.694498"	"2021-02-17 14:18:40.280764"	159	5.95822213333333
"S210217"	"Conflict_Resolution"	"LEFT"	"LEFT"	559.680499999786	1150.0000023	n/a	n/a	n/a	n/a	"True"	n/a	n/a	"2021-02-17 14:18:41.449498"	"2021-02-17 14:18:42.217043"	160	5.95822213333333
"S210217"	"Processing_Speed"	"LEFT"	"DOWN"	668.870599999991	1300.0000026	n/a	n/a	n/a	n/a	n/a	n/a	n/a	"2021-02-17 14:02:08.845505"	"2021-02-17 14:02:09.734716"	1	2.0838839
"S210217"	"Processing_Speed"	"LEFT"	"DOWN"	371.741299999996	600.0000012	n/a	n/a	n/a	n/a	n/a	n/a	n/a	"2021-02-17 14:02:10.343328"	"2021-02-17 14:02:10.922609"	2	2.0838839
"S210217"	"Processing_Speed"	"RIGHT"	"DOWN"	319.708099999986	1400.0000028	n/a	n/a	n/a	n/a	n/a	n/a	n/a	"2021-02-17 14:02:12.331313"	"2021-02-17 14:02:12.859405"	3	2.0838839
"S210217"	"Processing_Speed"	"RIGHT"	"DOWN"	331.432499999977	1083.3333355	n/a	n/a	n/a	n/a	n/a	n/a	n/a	"2021-02-17 14:02:13.951062"	"2021-02-17 14:02:14.490268"	4	2.0838839
"S210217"	"Processing_Speed"	"LEFT"	"DOWN"	329.129800000004	983.3333353	n/a	n/a	n/a	n/a	n/a	n/a	n/a	"2021-02-17 14:02:15.482023"	"2021-02-17 14:02:16.019613"	5	2.0838839
"S210217"	"Processing_Speed"	"RIGHT"	"DOWN"	322.443399999997	1300.0000026	n/a	n/a	n/a	n/a	n/a	n/a	n/a	"2021-02-17 14:02:17.328229"	"2021-02-17 14:02:17.858016"	6	2.0838839
"S210217"	"Processing_Speed"	"RIGHT"	"DOWN"	316.488800000002	883.3333351	n/a	n/a	n/a	n/a	n/a	n/a	n/a	"2021-02-17 14:02:18.750129"	"2021-02-17 14:02:19.273817"	7	2.0838839
"S210217"	"Processing_Speed"	"RIGHT"	"DOWN"	302.565399999992	850.0000017	n/a	n/a	n/a	n/a	n/a	n/a	n/a	"2021-02-17 14:02:20.132155"	"2021-02-17 14:02:20.642422"	8	2.0838839
"S210217"	"Processing_Speed"	"RIGHT"	"DOWN"	313.596200000006	950.0000019	n/a	n/a	n/a	n/a	n/a	n/a	n/a	"2021-02-17 14:02:21.601491"	"2021-02-17 14:02:22.121760"	9	2.0838839
"S210217"	"Processing_Speed"	"RIGHT"	"DOWN"	350.064299999985	1050.0000021	n/a	n/a	n/a	n/a	n/a	n/a	n/a	"2021-02-17 14:02:23.180580"	"2021-02-17 14:02:23.737905"	10	2.0838839
"S210217"	"Processing_Speed"	"RIGHT"	"DOWN"	352.906100000013	1183.3333357	n/a	n/a	n/a	n/a	n/a	n/a	n/a	"2021-02-17 14:02:24.929997"	"2021-02-17 14:02:25.489913"	11	2.0838839
"S210217"	"Processing_Speed"	"LEFT"	"DOWN"	426.947499999983	533.3333344	n/a	n/a	n/a	n/a	n/a	n/a	n/a	"2021-02-17 14:02:26.032000"	"2021-02-17 14:02:26.667261"	12	2.0838839
"S210217"	"Processing_Speed"	"RIGHT"	"DOWN"	258.001699999994	733.3333348	n/a	n/a	n/a	n/a	n/a	n/a	n/a	"2021-02-17 14:02:27.408820"	"2021-02-17 14:02:27.875407"	13	2.0838839
"S210217"	"Processing_Speed"	"LEFT"	"DOWN"	275.267199999973	1466.6666696	n/a	n/a	n/a	n/a	n/a	n/a	n/a	"2021-02-17 14:02:29.351760"	"2021-02-17 14:02:29.833738"	14	2.0838839
"S210217"	"Processing_Speed"	"RIGHT"	"DOWN"	448.35710000001	600.0000012	n/a	n/a	n/a	n/a	n/a	n/a	n/a	"2021-02-17 14:02:30.442138"	"2021-02-17 14:02:31.098037"	15	2.0838839
"S210217"	"Processing_Speed"	"RIGHT"	"DOWN"	363.719199999991	1116.6666689	n/a	n/a	n/a	n/a	n/a	n/a	n/a	"2021-02-17 14:02:32.223220"	"2021-02-17 14:02:32.794817"	16	2.0838839
"S210217"	"Processing_Speed"	"LEFT"	"DOWN"	345.544099999984	950.0000019	n/a	n/a	n/a	n/a	n/a	n/a	n/a	"2021-02-17 14:02:33.753250"	"2021-02-17 14:02:34.305932"	17	2.0838839
"S210217"	"Processing_Speed"	"LEFT"	"DOWN"	301.079299999998	1050.0000021	n/a	n/a	n/a	n/a	n/a	n/a	n/a	"2021-02-17 14:02:35.365583"	"2021-02-17 14:02:35.873765"	18	2.0838839
"S210217"	"Processing_Speed"	"LEFT"	"DOWN"	422.295699999978	633.3333346	n/a	n/a	n/a	n/a	n/a	n/a	n/a	"2021-02-17 14:02:36.516658"	"2021-02-17 14:02:37.147614"	19	2.0838839
"S210217"	"Processing_Speed"	"LEFT"	"DOWN"	313.043499999992	733.3333348	n/a	n/a	n/a	n/a	n/a	n/a	n/a	"2021-02-17 14:02:37.889667"	"2021-02-17 14:02:38.411010"	20	2.0838839
"S210217"	"Processing_Speed"	"RIGHT"	"DOWN"	330.346100000014	916.6666685	n/a	n/a	n/a	n/a	n/a	n/a	n/a	"2021-02-17 14:02:39.336019"	"2021-02-17 14:02:39.874578"	21	2.0838839
"S210217"	"Processing_Speed"	"RIGHT"	"DOWN"	391.004400000014	1216.6666691	n/a	n/a	n/a	n/a	n/a	n/a	n/a	"2021-02-17 14:02:41.099551"	"2021-02-17 14:02:41.699146"	22	2.0838839
"S210217"	"Processing_Speed"	"RIGHT"	"DOWN"	359.404100000006	783.3333349	n/a	n/a	n/a	n/a	n/a	n/a	n/a	"2021-02-17 14:02:42.491263"	"2021-02-17 14:02:43.057724"	23	2.0838839
"S210217"	"Processing_Speed"	"LEFT"	"DOWN"	326.211599999993	666.666668	n/a	n/a	n/a	n/a	n/a	n/a	n/a	"2021-02-17 14:02:43.733154"	"2021-02-17 14:02:44.267933"	24	2.0838839
"S210217"	"Processing_Speed"	"LEFT"	"DOWN"	376.833900000008	1333.333336	n/a	n/a	n/a	n/a	n/a	n/a	n/a	"2021-02-17 14:02:45.609678"	"2021-02-17 14:02:46.195396"	25	2.0838839
"S210217"	"Processing_Speed"	"LEFT"	"DOWN"	329.329299999984	916.6666685	n/a	n/a	n/a	n/a	n/a	n/a	n/a	"2021-02-17 14:02:47.121151"	"2021-02-17 14:02:47.660017"	26	2.0838839
"S210217"	"Processing_Speed"	"RIGHT"	"DOWN"	352.359699999994	700.0000014	n/a	n/a	n/a	n/a	n/a	n/a	n/a	"2021-02-17 14:02:48.369613"	"2021-02-17 14:02:48.931111"	27	2.0838839
"S210217"	"Processing_Speed"	"RIGHT"	"DOWN"	426.853399999999	1266.6666692	n/a	n/a	n/a	n/a	n/a	n/a	n/a	"2021-02-17 14:02:50.207594"	"2021-02-17 14:02:50.842303"	28	2.0838839
"S210217"	"Processing_Speed"	"LEFT"	"DOWN"	270.686099999978	1433.3333362	n/a	n/a	n/a	n/a	n/a	n/a	n/a	"2021-02-17 14:02:52.284446"	"2021-02-17 14:02:52.762118"	29	2.0838839
"S210217"	"Processing_Speed"	"RIGHT"	"DOWN"	294.662700000003	1433.3333362	n/a	n/a	n/a	n/a	n/a	n/a	n/a	"2021-02-17 14:02:54.203926"	"2021-02-17 14:02:54.706293"	30	2.0838839
"S210217"	"Processing_Speed"	"RIGHT"	"DOWN"	335.45190000001	816.6666683	n/a	n/a	n/a	n/a	n/a	n/a	n/a	"2021-02-17 14:02:55.530692"	"2021-02-17 14:02:56.074236"	31	2.0838839
"S210217"	"Processing_Speed"	"RIGHT"	"DOWN"	301.847500000008	633.3333346	n/a	n/a	n/a	n/a	n/a	n/a	n/a	"2021-02-17 14:02:56.716808"	"2021-02-17 14:02:57.227663"	32	2.0838839
"S210217"	"Processing_Speed"	"LEFT"	"DOWN"	251.487999999995	1266.6666692	n/a	n/a	n/a	n/a	n/a	n/a	n/a	"2021-02-17 14:02:58.503330"	"2021-02-17 14:02:58.962066"	33	2.0838839
"S210217"	"Processing_Speed"	"LEFT"	"DOWN"	327.673900000008	1400.0000028	n/a	n/a	n/a	n/a	n/a	n/a	n/a	"2021-02-17 14:03:00.371161"	"2021-02-17 14:03:00.905718"	34	2.0838839
"S210217"	"Processing_Speed"	"RIGHT"	"DOWN"	313.266499999997	566.6666678	n/a	n/a	n/a	n/a	n/a	n/a	n/a	"2021-02-17 14:03:01.480773"	"2021-02-17 14:03:02.002378"	35	2.0838839
"S210217"	"Processing_Speed"	"LEFT"	"DOWN"	331.143099999991	700.0000014	n/a	n/a	n/a	n/a	n/a	n/a	n/a	"2021-02-17 14:03:02.711720"	"2021-02-17 14:03:03.252822"	36	2.0838839
"S210217"	"Processing_Speed"	"LEFT"	"DOWN"	321.547299999992	1083.3333355	n/a	n/a	n/a	n/a	n/a	n/a	n/a	"2021-02-17 14:03:04.345161"	"2021-02-17 14:03:04.874045"	37	2.0838839
"S210217"	"Processing_Speed"	"RIGHT"	"DOWN"	274.244600000003	533.3333344	n/a	n/a	n/a	n/a	n/a	n/a	n/a	"2021-02-17 14:03:05.416349"	"2021-02-17 14:03:05.899305"	38	2.0838839
"S210217"	"Processing_Speed"	"RIGHT"	"DOWN"	267.273100000011	666.666668	n/a	n/a	n/a	n/a	n/a	n/a	n/a	"2021-02-17 14:03:06.575521"	"2021-02-17 14:03:07.051303"	39	2.0838839
"S210217"	"Processing_Speed"	"RIGHT"	"DOWN"	224.297699999994	1333.333336	n/a	n/a	n/a	n/a	n/a	n/a	n/a	"2021-02-17 14:03:08.394476"	"2021-02-17 14:03:08.825917"	40	2.0838839
"S210217"	"Processing_Speed"	"LEFT"	"DOWN"	286.004800000001	850.0000017	n/a	n/a	n/a	n/a	n/a	n/a	n/a	"2021-02-17 14:03:09.684023"	"2021-02-17 14:03:10.178700"	41	2.0838839
"S210217"	"Processing_Speed"	"RIGHT"	"DOWN"	302.694500000001	1016.6666687	n/a	n/a	n/a	n/a	n/a	n/a	n/a	"2021-02-17 14:03:11.204186"	"2021-02-17 14:03:11.714313"	42	2.0838839
"S210217"	"Processing_Speed"	"LEFT"	"DOWN"	286.499600000013	1016.6666687	n/a	n/a	n/a	n/a	n/a	n/a	n/a	"2021-02-17 14:03:12.740156"	"2021-02-17 14:03:13.234158"	43	2.0838839
"S210217"	"Processing_Speed"	"RIGHT"	"DOWN"	268.266000000011	500.000001	n/a	n/a	n/a	n/a	n/a	n/a	n/a	"2021-02-17 14:03:13.742344"	"2021-02-17 14:03:14.218083"	44	2.0838839
"S210217"	"Processing_Speed"	"LEFT"	"DOWN"	243.632000000019	1116.6666689	n/a	n/a	n/a	n/a	n/a	n/a	n/a	"2021-02-17 14:03:15.343144"	"2021-02-17 14:03:15.794706"	45	2.0838839
"S210217"	"Processing_Speed"	"LEFT"	"DOWN"	367.792600000001	1183.3333357	n/a	n/a	n/a	n/a	n/a	n/a	n/a	"2021-02-17 14:03:16.986463"	"2021-02-17 14:03:17.561734"	46	2.0838839
"S210217"	"Processing_Speed"	"LEFT"	"DOWN"	409.565299999997	1150.0000023	n/a	n/a	n/a	n/a	n/a	n/a	n/a	"2021-02-17 14:03:18.720823"	"2021-02-17 14:03:19.339375"	47	2.0838839
"S210217"	"Processing_Speed"	"LEFT"	"DOWN"	367.748500000005	783.3333349	n/a	n/a	n/a	n/a	n/a	n/a	n/a	"2021-02-17 14:03:20.130870"	"2021-02-17 14:03:20.707327"	48	2.0838839
"S210217"	"Processing_Speed"	"LEFT"	"DOWN"	358.301499999982	816.6666683	n/a	n/a	n/a	n/a	n/a	n/a	n/a	"2021-02-17 14:03:21.532365"	"2021-02-17 14:03:22.098926"	49	2.0838839
"S210217"	"Processing_Speed"	"RIGHT"	"DOWN"	367.837500000007	983.3333353	n/a	n/a	n/a	n/a	n/a	n/a	n/a	"2021-02-17 14:03:23.090788"	"2021-02-17 14:03:23.665969"	50	2.0838839
"S210217"	"Processing_Speed"	"LEFT"	"DOWN"	324.747500000001	883.3333351	n/a	n/a	n/a	n/a	n/a	n/a	n/a	"2021-02-17 14:03:24.557352"	"2021-02-17 14:03:25.091011"	51	2.0838839
"S210217"	"Processing_Speed"	"RIGHT"	"DOWN"	290.961799999991	1500.000003	n/a	n/a	n/a	n/a	n/a	n/a	n/a	"2021-02-17 14:03:26.599123"	"2021-02-17 14:03:27.097798"	52	2.0838839
"S210217"	"Processing_Speed"	"LEFT"	"DOWN"	283.799499999986	1500.000003	n/a	n/a	n/a	n/a	n/a	n/a	n/a	"2021-02-17 14:03:28.606588"	"2021-02-17 14:03:29.099683"	53	2.0838839
"S210217"	"Processing_Speed"	"LEFT"	"DOWN"	362.283899999994	500.000001	n/a	n/a	n/a	n/a	n/a	n/a	n/a	"2021-02-17 14:03:29.607906"	"2021-02-17 14:03:30.178339"	54	2.0838839
"S210217"	"Processing_Speed"	"RIGHT"	"DOWN"	301.27139999999	1466.6666696	n/a	n/a	n/a	n/a	n/a	n/a	n/a	"2021-02-17 14:03:31.652994"	"2021-02-17 14:03:32.161972"	55	2.0838839
"S210217"	"Processing_Speed"	"RIGHT"	"DOWN"	312.885399999999	1366.6666694	n/a	n/a	n/a	n/a	n/a	n/a	n/a	"2021-02-17 14:03:33.537913"	"2021-02-17 14:03:34.059264"	56	2.0838839
"S210217"	"Processing_Speed"	"LEFT"	"DOWN"	288.270399999988	566.6666678	n/a	n/a	n/a	n/a	n/a	n/a	n/a	"2021-02-17 14:03:34.634725"	"2021-02-17 14:03:35.129740"	57	2.0838839
"S210217"	"Processing_Speed"	"LEFT"	"DOWN"	350.718900000004	1216.6666691	n/a	n/a	n/a	n/a	n/a	n/a	n/a	"2021-02-17 14:03:36.356053"	"2021-02-17 14:03:36.915112"	58	2.0838839
"S210217"	"Processing_Speed"	"RIGHT"	"DOWN"	249.064099999998	1150.0000023	n/a	n/a	n/a	n/a	n/a	n/a	n/a	"2021-02-17 14:03:38.073595"	"2021-02-17 14:03:38.529952"	59	2.0838839
"S210217"	"Processing_Speed"	"LEFT"	"DOWN"	264.879799999989	1366.6666694	n/a	n/a	n/a	n/a	n/a	n/a	n/a	"2021-02-17 14:03:39.905397"	"2021-02-17 14:03:40.378841"	60	2.0838839
"S210217"	"Response_Inhibition"	"LEFT"	"LEFT"	383.571800000027	1250.0000025	n/a	n/a	n/a	n/a	n/a	n/a	n/a	"2021-02-17 14:07:03.218413"	"2021-02-17 14:07:03.809830"	1	6.36387526666667
"S210217"	"Response_Inhibition"	"RIGHT"	"RIGHT"	342.691600000023	816.6666683	n/a	n/a	n/a	n/a	n/a	n/a	n/a	"2021-02-17 14:07:04.635331"	"2021-02-17 14:07:05.185952"	2	6.36387526666667
"S210217"	"Response_Inhibition"	"RIGHT"	"RIGHT"	357.36436680001	1366.6666694	n/a	n/a	n/a	n/a	n/a	n/a	n/a	"2021-02-17 14:07:06.561830"	"2021-02-17 14:07:07.129816"	3	6.36387526666667
"S210217"	"Response_Inhibition"	"RIGHT"	"RIGHT"	403.731600000015	733.3333348	n/a	n/a	n/a	n/a	n/a	n/a	n/a	"2021-02-17 14:07:07.871392"	"2021-02-17 14:07:08.482916"	4	6.36387526666667
"S210217"	"Response_Inhibition"	"LEFT"	"Time_Max_Exceeded"	1500.0563334	1216.6666691	n/a	n/a	n/a	n/a	n/a	n/a	n/a	"2021-02-17 14:07:09.708658"	"2021-02-17 14:07:11.211801"	5	6.36387526666667
"S210217"	"Response_Inhibition"	"RIGHT"	"RIGHT"	399.734100500046	1450.0000029	n/a	n/a	n/a	n/a	n/a	n/a	n/a	"2021-02-17 14:07:12.671529"	"2021-02-17 14:07:13.283167"	6	6.36387526666667
"S210217"	"Response_Inhibition"	"RIGHT"	"RIGHT"	439.506800000004	783.3333349	n/a	n/a	n/a	n/a	n/a	n/a	n/a	"2021-02-17 14:07:14.074510"	"2021-02-17 14:07:14.722596"	7	6.36387526666667
"S210217"	"Response_Inhibition"	"RIGHT"	"RIGHT"	393.344367100028	866.6666684	n/a	n/a	n/a	n/a	n/a	n/a	n/a	"2021-02-17 14:07:15.598030"	"2021-02-17 14:07:16.202667"	8	6.36387526666667
"S210217"	"Response_Inhibition"	"RIGHT"	"RIGHT"	764.116999999999	666.666668	n/a	n/a	n/a	n/a	n/a	n/a	n/a	"2021-02-17 14:07:16.878096"	"2021-02-17 14:07:17.850182"	9	6.36387526666667
"S210217"	"Response_Inhibition"	"LEFT"	"LEFT"	583.370800000012	983.3333353	n/a	n/a	n/a	n/a	n/a	n/a	n/a	"2021-02-17 14:07:18.842752"	"2021-02-17 14:07:19.633883"	10	6.36387526666667
"S210217"	"Response_Inhibition"	"LEFT"	"LEFT"	570.085600000027	1350.0000027	n/a	n/a	n/a	n/a	n/a	n/a	n/a	"2021-02-17 14:07:20.992383"	"2021-02-17 14:07:21.770143"	11	6.36387526666667
"S210217"	"Response_Inhibition"	"LEFT"	"LEFT"	613.264099999981	850.0000017	n/a	n/a	n/a	n/a	n/a	n/a	n/a	"2021-02-17 14:07:22.629175"	"2021-02-17 14:07:23.450019"	12	6.36387526666667
"S210217"	"Response_Inhibition"	"RIGHT"	"Time_Max_Exceeded"	1500.05836730002	1050.0000021	n/a	n/a	n/a	n/a	n/a	n/a	n/a	"2021-02-17 14:07:24.508988"	"2021-02-17 14:07:26.011384"	13	6.36387526666667
"S210217"	"Response_Inhibition"	"RIGHT"	"Time_Max_Exceeded"	1500.05953360002	1016.6666687	n/a	n/a	n/a	n/a	n/a	n/a	n/a	"2021-02-17 14:07:27.037863"	"2021-02-17 14:07:28.540985"	14	6.36387526666667
"S210217"	"Response_Inhibition"	"LEFT"	"LEFT"	509.762600000045	950.0000019	n/a	n/a	n/a	n/a	n/a	n/a	n/a	"2021-02-17 14:07:29.500394"	"2021-02-17 14:07:30.218354"	15	6.36387526666667
"S210217"	"Response_Inhibition"	"LEFT"	"LEFT"	440.9043	966.6666686	n/a	n/a	n/a	n/a	n/a	n/a	n/a	"2021-02-17 14:07:31.193847"	"2021-02-17 14:07:31.841914"	16	6.36387526666667
"S210217"	"Response_Inhibition"	"RIGHT"	"RIGHT"	565.378099999975	1466.6666696	n/a	n/a	n/a	n/a	n/a	n/a	n/a	"2021-02-17 14:07:33.316916"	"2021-02-17 14:07:34.089908"	17	6.36387526666667
"S210217"	"Response_Inhibition"	"LEFT"	"LEFT"	554.484000000002	1133.3333356	n/a	n/a	n/a	n/a	n/a	n/a	n/a	"2021-02-17 14:07:35.231624"	"2021-02-17 14:07:35.994667"	18	6.36387526666667
"S210217"	"Response_Inhibition"	"RIGHT"	"RIGHT"	531.500300000005	900.0000018	n/a	n/a	n/a	n/a	n/a	n/a	n/a	"2021-02-17 14:07:36.903285"	"2021-02-17 14:07:37.642457"	19	6.36387526666667
"S210217"	"Response_Inhibition"	"LEFT"	"Time_Max_Exceeded"	1500.10146699996	1366.6666694	n/a	n/a	n/a	n/a	n/a	n/a	n/a	"2021-02-17 14:07:39.018113"	"2021-02-17 14:07:40.521371"	20	6.36387526666667
"S210217"	"Response_Inhibition"	"RIGHT"	"RIGHT"	543.975499999988	1383.3333361	n/a	n/a	n/a	n/a	n/a	n/a	n/a	"2021-02-17 14:07:41.914110"	"2021-02-17 14:07:42.666384"	21	6.36387526666667
"S210217"	"Response_Inhibition"	"RIGHT"	"RIGHT"	582.157400000028	1233.3333358	n/a	n/a	n/a	n/a	n/a	n/a	n/a	"2021-02-17 14:07:43.907909"	"2021-02-17 14:07:44.698006"	22	6.36387526666667
"S210217"	"Response_Inhibition"	"LEFT"	"Time_Max_Exceeded"	1500.04763360001	783.3333349	n/a	n/a	n/a	n/a	n/a	n/a	n/a	"2021-02-17 14:07:45.489941"	"2021-02-17 14:07:46.993194"	23	6.36387526666667
"S210217"	"Response_Inhibition"	"RIGHT"	"RIGHT"	606.523600000003	633.3333346	n/a	n/a	n/a	n/a	n/a	n/a	n/a	"2021-02-17 14:07:47.635514"	"2021-02-17 14:07:48.449049"	24	6.36387526666667
"S210217"	"Response_Inhibition"	"RIGHT"	"RIGHT"	597.949099999994	850.0000017	n/a	n/a	n/a	n/a	n/a	n/a	n/a	"2021-02-17 14:07:49.307766"	"2021-02-17 14:07:50.114031"	25	6.36387526666667
"S210217"	"Response_Inhibition"	"RIGHT"	"Time_Max_Exceeded"	1500.05990040001	1416.6666695	n/a	n/a	n/a	n/a	n/a	n/a	n/a	"2021-02-17 14:07:51.539334"	"2021-02-17 14:07:53.042078"	26	6.36387526666667
"S210217"	"Response_Inhibition"	"LEFT"	"Time_Max_Exceeded"	1500.05040060001	1000.000002	n/a	n/a	n/a	n/a	n/a	n/a	n/a	"2021-02-17 14:07:54.050936"	"2021-02-17 14:07:55.555037"	27	6.36387526666667
"S210217"	"Response_Inhibition"	"LEFT"	"LEFT"	716.330299999981	1033.3333354	n/a	n/a	n/a	n/a	n/a	n/a	n/a	"2021-02-17 14:07:56.597743"	"2021-02-17 14:07:57.523267"	28	6.36387526666667
"S210217"	"Response_Inhibition"	"RIGHT"	"RIGHT"	746.030999999959	716.6666681	n/a	n/a	n/a	n/a	n/a	n/a	n/a	"2021-02-17 14:07:58.248564"	"2021-02-17 14:07:59.201755"	29	6.36387526666667
"S210217"	"Response_Inhibition"	"LEFT"	"LEFT"	584.609999999998	1383.3333361	n/a	n/a	n/a	n/a	n/a	n/a	n/a	"2021-02-17 14:08:00.594079"	"2021-02-17 14:08:01.385966"	30	6.36387526666667
"S210217"	"Response_Inhibition"	"RIGHT"	"Time_Max_Exceeded"	1500.05666700001	883.3333351	n/a	n/a	n/a	n/a	n/a	n/a	n/a	"2021-02-17 14:08:02.277714"	"2021-02-17 14:08:03.780749"	31	6.36387526666667
"S210217"	"Response_Inhibition"	"RIGHT"	"Time_Max_Exceeded"	1500.06680000001	783.3333349	n/a	n/a	n/a	n/a	n/a	n/a	n/a	"2021-02-17 14:08:04.573886"	"2021-02-17 14:08:06.073109"	32	6.36387526666667
"S210217"	"Response_Inhibition"	"LEFT"	"LEFT"	476.376500000015	883.3333351	n/a	n/a	n/a	n/a	n/a	n/a	n/a	"2021-02-17 14:08:06.966341"	"2021-02-17 14:08:07.650562"	33	6.36387526666667
"S210217"	"Response_Inhibition"	"LEFT"	"LEFT"	556.476000000032	666.666668	n/a	n/a	n/a	n/a	n/a	n/a	n/a	"2021-02-17 14:08:08.326008"	"2021-02-17 14:08:09.090520"	34	6.36387526666667
"S210217"	"Response_Inhibition"	"LEFT"	"Time_Max_Exceeded"	1500.05320029999	1100.0000022	n/a	n/a	n/a	n/a	n/a	n/a	n/a	"2021-02-17 14:08:10.199295"	"2021-02-17 14:08:11.702530"	35	6.36387526666667
"S210217"	"Response_Inhibition"	"RIGHT"	"RIGHT"	813.746600000002	733.3333348	n/a	n/a	n/a	n/a	n/a	n/a	n/a	"2021-02-17 14:08:12.443962"	"2021-02-17 14:08:13.466522"	36	6.36387526666667
"S210217"	"Response_Inhibition"	"RIGHT"	"RIGHT"	698.535400000026	916.6666685	n/a	n/a	n/a	n/a	n/a	n/a	n/a	"2021-02-17 14:08:14.392134"	"2021-02-17 14:08:15.297890"	37	6.36387526666667
"S210217"	"Response_Inhibition"	"RIGHT"	"RIGHT"	729.710899999986	950.0000019	n/a	n/a	n/a	n/a	n/a	n/a	n/a	"2021-02-17 14:08:16.256473"	"2021-02-17 14:08:17.193701"	38	6.36387526666667
"S210217"	"Response_Inhibition"	"LEFT"	"Time_Max_Exceeded"	1500.0580338	566.6666678	n/a	n/a	n/a	n/a	n/a	n/a	n/a	"2021-02-17 14:08:17.769163"	"2021-02-17 14:08:19.272715"	39	6.36387526666667
"S210217"	"Response_Inhibition"	"LEFT"	"Time_Max_Exceeded"	1500.05916719998	1183.3333357	n/a	n/a	n/a	n/a	n/a	n/a	n/a	"2021-02-17 14:08:20.465110"	"2021-02-17 14:08:21.968729"	40	6.36387526666667
"S210217"	"Response_Inhibition"	"LEFT"	"Time_Max_Exceeded"	1500.05213380004	950.0000019	n/a	n/a	n/a	n/a	n/a	n/a	n/a	"2021-02-17 14:08:22.927258"	"2021-02-17 14:08:24.430413"	41	6.36387526666667
"S210217"	"Response_Inhibition"	"LEFT"	"LEFT"	761.697600000048	1416.6666695	n/a	n/a	n/a	n/a	n/a	n/a	n/a	"2021-02-17 14:08:25.856945"	"2021-02-17 14:08:26.825960"	42	6.36387526666667
"S210217"	"Response_Inhibition"	"RIGHT"	"RIGHT"	753.133700000035	1366.6666694	n/a	n/a	n/a	n/a	n/a	n/a	n/a	"2021-02-17 14:08:28.201140"	"2021-02-17 14:08:29.162456"	43	6.36387526666667
"S210217"	"Response_Inhibition"	"RIGHT"	"RIGHT"	1035.8023	1083.3333355	n/a	n/a	n/a	n/a	n/a	n/a	n/a	"2021-02-17 14:08:30.254192"	"2021-02-17 14:08:31.498000"	44	6.36387526666667
"S210217"	"Response_Inhibition"	"LEFT"	"LEFT"	888.254300000085	783.3333349	n/a	n/a	n/a	n/a	n/a	n/a	n/a	"2021-02-17 14:08:32.289943"	"2021-02-17 14:08:33.386239"	45	6.36387526666667
"S210217"	"Response_Inhibition"	"LEFT"	"LEFT"	806.108100000074	1433.3333362	n/a	n/a	n/a	n/a	n/a	n/a	n/a	"2021-02-17 14:08:34.828382"	"2021-02-17 14:08:35.841869"	46	6.36387526666667
"S210217"	"Response_Inhibition"	"RIGHT"	"RIGHT"	915.586100000041	700.0000014	n/a	n/a	n/a	n/a	n/a	n/a	n/a	"2021-02-17 14:08:36.550579"	"2021-02-17 14:08:37.673244"	47	6.36387526666667
"S210217"	"Response_Inhibition"	"RIGHT"	"RIGHT"	737.799699999982	1166.666669	n/a	n/a	n/a	n/a	n/a	n/a	n/a	"2021-02-17 14:08:38.848361"	"2021-02-17 14:08:39.794161"	48	6.36387526666667
"S210217"	"Response_Inhibition"	"LEFT"	"LEFT"	823.5727	800.0000016	n/a	n/a	n/a	n/a	n/a	n/a	n/a	"2021-02-17 14:08:40.603054"	"2021-02-17 14:08:41.634287"	49	6.36387526666667
"S210217"	"Response_Inhibition"	"RIGHT"	"Time_Max_Exceeded"	1500.06803339996	1116.6666689	n/a	n/a	n/a	n/a	n/a	n/a	n/a	"2021-02-17 14:08:42.760115"	"2021-02-17 14:08:44.263779"	50	6.36387526666667
"S210217"	"Response_Inhibition"	"RIGHT"	"RIGHT"	939.105899999959	950.0000019	n/a	n/a	n/a	n/a	n/a	n/a	n/a	"2021-02-17 14:08:45.223294"	"2021-02-17 14:08:46.370371"	51	6.36387526666667
"S210217"	"Response_Inhibition"	"LEFT"	"LEFT"	450.540433900041	1233.3333358	n/a	n/a	n/a	n/a	n/a	n/a	n/a	"2021-02-17 14:08:47.612688"	"2021-02-17 14:08:48.273031"	52	6.36387526666667
"S210217"	"Response_Inhibition"	"RIGHT"	"Time_Max_Exceeded"	1500.04946689994	633.3333346	n/a	n/a	n/a	n/a	n/a	n/a	n/a	"2021-02-17 14:08:48.915313"	"2021-02-17 14:08:50.418462"	53	6.36387526666667
"S210217"	"Response_Inhibition"	"LEFT"	"LEFT"	675.189099999898	1266.6666692	n/a	n/a	n/a	n/a	n/a	n/a	n/a	"2021-02-17 14:08:51.694683"	"2021-02-17 14:08:52.578640"	54	6.36387526666667
"S210217"	"Response_Inhibition"	"RIGHT"	"RIGHT"	507.376399999998	1100.0000022	n/a	n/a	n/a	n/a	n/a	n/a	n/a	"2021-02-17 14:08:53.686792"	"2021-02-17 14:08:54.402432"	55	6.36387526666667
"S210217"	"Response_Inhibition"	"LEFT"	"LEFT"	537.870300000009	933.3333352	n/a	n/a	n/a	n/a	n/a	n/a	n/a	"2021-02-17 14:08:55.344181"	"2021-02-17 14:08:56.090270"	56	6.36387526666667
"S210217"	"Response_Inhibition"	"RIGHT"	"RIGHT"	446.160200000008	1033.3333354	n/a	n/a	n/a	n/a	n/a	n/a	n/a	"2021-02-17 14:08:57.132492"	"2021-02-17 14:08:57.786708"	57	6.36387526666667
"S210217"	"Response_Inhibition"	"RIGHT"	"RIGHT"	646.390300000007	1416.6666695	n/a	n/a	n/a	n/a	n/a	n/a	n/a	"2021-02-17 14:08:59.211568"	"2021-02-17 14:09:00.066234"	58	6.36387526666667
"S210217"	"Response_Inhibition"	"RIGHT"	"RIGHT"	716.710499999976	1266.6666692	n/a	n/a	n/a	n/a	n/a	n/a	n/a	"2021-02-17 14:09:01.341152"	"2021-02-17 14:09:02.265047"	59	6.36387526666667
"S210217"	"Response_Inhibition"	"RIGHT"	"Time_Max_Exceeded"	1500.0620337	750.0000015	n/a	n/a	n/a	n/a	n/a	n/a	n/a	"2021-02-17 14:09:03.024022"	"2021-02-17 14:09:04.526696"	60	6.36387526666667
"S210217"	"Response_Inhibition"	"LEFT"	"LEFT"	732.483600000023	1500.000003	n/a	n/a	n/a	n/a	n/a	n/a	n/a	"2021-02-17 14:09:06.037768"	"2021-02-17 14:09:06.979309"	61	6.36387526666667
"S210217"	"Response_Inhibition"	"RIGHT"	"RIGHT"	610.361800000078	1050.0000021	n/a	n/a	n/a	n/a	n/a	n/a	n/a	"2021-02-17 14:09:08.039587"	"2021-02-17 14:09:08.858604"	62	6.36387526666667
"S210217"	"Response_Inhibition"	"RIGHT"	"Time_Max_Exceeded"	1500.05110019993	683.3333347	n/a	n/a	n/a	n/a	n/a	n/a	n/a	"2021-02-17 14:09:09.551023"	"2021-02-17 14:09:11.054012"	63	6.36387526666667
"S210217"	"Response_Inhibition"	"LEFT"	"LEFT"	729.78999999998	1216.6666691	n/a	n/a	n/a	n/a	n/a	n/a	n/a	"2021-02-17 14:09:12.280654"	"2021-02-17 14:09:13.217717"	64	6.36387526666667
"S210217"	"Response_Inhibition"	"LEFT"	"LEFT"	638.716199999976	833.333335	n/a	n/a	n/a	n/a	n/a	n/a	n/a	"2021-02-17 14:09:14.059951"	"2021-02-17 14:09:14.907045"	65	6.36387526666667
"S210217"	"Response_Inhibition"	"LEFT"	"LEFT"	410.849299999995	1483.3333363	n/a	n/a	n/a	n/a	n/a	n/a	n/a	"2021-02-17 14:09:16.398955"	"2021-02-17 14:09:17.018114"	66	6.36387526666667
"S210217"	"Response_Inhibition"	"LEFT"	"LEFT"	672.41869999998	1166.666669	n/a	n/a	n/a	n/a	n/a	n/a	n/a	"2021-02-17 14:09:18.193664"	"2021-02-17 14:09:19.073860"	67	6.36387526666667
"S210217"	"Response_Inhibition"	"LEFT"	"LEFT"	392.425300400082	1300.0000026	n/a	n/a	n/a	n/a	n/a	n/a	n/a	"2021-02-17 14:09:20.382532"	"2021-02-17 14:09:20.985883"	68	6.36387526666667
"S210217"	"Response_Inhibition"	"RIGHT"	"RIGHT"	694.040500000028	1216.6666691	n/a	n/a	n/a	n/a	n/a	n/a	n/a	"2021-02-17 14:09:22.211712"	"2021-02-17 14:09:23.114305"	69	6.36387526666667
"S210217"	"Response_Inhibition"	"RIGHT"	"Time_Max_Exceeded"	1500.05940059999	1066.6666688	n/a	n/a	n/a	n/a	n/a	n/a	n/a	"2021-02-17 14:09:24.188932"	"2021-02-17 14:09:25.692264"	70	6.36387526666667
"S210217"	"Response_Inhibition"	"RIGHT"	"RIGHT"	648.729900000035	1300.0000026	n/a	n/a	n/a	n/a	n/a	n/a	n/a	"2021-02-17 14:09:27.000928"	"2021-02-17 14:09:27.857962"	71	6.36387526666667
"S210217"	"Response_Inhibition"	"RIGHT"	"RIGHT"	736.777699999948	766.6666682	n/a	n/a	n/a	n/a	n/a	n/a	n/a	"2021-02-17 14:09:28.633480"	"2021-02-17 14:09:29.579131"	72	6.36387526666667
"S210217"	"Response_Inhibition"	"RIGHT"	"Time_Max_Exceeded"	1500.14860059992	1316.6666693	n/a	n/a	n/a	n/a	n/a	n/a	n/a	"2021-02-17 14:09:30.905383"	"2021-02-17 14:09:32.408322"	73	6.36387526666667
"S210217"	"Response_Inhibition"	"RIGHT"	"RIGHT"	865.270399999986	1183.3333357	n/a	n/a	n/a	n/a	n/a	n/a	n/a	"2021-02-17 14:09:33.600685"	"2021-02-17 14:09:34.673832"	74	6.36387526666667
"S210217"	"Response_Inhibition"	"LEFT"	"LEFT"	923.761100000092	500.000001	n/a	n/a	n/a	n/a	n/a	n/a	n/a	"2021-02-17 14:09:35.182106"	"2021-02-17 14:09:36.314301"	75	6.36387526666667
"S210217"	"Response_Inhibition"	"LEFT"	"LEFT"	1011.31729999997	900.0000018	n/a	n/a	n/a	n/a	n/a	n/a	n/a	"2021-02-17 14:09:37.223118"	"2021-02-17 14:09:38.440771"	76	6.36387526666667
"S210217"	"Response_Inhibition"	"LEFT"	"LEFT"	1111.13320000004	1050.0000021	n/a	n/a	n/a	n/a	n/a	n/a	n/a	"2021-02-17 14:09:39.499212"	"2021-02-17 14:09:40.818657"	77	6.36387526666667
"S210217"	"Response_Inhibition"	"LEFT"	"LEFT"	1177.69270000008	533.3333344	n/a	n/a	n/a	n/a	n/a	n/a	n/a	"2021-02-17 14:09:41.360816"	"2021-02-17 14:09:42.746459"	78	6.36387526666667
"S210217"	"Response_Inhibition"	"RIGHT"	"RIGHT"	787.799900000095	650.0000013	n/a	n/a	n/a	n/a	n/a	n/a	n/a	"2021-02-17 14:09:43.406219"	"2021-02-17 14:09:44.403227"	79	6.36387526666667
"S210217"	"Response_Inhibition"	"RIGHT"	"Time_Max_Exceeded"	1500.05776669995	800.0000016	n/a	n/a	n/a	n/a	n/a	n/a	n/a	"2021-02-17 14:09:45.213074"	"2021-02-17 14:09:46.716546"	80	6.36387526666667
"S210217"	"Response_Inhibition"	"LEFT"	"LEFT"	786.766600000078	633.3333346	n/a	n/a	n/a	n/a	n/a	n/a	n/a	"2021-02-17 14:09:47.359674"	"2021-02-17 14:09:48.354464"	81	6.36387526666667
"S210217"	"Response_Inhibition"	"RIGHT"	"Time_Max_Exceeded"	1500.05650049991	683.3333347	n/a	n/a	n/a	n/a	n/a	n/a	n/a	"2021-02-17 14:09:49.046361"	"2021-02-17 14:09:50.549538"	82	6.36387526666667
"S210217"	"Response_Inhibition"	"RIGHT"	"RIGHT"	719.222099999911	516.6666677	n/a	n/a	n/a	n/a	n/a	n/a	n/a	"2021-02-17 14:09:51.076028"	"2021-02-17 14:09:52.002614"	83	6.36387526666667
"S210217"	"Response_Inhibition"	"LEFT"	"LEFT"	742.239400000017	616.6666679	n/a	n/a	n/a	n/a	n/a	n/a	n/a	"2021-02-17 14:09:52.627941"	"2021-02-17 14:09:53.578180"	84	6.36387526666667
"S210217"	"Response_Inhibition"	"LEFT"	"LEFT"	972.613000000024	683.3333347	n/a	n/a	n/a	n/a	n/a	n/a	n/a	"2021-02-17 14:09:54.270331"	"2021-02-17 14:09:55.450733"	85	6.36387526666667
"S210217"	"Response_Inhibition"	"LEFT"	"Time_Max_Exceeded"	1500.05490000001	633.3333346	n/a	n/a	n/a	n/a	n/a	n/a	n/a	"2021-02-17 14:09:56.092985"	"2021-02-17 14:09:57.592762"	86	6.36387526666667
"S210217"	"Response_Inhibition"	"LEFT"	"LEFT"	748.659599999996	900.0000018	n/a	n/a	n/a	n/a	n/a	n/a	n/a	"2021-02-17 14:09:58.501840"	"2021-02-17 14:09:59.458601"	87	6.36387526666667
"S210217"	"Response_Inhibition"	"RIGHT"	"RIGHT"	696.673499999974	1350.0000027	n/a	n/a	n/a	n/a	n/a	n/a	n/a	"2021-02-17 14:10:00.817671"	"2021-02-17 14:10:01.722560"	88	6.36387526666667
"S210217"	"Response_Inhibition"	"LEFT"	"Time_Max_Exceeded"	1500.05973350002	816.6666683	n/a	n/a	n/a	n/a	n/a	n/a	n/a	"2021-02-17 14:10:02.548101"	"2021-02-17 14:10:04.051028"	89	6.36387526666667
"S210217"	"Response_Inhibition"	"LEFT"	"LEFT"	777.673700000037	700.0000014	n/a	n/a	n/a	n/a	n/a	n/a	n/a	"2021-02-17 14:10:04.760788"	"2021-02-17 14:10:05.746460"	90	6.36387526666667
"S210217"	"Response_Inhibition"	"RIGHT"	"RIGHT"	617.38390000005	1150.0000023	n/a	n/a	n/a	n/a	n/a	n/a	n/a	"2021-02-17 14:10:06.905238"	"2021-02-17 14:10:07.729034"	91	6.36387526666667
"S210217"	"Response_Inhibition"	"LEFT"	"LEFT"	600.945400000001	1400.0000028	n/a	n/a	n/a	n/a	n/a	n/a	n/a	"2021-02-17 14:10:09.137580"	"2021-02-17 14:10:09.946407"	92	6.36387526666667
"S210217"	"Response_Inhibition"	"LEFT"	"LEFT"	936.229099999991	583.3333345	n/a	n/a	n/a	n/a	n/a	n/a	n/a	"2021-02-17 14:10:10.537827"	"2021-02-17 14:10:11.681418"	93	6.36387526666667
"S210217"	"Response_Inhibition"	"LEFT"	"Time_Max_Exceeded"	1500.05200010003	1416.6666695	n/a	n/a	n/a	n/a	n/a	n/a	n/a	"2021-02-17 14:10:13.107189"	"2021-02-17 14:10:14.610659"	94	6.36387526666667
"S210217"	"Response_Inhibition"	"LEFT"	"LEFT"	801.040300000068	1316.6666693	n/a	n/a	n/a	n/a	n/a	n/a	n/a	"2021-02-17 14:10:15.936930"	"2021-02-17 14:10:16.946383"	95	6.36387526666667
"S210217"	"Response_Inhibition"	"LEFT"	"LEFT"	693.310999999994	650.0000013	n/a	n/a	n/a	n/a	n/a	n/a	n/a	"2021-02-17 14:10:17.605127"	"2021-02-17 14:10:18.505931"	96	6.36387526666667
"S210217"	"Response_Inhibition"	"LEFT"	"Time_Max_Exceeded"	1500.0645667	850.0000017	n/a	n/a	n/a	n/a	n/a	n/a	n/a	"2021-02-17 14:10:19.364243"	"2021-02-17 14:10:20.867279"	97	6.36387526666667
"S210217"	"Response_Inhibition"	"RIGHT"	"RIGHT"	845.107299999995	1216.6666691	n/a	n/a	n/a	n/a	n/a	n/a	n/a	"2021-02-17 14:10:22.092924"	"2021-02-17 14:10:23.146692"	98	6.36387526666667
"S210217"	"Response_Inhibition"	"RIGHT"	"RIGHT"	762.124000000085	1100.0000022	n/a	n/a	n/a	n/a	n/a	n/a	n/a	"2021-02-17 14:10:24.256017"	"2021-02-17 14:10:25.226542"	99	6.36387526666667
"S210217"	"Response_Inhibition"	"LEFT"	"LEFT"	782.903499999975	1200.0000024	n/a	n/a	n/a	n/a	n/a	n/a	n/a	"2021-02-17 14:10:26.435199"	"2021-02-17 14:10:27.426192"	100	6.36387526666667
"S210217"	"Response_Inhibition"	"RIGHT"	"Time_Max_Exceeded"	1500.06753370004	583.3333345	n/a	n/a	n/a	n/a	n/a	n/a	n/a	"2021-02-17 14:10:28.018685"	"2021-02-17 14:10:29.521723"	101	6.36387526666667
"S210217"	"Response_Inhibition"	"RIGHT"	"RIGHT"	751.065400000016	600.0000012	n/a	n/a	n/a	n/a	n/a	n/a	n/a	"2021-02-17 14:10:30.131175"	"2021-02-17 14:10:31.089802"	102	6.36387526666667
"S210217"	"Response_Inhibition"	"LEFT"	"Time_Max_Exceeded"	1500.05516719993	1316.6666693	n/a	n/a	n/a	n/a	n/a	n/a	n/a	"2021-02-17 14:10:32.414621"	"2021-02-17 14:10:33.917776"	103	6.36387526666667
"S210217"	"Response_Inhibition"	"RIGHT"	"RIGHT"	712.216699999999	850.0000017	n/a	n/a	n/a	n/a	n/a	n/a	n/a	"2021-02-17 14:10:34.777885"	"2021-02-17 14:10:35.698659"	104	6.36387526666667
"S210217"	"Response_Inhibition"	"RIGHT"	"RIGHT"	800.49710000003	566.6666678	n/a	n/a	n/a	n/a	n/a	n/a	n/a	"2021-02-17 14:10:36.274155"	"2021-02-17 14:10:37.282043"	105	6.36387526666667
"S210217"	"Response_Inhibition"	"LEFT"	"LEFT"	658.623799999987	1100.0000022	n/a	n/a	n/a	n/a	n/a	n/a	n/a	"2021-02-17 14:10:38.391176"	"2021-02-17 14:10:39.258027"	106	6.36387526666667
"S210217"	"Response_Inhibition"	"LEFT"	"LEFT"	871.122499999956	1016.6666687	n/a	n/a	n/a	n/a	n/a	n/a	n/a	"2021-02-17 14:10:40.282923"	"2021-02-17 14:10:41.362486"	107	6.36387526666667
"S210217"	"Response_Inhibition"	"RIGHT"	"RIGHT"	923.685200000023	1283.3333359	n/a	n/a	n/a	n/a	n/a	n/a	n/a	"2021-02-17 14:10:42.654158"	"2021-02-17 14:10:43.786287"	108	6.36387526666667
"S210217"	"Response_Inhibition"	"LEFT"	"LEFT"	1135.01180000003	600.0000012	n/a	n/a	n/a	n/a	n/a	n/a	n/a	"2021-02-17 14:10:44.395202"	"2021-02-17 14:10:45.738483"	109	6.36387526666667
"S210217"	"Response_Inhibition"	"LEFT"	"Time_Max_Exceeded"	1500.05160050001	1150.0000023	n/a	n/a	n/a	n/a	n/a	n/a	n/a	"2021-02-17 14:10:46.896539"	"2021-02-17 14:10:48.400832"	110	6.36387526666667
"S210217"	"Response_Inhibition"	"LEFT"	"Time_Max_Exceeded"	1500.0502669	583.3333345	n/a	n/a	n/a	n/a	n/a	n/a	n/a	"2021-02-17 14:10:48.993869"	"2021-02-17 14:10:50.497009"	111	6.36387526666667
"S210217"	"Response_Inhibition"	"LEFT"	"Time_Max_Exceeded"	1500.04776679991	916.6666685	n/a	n/a	n/a	n/a	n/a	n/a	n/a	"2021-02-17 14:10:51.423115"	"2021-02-17 14:10:52.926341"	112	6.36387526666667
"S210217"	"Response_Inhibition"	"RIGHT"	"Time_Max_Exceeded"	1500.05596729993	1500.000003	n/a	n/a	n/a	n/a	n/a	n/a	n/a	"2021-02-17 14:10:54.435989"	"2021-02-17 14:10:55.938688"	113	6.36387526666667
"S210217"	"Response_Inhibition"	"RIGHT"	"RIGHT"	801.99360000006	900.0000018	n/a	n/a	n/a	n/a	n/a	n/a	n/a	"2021-02-17 14:10:56.848480"	"2021-02-17 14:10:57.857867"	114	6.36387526666667
"S210217"	"Response_Inhibition"	"RIGHT"	"Time_Max_Exceeded"	1500.06046690002	1150.0000023	n/a	n/a	n/a	n/a	n/a	n/a	n/a	"2021-02-17 14:10:59.017012"	"2021-02-17 14:11:00.519768"	115	6.36387526666667
"S210217"	"Response_Inhibition"	"LEFT"	"Time_Max_Exceeded"	1500.07560040001	1000.000002	n/a	n/a	n/a	n/a	n/a	n/a	n/a	"2021-02-17 14:11:01.529099"	"2021-02-17 14:11:03.032512"	116	6.36387526666667
"S210217"	"Response_Inhibition"	"LEFT"	"LEFT"	885.470300000065	866.6666684	n/a	n/a	n/a	n/a	n/a	n/a	n/a	"2021-02-17 14:11:03.909026"	"2021-02-17 14:11:05.002366"	117	6.36387526666667
"S210217"	"Response_Inhibition"	"RIGHT"	"RIGHT"	773.922699999957	1433.3333362	n/a	n/a	n/a	n/a	n/a	n/a	n/a	"2021-02-17 14:11:06.443774"	"2021-02-17 14:11:07.427702"	118	6.36387526666667
"S210217"	"Response_Inhibition"	"LEFT"	"LEFT"	1178.97369999991	1083.3333355	n/a	n/a	n/a	n/a	n/a	n/a	n/a	"2021-02-17 14:11:08.519077"	"2021-02-17 14:11:09.907468"	119	6.36387526666667
"S210217"	"Response_Inhibition"	"RIGHT"	"RIGHT"	1372.76489999999	833.333335	n/a	n/a	n/a	n/a	n/a	n/a	n/a	"2021-02-17 14:11:10.749182"	"2021-02-17 14:11:12.330185"	120	6.36387526666667
"S210217"	"Response_Inhibition"	"RIGHT"	"Time_Max_Exceeded"	1500.05250020002	1266.6666692	n/a	n/a	n/a	n/a	n/a	n/a	n/a	"2021-02-17 14:11:13.605863"	"2021-02-17 14:11:15.108935"	121	6.36387526666667
"S210217"	"Response_Inhibition"	"RIGHT"	"RIGHT"	1019.81820000003	1000.000002	n/a	n/a	n/a	n/a	n/a	n/a	n/a	"2021-02-17 14:11:16.118343"	"2021-02-17 14:11:17.346029"	122	6.36387526666667
"S210217"	"Response_Inhibition"	"RIGHT"	"RIGHT"	951.280900000029	983.3333353	n/a	n/a	n/a	n/a	n/a	n/a	n/a	"2021-02-17 14:11:18.338316"	"2021-02-17 14:11:19.497849"	123	6.36387526666667
"S210217"	"Response_Inhibition"	"LEFT"	"Time_Max_Exceeded"	1500.05903389998	716.6666681	n/a	n/a	n/a	n/a	n/a	n/a	n/a	"2021-02-17 14:11:20.223292"	"2021-02-17 14:11:21.726584"	124	6.36387526666667
"S210217"	"Response_Inhibition"	"RIGHT"	"Time_Max_Exceeded"	1500.06050010006	966.6666686	n/a	n/a	n/a	n/a	n/a	n/a	n/a	"2021-02-17 14:11:22.702110"	"2021-02-17 14:11:24.205351"	125	6.36387526666667
"S210217"	"Response_Inhibition"	"RIGHT"	"RIGHT"	889.278499999932	1466.6666696	n/a	n/a	n/a	n/a	n/a	n/a	n/a	"2021-02-17 14:11:25.681036"	"2021-02-17 14:11:26.776727"	126	6.36387526666667
"S210217"	"Response_Inhibition"	"RIGHT"	"Time_Max_Exceeded"	1500.06706670005	533.3333344	n/a	n/a	n/a	n/a	n/a	n/a	n/a	"2021-02-17 14:11:27.318514"	"2021-02-17 14:11:28.821626"	127	6.36387526666667
"S210217"	"Response_Inhibition"	"LEFT"	"Time_Max_Exceeded"	1500.05733370002	683.3333347	n/a	n/a	n/a	n/a	n/a	n/a	n/a	"2021-02-17 14:11:29.514946"	"2021-02-17 14:11:31.018511"	128	6.36387526666667
"S210217"	"Response_Inhibition"	"LEFT"	"Time_Max_Exceeded"	1500.15996680001	1450.0000029	n/a	n/a	n/a	n/a	n/a	n/a	n/a	"2021-02-17 14:11:32.476923"	"2021-02-17 14:11:33.980475"	129	6.36387526666667
"S210217"	"Response_Inhibition"	"LEFT"	"LEFT"	701.781799999935	1366.6666694	n/a	n/a	n/a	n/a	n/a	n/a	n/a	"2021-02-17 14:11:35.356728"	"2021-02-17 14:11:36.266181"	130	6.36387526666667
"S210217"	"Response_Inhibition"	"LEFT"	"LEFT"	764.748800000007	1466.6666696	n/a	n/a	n/a	n/a	n/a	n/a	n/a	"2021-02-17 14:11:37.741349"	"2021-02-17 14:11:38.714510"	131	6.36387526666667
"S210217"	"Response_Inhibition"	"RIGHT"	"RIGHT"	894.574199999965	616.6666679	n/a	n/a	n/a	n/a	n/a	n/a	n/a	"2021-02-17 14:11:39.339446"	"2021-02-17 14:11:40.441324"	132	6.36387526666667
"S210217"	"Response_Inhibition"	"LEFT"	"Time_Max_Exceeded"	1500.05246710002	766.6666682	n/a	n/a	n/a	n/a	n/a	n/a	n/a	"2021-02-17 14:11:41.216252"	"2021-02-17 14:11:42.720285"	133	6.36387526666667
"S210217"	"Response_Inhibition"	"RIGHT"	"Time_Max_Exceeded"	1500.05286719993	500.000001	n/a	n/a	n/a	n/a	n/a	n/a	n/a	"2021-02-17 14:11:43.228992"	"2021-02-17 14:11:44.731866"	134	6.36387526666667
"S210217"	"Response_Inhibition"	"LEFT"	"Time_Max_Exceeded"	1500.07090029999	533.3333344	n/a	n/a	n/a	n/a	n/a	n/a	n/a	"2021-02-17 14:11:45.274952"	"2021-02-17 14:11:46.778611"	135	6.36387526666667
"S210217"	"Response_Inhibition"	"RIGHT"	"Time_Max_Exceeded"	1500.05740009999	1250.0000025	n/a	n/a	n/a	n/a	n/a	n/a	n/a	"2021-02-17 14:11:48.036704"	"2021-02-17 14:11:49.540619"	136	6.36387526666667
"S210217"	"Response_Inhibition"	"LEFT"	"LEFT"	943.239100000028	1116.6666689	n/a	n/a	n/a	n/a	n/a	n/a	n/a	"2021-02-17 14:11:50.666907"	"2021-02-17 14:11:51.817473"	137	6.36387526666667
"S210217"	"Response_Inhibition"	"RIGHT"	"RIGHT"	818.438900000046	1133.3333356	n/a	n/a	n/a	n/a	n/a	n/a	n/a	"2021-02-17 14:11:52.958950"	"2021-02-17 14:11:53.986563"	138	6.36387526666667
"S210217"	"Response_Inhibition"	"LEFT"	"Time_Max_Exceeded"	1500.06043359993	1466.6666696	n/a	n/a	n/a	n/a	n/a	n/a	n/a	"2021-02-17 14:11:55.462371"	"2021-02-17 14:11:56.965035"	139	6.36387526666667
"S210217"	"Response_Inhibition"	"RIGHT"	"RIGHT"	728.560199999947	1483.3333363	n/a	n/a	n/a	n/a	n/a	n/a	n/a	"2021-02-17 14:11:58.458254"	"2021-02-17 14:11:59.394027"	140	6.36387526666667
"S210217"	"Response_Inhibition"	"RIGHT"	"RIGHT"	825.227599999948	550.0000011	n/a	n/a	n/a	n/a	n/a	n/a	n/a	"2021-02-17 14:11:59.952568"	"2021-02-17 14:12:00.985138"	141	6.36387526666667
"S210217"	"Response_Inhibition"	"RIGHT"	"Time_Max_Exceeded"	1500.08606700003	1200.0000024	n/a	n/a	n/a	n/a	n/a	n/a	n/a	"2021-02-17 14:12:02.194071"	"2021-02-17 14:12:03.697259"	142	6.36387526666667
"S210217"	"Response_Inhibition"	"LEFT"	"LEFT"	989.776699999993	1266.6666692	n/a	n/a	n/a	n/a	n/a	n/a	n/a	"2021-02-17 14:12:04.972235"	"2021-02-17 14:12:06.170585"	143	6.36387526666667
"S210217"	"Response_Inhibition"	"LEFT"	"LEFT"	967.790199999968	550.0000011	n/a	n/a	n/a	n/a	n/a	n/a	n/a	"2021-02-17 14:12:06.730154"	"2021-02-17 14:12:07.906680"	144	6.36387526666667
"S210217"	"Response_Inhibition"	"RIGHT"	"RIGHT"	1025.33319999998	533.3333344	n/a	n/a	n/a	n/a	n/a	n/a	n/a	"2021-02-17 14:12:08.448735"	"2021-02-17 14:12:09.680731"	145	6.36387526666667
"S210217"	"Response_Inhibition"	"LEFT"	"LEFT"	1331.80159999995	516.6666677	n/a	n/a	n/a	n/a	n/a	n/a	n/a	"2021-02-17 14:12:10.206337"	"2021-02-17 14:12:11.745765"	146	6.36387526666667
"S210217"	"Response_Inhibition"	"RIGHT"	"Time_Max_Exceeded"	1500.05383380002	1400.0000028	n/a	n/a	n/a	n/a	n/a	n/a	n/a	"2021-02-17 14:12:13.154057"	"2021-02-17 14:12:14.657921"	147	6.36387526666667
"S210217"	"Response_Inhibition"	"RIGHT"	"RIGHT"	1079.72560000007	583.3333345	n/a	n/a	n/a	n/a	n/a	n/a	n/a	"2021-02-17 14:12:15.249810"	"2021-02-17 14:12:16.537505"	148	6.36387526666667
"S210217"	"Response_Inhibition"	"RIGHT"	"RIGHT"	755.200400000035	1316.6666693	n/a	n/a	n/a	n/a	n/a	n/a	n/a	"2021-02-17 14:12:17.863115"	"2021-02-17 14:12:18.825112"	149	6.36387526666667
"S210217"	"Response_Inhibition"	"LEFT"	"LEFT"	709.175800000025	1283.3333359	n/a	n/a	n/a	n/a	n/a	n/a	n/a	"2021-02-17 14:12:20.116482"	"2021-02-17 14:12:21.034552"	150	6.36387526666667
"S210217"	"Response_Inhibition"	"LEFT"	"Time_Max_Exceeded"	1500.06183349998	1050.0000021	n/a	n/a	n/a	n/a	n/a	n/a	n/a	"2021-02-17 14:12:22.094144"	"2021-02-17 14:12:23.596861"	151	6.36387526666667
"S210217"	"Response_Inhibition"	"LEFT"	"LEFT"	894.113900000093	750.0000015	n/a	n/a	n/a	n/a	n/a	n/a	n/a	"2021-02-17 14:12:24.355936"	"2021-02-17 14:12:25.458420"	152	6.36387526666667
"S210217"	"Response_Inhibition"	"RIGHT"	"RIGHT"	929.665999999997	1333.333336	n/a	n/a	n/a	n/a	n/a	n/a	n/a	"2021-02-17 14:12:26.800500"	"2021-02-17 14:12:27.937197"	153	6.36387526666667
"S210217"	"Response_Inhibition"	"RIGHT"	"RIGHT"	1096.23850000003	1000.000002	n/a	n/a	n/a	n/a	n/a	n/a	n/a	"2021-02-17 14:12:28.945334"	"2021-02-17 14:12:30.250179"	154	6.36387526666667
"S210217"	"Response_Inhibition"	"LEFT"	"LEFT"	1113.31919999998	733.3333348	n/a	n/a	n/a	n/a	n/a	n/a	n/a	"2021-02-17 14:12:30.992404"	"2021-02-17 14:12:32.312847"	155	6.36387526666667
"S210217"	"Response_Inhibition"	"LEFT"	"LEFT"	1074.76559999998	1150.0000023	n/a	n/a	n/a	n/a	n/a	n/a	n/a	"2021-02-17 14:12:33.471170"	"2021-02-17 14:12:34.754572"	156	6.36387526666667
"S210217"	"Response_Inhibition"	"LEFT"	"LEFT"	1201.49049999998	1333.333336	n/a	n/a	n/a	n/a	n/a	n/a	n/a	"2021-02-17 14:12:36.096344"	"2021-02-17 14:12:37.505639"	157	6.36387526666667
"S210217"	"Response_Inhibition"	"LEFT"	"LEFT"	1317.33539999993	1066.6666688	n/a	n/a	n/a	n/a	n/a	n/a	n/a	"2021-02-17 14:12:38.580325"	"2021-02-17 14:12:40.106632"	158	6.36387526666667
"S210217"	"Response_Inhibition"	"RIGHT"	"Time_Max_Exceeded"	1500.05903350003	933.3333352	n/a	n/a	n/a	n/a	n/a	n/a	n/a	"2021-02-17 14:12:41.048764"	"2021-02-17 14:12:42.552165"	159	6.36387526666667
"S210217"	"Response_Inhibition"	"LEFT"	"LEFT"	1114.65310000006	733.3333348	n/a	n/a	n/a	n/a	n/a	n/a	n/a	"2021-02-17 14:12:43.295226"	"2021-02-17 14:12:44.618509"	160	6.36387526666667
"S210217"	"Response_Selection"	"RIGHT"	"RIGHT"	373.744399999964	1216.6666691	n/a	n/a	n/a	n/a	n/a	n/a	n/a	"2021-02-17 14:04:20.468471"	"2021-02-17 14:04:21.050745"	1	2.6733454
"S210217"	"Response_Selection"	"RIGHT"	"RIGHT"	322.458500000039	550.0000011	n/a	n/a	n/a	n/a	n/a	n/a	n/a	"2021-02-17 14:04:21.609620"	"2021-02-17 14:04:22.140671"	2	2.6733454
"S210217"	"Response_Selection"	"RIGHT"	"RIGHT"	321.075099999973	500.000001	n/a	n/a	n/a	n/a	n/a	n/a	n/a	"2021-02-17 14:04:22.649026"	"2021-02-17 14:04:23.178556"	3	2.6733454
"S210217"	"Response_Selection"	"RIGHT"	"RIGHT"	315.030699999966	700.0000014	n/a	n/a	n/a	n/a	n/a	n/a	n/a	"2021-02-17 14:04:23.887789"	"2021-02-17 14:04:24.410566"	4	2.6733454
"S210217"	"Response_Selection"	"LEFT"	"LEFT"	297.882799999968	1316.6666693	n/a	n/a	n/a	n/a	n/a	n/a	n/a	"2021-02-17 14:04:25.736966"	"2021-02-17 14:04:26.243401"	5	2.6733454
"S210217"	"Response_Selection"	"LEFT"	"LEFT"	344.943600000022	750.0000015	n/a	n/a	n/a	n/a	n/a	n/a	n/a	"2021-02-17 14:04:27.001449"	"2021-02-17 14:04:27.554499"	6	2.6733454
"S210217"	"Response_Selection"	"LEFT"	"LEFT"	370.256799999993	533.3333344	n/a	n/a	n/a	n/a	n/a	n/a	n/a	"2021-02-17 14:04:28.096054"	"2021-02-17 14:04:28.674004"	7	2.6733454
"S210217"	"Response_Selection"	"LEFT"	"LEFT"	318.619000000012	1400.0000028	n/a	n/a	n/a	n/a	n/a	n/a	n/a	"2021-02-17 14:04:30.083319"	"2021-02-17 14:04:30.611149"	8	2.6733454
"S210217"	"Response_Selection"	"RIGHT"	"RIGHT"	313.516399999969	933.3333352	n/a	n/a	n/a	n/a	n/a	n/a	n/a	"2021-02-17 14:04:31.553218"	"2021-02-17 14:04:32.075693"	9	2.6733454
"S210217"	"Response_Selection"	"RIGHT"	"RIGHT"	317.159099999969	1033.3333354	n/a	n/a	n/a	n/a	n/a	n/a	n/a	"2021-02-17 14:04:33.117379"	"2021-02-17 14:04:33.642976"	10	2.6733454
"S210217"	"Response_Selection"	"RIGHT"	"RIGHT"	309.145599999965	1450.0000029	n/a	n/a	n/a	n/a	n/a	n/a	n/a	"2021-02-17 14:04:35.101142"	"2021-02-17 14:04:35.618037"	11	2.6733454
"S210217"	"Response_Selection"	"LEFT"	"LEFT"	364.720299999988	1083.3333355	n/a	n/a	n/a	n/a	n/a	n/a	n/a	"2021-02-17 14:04:36.709730"	"2021-02-17 14:04:37.282710"	12	2.6733454
"S210217"	"Response_Selection"	"RIGHT"	"RIGHT"	298.727799999995	1316.6666693	n/a	n/a	n/a	n/a	n/a	n/a	n/a	"2021-02-17 14:04:38.608291"	"2021-02-17 14:04:39.114204"	13	2.6733454
"S210217"	"Response_Selection"	"RIGHT"	"RIGHT"	357.824800000003	650.0000013	n/a	n/a	n/a	n/a	n/a	n/a	n/a	"2021-02-17 14:04:39.772182"	"2021-02-17 14:04:40.338947"	14	2.6733454
"S210217"	"Response_Selection"	"RIGHT"	"RIGHT"	281.816200000037	1116.6666689	n/a	n/a	n/a	n/a	n/a	n/a	n/a	"2021-02-17 14:04:41.464679"	"2021-02-17 14:04:41.954368"	15	2.6733454
"S210217"	"Response_Selection"	"RIGHT"	"RIGHT"	324.76539999999	1266.6666692	n/a	n/a	n/a	n/a	n/a	n/a	n/a	"2021-02-17 14:04:43.229810"	"2021-02-17 14:04:43.763357"	16	2.6733454
"S210217"	"Response_Selection"	"LEFT"	"LEFT"	299.001200000021	1266.6666692	n/a	n/a	n/a	n/a	n/a	n/a	n/a	"2021-02-17 14:04:45.039549"	"2021-02-17 14:04:45.547253"	17	2.6733454
"S210217"	"Response_Selection"	"RIGHT"	"RIGHT"	326.693999999975	800.0000016	n/a	n/a	n/a	n/a	n/a	n/a	n/a	"2021-02-17 14:04:46.355859"	"2021-02-17 14:04:46.889935"	18	2.6733454
"S210217"	"Response_Selection"	"LEFT"	"LEFT"	265.464099999974	1166.666669	n/a	n/a	n/a	n/a	n/a	n/a	n/a	"2021-02-17 14:04:48.064911"	"2021-02-17 14:04:48.538644"	19	2.6733454
"S210217"	"Response_Selection"	"RIGHT"	"RIGHT"	451.19619999997	1300.0000026	n/a	n/a	n/a	n/a	n/a	n/a	n/a	"2021-02-17 14:04:49.847052"	"2021-02-17 14:04:50.507366"	20	2.6733454
"S210217"	"Response_Selection"	"LEFT"	"LEFT"	330.327000000011	916.6666685	n/a	n/a	n/a	n/a	n/a	n/a	n/a	"2021-02-17 14:04:51.432493"	"2021-02-17 14:04:51.970029"	21	2.6733454
"S210217"	"Response_Selection"	"RIGHT"	"RIGHT"	329.133500000012	1366.6666694	n/a	n/a	n/a	n/a	n/a	n/a	n/a	"2021-02-17 14:04:53.345634"	"2021-02-17 14:04:53.881164"	22	2.6733454
"S210217"	"Response_Selection"	"LEFT"	"LEFT"	286.079299999983	1416.6666695	n/a	n/a	n/a	n/a	n/a	n/a	n/a	"2021-02-17 14:04:55.308604"	"2021-02-17 14:04:55.802414"	23	2.6733454
"S210217"	"Response_Selection"	"LEFT"	"LEFT"	351.45140000003	1200.0000024	n/a	n/a	n/a	n/a	n/a	n/a	n/a	"2021-02-17 14:04:57.011459"	"2021-02-17 14:04:57.570961"	24	2.6733454
"S210217"	"Response_Selection"	"LEFT"	"LEFT"	328.506699999991	966.6666686	n/a	n/a	n/a	n/a	n/a	n/a	n/a	"2021-02-17 14:04:58.545645"	"2021-02-17 14:04:59.082712"	25	2.6733454
"S210217"	"Response_Selection"	"RIGHT"	"RIGHT"	344.261399999994	583.3333345	n/a	n/a	n/a	n/a	n/a	n/a	n/a	"2021-02-17 14:04:59.673897"	"2021-02-17 14:05:00.228750"	26	2.6733454
"S210217"	"Response_Selection"	"LEFT"	"LEFT"	328.488300000004	1116.6666689	n/a	n/a	n/a	n/a	n/a	n/a	n/a	"2021-02-17 14:05:01.353896"	"2021-02-17 14:05:01.889977"	27	2.6733454
"S210217"	"Response_Selection"	"RIGHT"	"RIGHT"	316.567399999997	1466.6666696	n/a	n/a	n/a	n/a	n/a	n/a	n/a	"2021-02-17 14:05:03.365715"	"2021-02-17 14:05:03.889760"	28	2.6733454
"S210217"	"Response_Selection"	"LEFT"	"LEFT"	303.742800000009	800.0000016	n/a	n/a	n/a	n/a	n/a	n/a	n/a	"2021-02-17 14:05:04.698851"	"2021-02-17 14:05:05.210482"	29	2.6733454
"S210217"	"Response_Selection"	"LEFT"	"LEFT"	333.56329999998	1250.0000025	n/a	n/a	n/a	n/a	n/a	n/a	n/a	"2021-02-17 14:05:06.469360"	"2021-02-17 14:05:07.009957"	30	2.6733454
"S210217"	"Response_Selection"	"LEFT"	"LEFT"	334.153399999991	833.333335	n/a	n/a	n/a	n/a	n/a	n/a	n/a	"2021-02-17 14:05:07.852416"	"2021-02-17 14:05:08.394279"	31	2.6733454
"S210217"	"Response_Selection"	"LEFT"	"LEFT"	357.444599999951	1450.0000029	n/a	n/a	n/a	n/a	n/a	n/a	n/a	"2021-02-17 14:05:09.853184"	"2021-02-17 14:05:10.417720"	32	2.6733454
"S210217"	"Response_Selection"	"RIGHT"	"RIGHT"	487.476900000047	1200.0000024	n/a	n/a	n/a	n/a	n/a	n/a	n/a	"2021-02-17 14:05:11.627257"	"2021-02-17 14:05:12.322397"	33	2.6733454
"S210217"	"Response_Selection"	"RIGHT"	"RIGHT"	535.070400000052	600.0000012	n/a	n/a	n/a	n/a	n/a	n/a	n/a	"2021-02-17 14:05:12.931477"	"2021-02-17 14:05:13.674511"	34	2.6733454
"S210217"	"Response_Selection"	"RIGHT"	"RIGHT"	360.338800000022	983.3333353	n/a	n/a	n/a	n/a	n/a	n/a	n/a	"2021-02-17 14:05:14.666033"	"2021-02-17 14:05:15.234069"	35	2.6733454
"S210217"	"Response_Selection"	"LEFT"	"LEFT"	287.232300000028	1016.6666687	n/a	n/a	n/a	n/a	n/a	n/a	n/a	"2021-02-17 14:05:16.259480"	"2021-02-17 14:05:16.753793"	36	2.6733454
"S210217"	"Response_Selection"	"LEFT"	"LEFT"	316.706100000033	883.3333351	n/a	n/a	n/a	n/a	n/a	n/a	n/a	"2021-02-17 14:05:17.645915"	"2021-02-17 14:05:18.170588"	37	2.6733454
"S210217"	"Response_Selection"	"RIGHT"	"RIGHT"	321.076500000004	1350.0000027	n/a	n/a	n/a	n/a	n/a	n/a	n/a	"2021-02-17 14:05:19.529651"	"2021-02-17 14:05:20.058426"	38	2.6733454
"S210217"	"Response_Selection"	"RIGHT"	"RIGHT"	376.425100000006	1166.666669	n/a	n/a	n/a	n/a	n/a	n/a	n/a	"2021-02-17 14:05:21.234288"	"2021-02-17 14:05:21.818279"	39	2.6733454
"S210217"	"Response_Selection"	"RIGHT"	"RIGHT"	345.820400000036	533.3333344	n/a	n/a	n/a	n/a	n/a	n/a	n/a	"2021-02-17 14:05:22.360905"	"2021-02-17 14:05:22.914605"	40	2.6733454
"S210217"	"Response_Selection"	"RIGHT"	"RIGHT"	291.909299999986	1066.6666688	n/a	n/a	n/a	n/a	n/a	n/a	n/a	"2021-02-17 14:05:23.990273"	"2021-02-17 14:05:24.490291"	41	2.6733454
"S210217"	"Response_Selection"	"RIGHT"	"RIGHT"	290.469299999984	733.3333348	n/a	n/a	n/a	n/a	n/a	n/a	n/a	"2021-02-17 14:05:25.231927"	"2021-02-17 14:05:25.731678"	42	2.6733454
"S210217"	"Response_Selection"	"RIGHT"	"RIGHT"	307.859899999983	883.3333351	n/a	n/a	n/a	n/a	n/a	n/a	n/a	"2021-02-17 14:05:26.622904"	"2021-02-17 14:05:27.139555"	43	2.6733454
"S210217"	"Response_Selection"	"LEFT"	"LEFT"	263.881600000047	1133.3333356	n/a	n/a	n/a	n/a	n/a	n/a	n/a	"2021-02-17 14:05:28.282756"	"2021-02-17 14:05:28.754283"	44	2.6733454
"S210217"	"Response_Selection"	"RIGHT"	"RIGHT"	261.782299999993	1250.0000025	n/a	n/a	n/a	n/a	n/a	n/a	n/a	"2021-02-17 14:05:30.012928"	"2021-02-17 14:05:30.482045"	45	2.6733454
"S210217"	"Response_Selection"	"LEFT"	"LEFT"	393.859299999974	550.0000011	n/a	n/a	n/a	n/a	n/a	n/a	n/a	"2021-02-17 14:05:31.040551"	"2021-02-17 14:05:31.642418"	46	2.6733454
"S210217"	"Response_Selection"	"RIGHT"	"RIGHT"	259.515800000031	1500.000003	n/a	n/a	n/a	n/a	n/a	n/a	n/a	"2021-02-17 14:05:33.151155"	"2021-02-17 14:05:33.618389"	47	2.6733454
"S210217"	"Response_Selection"	"LEFT"	"LEFT"	341.159900000036	1466.6666696	n/a	n/a	n/a	n/a	n/a	n/a	n/a	"2021-02-17 14:05:35.093185"	"2021-02-17 14:05:35.641958"	48	2.6733454
"S210217"	"Response_Selection"	"RIGHT"	"RIGHT"	287.129400000026	1416.6666695	n/a	n/a	n/a	n/a	n/a	n/a	n/a	"2021-02-17 14:05:37.067546"	"2021-02-17 14:05:37.563476"	49	2.6733454
"S210217"	"Response_Selection"	"LEFT"	"LEFT"	333.786800000041	600.0000012	n/a	n/a	n/a	n/a	n/a	n/a	n/a	"2021-02-17 14:05:38.172766"	"2021-02-17 14:05:38.714557"	50	2.6733454
"S210217"	"Response_Selection"	"RIGHT"	"RIGHT"	268.763299999989	633.3333346	n/a	n/a	n/a	n/a	n/a	n/a	n/a	"2021-02-17 14:05:39.357310"	"2021-02-17 14:05:39.833768"	51	2.6733454
"S210217"	"Response_Selection"	"LEFT"	"LEFT"	267.99589999996	700.0000014	n/a	n/a	n/a	n/a	n/a	n/a	n/a	"2021-02-17 14:05:40.542329"	"2021-02-17 14:05:41.019355"	52	2.6733454
"S210217"	"Response_Selection"	"RIGHT"	"RIGHT"	264.008600000011	966.6666686	n/a	n/a	n/a	n/a	n/a	n/a	n/a	"2021-02-17 14:05:41.994826"	"2021-02-17 14:05:42.466530"	53	2.6733454
"S210217"	"Response_Selection"	"LEFT"	"LEFT"	299.804699999981	1066.6666688	n/a	n/a	n/a	n/a	n/a	n/a	n/a	"2021-02-17 14:05:43.542772"	"2021-02-17 14:05:44.049930"	54	2.6733454
"S210217"	"Response_Selection"	"LEFT"	"LEFT"	319.004600000028	1216.6666691	n/a	n/a	n/a	n/a	n/a	n/a	n/a	"2021-02-17 14:05:45.275786"	"2021-02-17 14:05:45.802280"	55	2.6733454
"S210217"	"Response_Selection"	"LEFT"	"LEFT"	300.135000000012	683.3333347	n/a	n/a	n/a	n/a	n/a	n/a	n/a	"2021-02-17 14:05:46.494430"	"2021-02-17 14:05:47.002644"	56	2.6733454
"S210217"	"Response_Selection"	"RIGHT"	"RIGHT"	262.02440000003	833.333335	n/a	n/a	n/a	n/a	n/a	n/a	n/a	"2021-02-17 14:05:47.844069"	"2021-02-17 14:05:48.314381"	57	2.6733454
"S210217"	"Response_Selection"	"LEFT"	"LEFT"	280.005000000017	1366.6666694	n/a	n/a	n/a	n/a	n/a	n/a	n/a	"2021-02-17 14:05:49.690704"	"2021-02-17 14:05:50.178399"	58	2.6733454
"S210217"	"Response_Selection"	"RIGHT"	"RIGHT"	300.369699999976	1083.3333355	n/a	n/a	n/a	n/a	n/a	n/a	n/a	"2021-02-17 14:05:51.269669"	"2021-02-17 14:05:51.779688"	59	2.6733454
"S210217"	"Response_Selection"	"LEFT"	"LEFT"	319.1688	983.3333353	n/a	n/a	n/a	n/a	n/a	n/a	n/a	"2021-02-17 14:05:52.771296"	"2021-02-17 14:05:53.299550"	60	2.6733454
"S210217"	"Response_Selection"	"LEFT"	"LEFT"	360.942500000021	733.3333348	n/a	n/a	n/a	n/a	n/a	n/a	n/a	"2021-02-17 14:05:54.041565"	"2021-02-17 14:05:54.610533"	61	2.6733454
"S210217"	"Response_Selection"	"LEFT"	"LEFT"	367.80600000003	583.3333345	n/a	n/a	n/a	n/a	n/a	n/a	n/a	"2021-02-17 14:05:55.203037"	"2021-02-17 14:05:55.778497"	62	2.6733454
"S210217"	"Response_Selection"	"LEFT"	"LEFT"	325.027299999988	650.0000013	n/a	n/a	n/a	n/a	n/a	n/a	n/a	"2021-02-17 14:05:56.437817"	"2021-02-17 14:05:56.970023"	63	2.6733454
"S210217"	"Response_Selection"	"RIGHT"	"RIGHT"	321.528699999988	1133.3333356	n/a	n/a	n/a	n/a	n/a	n/a	n/a	"2021-02-17 14:05:58.112742"	"2021-02-17 14:05:58.642028"	64	2.6733454
"S210217"	"Response_Selection"	"RIGHT"	"RIGHT"	293.394699999965	866.6666684	n/a	n/a	n/a	n/a	n/a	n/a	n/a	"2021-02-17 14:05:59.517199"	"2021-02-17 14:06:00.017715"	65	2.6733454
"S210217"	"Response_Selection"	"RIGHT"	"RIGHT"	350.925999999959	1400.0000028	n/a	n/a	n/a	n/a	n/a	n/a	n/a	"2021-02-17 14:06:01.427325"	"2021-02-17 14:06:01.986033"	66	2.6733454
"S210217"	"Response_Selection"	"RIGHT"	"RIGHT"	312.82269999997	783.3333349	n/a	n/a	n/a	n/a	n/a	n/a	n/a	"2021-02-17 14:06:02.777915"	"2021-02-17 14:06:03.298558"	67	2.6733454
"S210217"	"Response_Selection"	"LEFT"	"LEFT"	281.873000000019	1300.0000026	n/a	n/a	n/a	n/a	n/a	n/a	n/a	"2021-02-17 14:06:04.608515"	"2021-02-17 14:06:05.097767"	68	2.6733454
"S210217"	"Response_Selection"	"LEFT"	"LEFT"	304.920299999992	783.3333349	n/a	n/a	n/a	n/a	n/a	n/a	n/a	"2021-02-17 14:06:05.889237"	"2021-02-17 14:06:06.401865"	69	2.6733454
"S210217"	"Response_Selection"	"LEFT"	"LEFT"	317.311299999972	866.6666684	n/a	n/a	n/a	n/a	n/a	n/a	n/a	"2021-02-17 14:06:07.277105"	"2021-02-17 14:06:07.802094"	70	2.6733454
"S210217"	"Response_Selection"	"RIGHT"	"RIGHT"	283.106000000032	916.6666685	n/a	n/a	n/a	n/a	n/a	n/a	n/a	"2021-02-17 14:06:08.727222"	"2021-02-17 14:06:09.217909"	71	2.6733454
"S210217"	"Response_Selection"	"RIGHT"	"RIGHT"	350.938600000006	1016.6666687	n/a	n/a	n/a	n/a	n/a	n/a	n/a	"2021-02-17 14:06:10.243498"	"2021-02-17 14:06:10.802207"	72	2.6733454
"S210217"	"Response_Selection"	"RIGHT"	"RIGHT"	305.78220000001	750.0000015	n/a	n/a	n/a	n/a	n/a	n/a	n/a	"2021-02-17 14:06:11.560696"	"2021-02-17 14:06:12.074471"	73	2.6733454
"S210217"	"Response_Selection"	"LEFT"	"LEFT"	458.245900000009	500.000001	n/a	n/a	n/a	n/a	n/a	n/a	n/a	"2021-02-17 14:06:12.584076"	"2021-02-17 14:06:13.250070"	74	2.6733454
"S210217"	"Response_Selection"	"LEFT"	"LEFT"	364.261800000008	1500.000003	n/a	n/a	n/a	n/a	n/a	n/a	n/a	"2021-02-17 14:06:14.758245"	"2021-02-17 14:06:15.329889"	75	2.6733454
"S210217"	"Response_Selection"	"RIGHT"	"RIGHT"	340.066200000024	683.3333347	n/a	n/a	n/a	n/a	n/a	n/a	n/a	"2021-02-17 14:06:16.022683"	"2021-02-17 14:06:16.570218"	76	2.6733454
"S210217"	"Response_Selection"	"LEFT"	"LEFT"	330.23380000003	933.3333352	n/a	n/a	n/a	n/a	n/a	n/a	n/a	"2021-02-17 14:06:17.511978"	"2021-02-17 14:06:18.050374"	77	2.6733454
"S210217"	"Response_Selection"	"LEFT"	"LEFT"	318.324700000005	633.3333346	n/a	n/a	n/a	n/a	n/a	n/a	n/a	"2021-02-17 14:06:18.692162"	"2021-02-17 14:06:19.219257"	78	2.6733454
"S210217"	"Response_Selection"	"LEFT"	"LEFT"	312.647999999967	1350.0000027	n/a	n/a	n/a	n/a	n/a	n/a	n/a	"2021-02-17 14:06:20.577269"	"2021-02-17 14:06:21.098603"	79	2.6733454
"S210217"	"Response_Selection"	"LEFT"	"LEFT"	349.329399999988	1033.3333354	n/a	n/a	n/a	n/a	n/a	n/a	n/a	"2021-02-17 14:06:22.141215"	"2021-02-17 14:06:22.698227"	80	2.6733454
