index	Trial_Type	Participant_ID	Trial_Probability	Question_Position_Prediction_Correct	Question_Position_Prediction_Agent	Question_Position_Comparison_Self	Question_Position_Comparison_Irrelevant	Trial_Stake	Trial_Stake_Jitter	Trial_Type_Jitter	Trial_Result_Jitter	Balance_Update_Jitter	Question_Comparison_Condition	Question_Comparison_Type	Question_Comparison_Question	Question_Comparison_Label	Question_Comparison_Item	Question_Comparison_Proportion_Yes	Question_Factual_Condition	Question_Factual_Item	Question_Factual_Question	Question_Factual_Label	Question_Factual_Proportion_DontKnow	Question_Factual_Type	Answer_Prediction_Correct	Answer_Prediction_Correct_RT	Answer_Prediction_Agent	Answer_Prediction_Agent_RT	Answer_Self	Answer_Self_RT	Answer_Irrelevant	Answer_Irrelevant_RT	Trial_Balance	Trial_Balance_Effect	Trial_Condition	Trial_ProbableSide	Prediction_Choice	Prediction_Result	Prediction_RT	Trial_Order	Trial_Datetime
50	Self	S210203	0.5	1	2	1	2	0.2	1283.3333359	1500.000003	2066.6666708	1650.0000033	Minor	Good_deeds	58	You have engaged in underage smoking	C2_54	0.15	Hard	I2_53	4	The Moon orbits around the Earth	0.0555555555555556	Yes	RIGHT	662.4292999999852	RIGHT	480.8445999999549	LEFT	1409.497999999985	LEFT	1343.872200000078	10.2	0.2	Probable_Truth	RIGHT	RIGHT	6	676.5811000000213	0	2021-02-03 14:19:19.698010
18	Self	S210203	0.6666666666666666	1	2	1	2	0.3	1283.3333359	1350.0000027	1783.3333369	2500.000005	Minor	Wrong_doings	23	You have helped others to pick up their belongings	C1_45	1.0	Hard	I1_32	32	It is 20th Century now	0.111111111111111	Yes	LEFT	1114.513599999782	RIGHT	833.0857999999353	RIGHT	1820.410000000038	LEFT	2183.8142999999945	9.9	0.3	Probable_Lie	RIGHT	RIGHT	1	997.0846000001076	1	2021-02-03 14:19:46.137883
127	Computer	S210203	0.6666666666666666	2	1	2	1	0.8	1000.000002	1150.0000023	1933.3333372	2216.6666711000003	Major	Wrong_doings	11	You have pretended to be busy to avoid a social situation	C1_51	0.0	Easy	I1_38	2	Septicemia is a lung infection condition	0.833333333333333	Yes	LEFT	1376.7397999999955	LEFT	1162.3967999998968	RIGHT	2862.767099999928	LEFT	1962.2362000000064	9.9	0.8	Probable_Lie	LEFT	RIGHT	2	575.1848220691529	2	2021-02-03 14:20:12.937741
136	Computer	S210203	0.8333333333333334	2	1	1	2	0.8	1500.000003	1350.0000027	2350.0000047	1783.3333369	Minor	Wrong_doings	14	You have assisted in a crime	C1_44	0.95	Hard	I2_35	42	Beef comes from cows	0.833333333333333	No	RIGHT	584.469399999989	RIGHT	1020.5501000000368	LEFT	2049.8199000001023	LEFT	2463.4567999999035	10.7	0.8	Probable_Truth	RIGHT	RIGHT	5	930.1777899050148	3	2021-02-03 14:20:39.545433
49	Self	S210203	0.5	1	2	1	2	0.1	1500.000003	1000.000002	2350.0000047	1783.3333369	Major	Wrong_doings	27	You have told someone's secret to others	C1_39	0.0	Hard	I2_26	53	The first Olympic Games was held in the 5th century B.C	0.833333333333333	No	RIGHT	933.1520000000636	RIGHT	629.7812000000249	LEFT	1770.1239000000442	RIGHT	2382.614900000135	10.8	0.1	Probable_Truth	LEFT	RIGHT	6	661.8528999999853	4	2021-02-03 14:21:05.129959
37	Self	S210203	0.8333333333333334	1	2	2	1	0.5	1216.6666691	1216.6666691	2066.6666708	2216.6666711000003	Major	Wrong_doings	35	You have used a fake name online	C1_20	0.05	Easy	I2_31	1	Fibers in oranges can be used to make fabric	0.833333333333333	Yes	RIGHT	862.1094000000085	RIGHT	550.6244999999126	RIGHT	2006.570199999942	LEFT	2520.007299999861	11.3	0.5	Probable_Truth	RIGHT	RIGHT	3	628.7174999999934	5	2021-02-03 14:21:30.994212
134	Computer	S210203	0.8333333333333334	1	2	2	1	0.7	1433.3333362	1350.0000027	2216.6666711000003	2066.6666708	Major	Good_deeds	20	You have watched a pirated movie	C2_53	1.0	Easy	I1_1	47	Singapore ranked 8th in World's smallest countries	0.0555555555555556	Yes	LEFT	991.8694000000414	LEFT	1048.5683999997946	LEFT	2343.755399999964	RIGHT	2727.9848999999103	11.3	0.7	Probable_Lie	RIGHT	RIGHT	1	785.5319434215787	6	2021-02-03 14:21:58.522124
45	Self	S210203	0.8333333333333334	2	1	2	1	0.4	1216.6666691	1150.0000023	2500.000005	2500.000005	Minor	Good_deeds	31	You have lied to your parents	C1_31	1.0	Hard	I1_36	58	The Franco-Prussian War occurred in the 19th century	0.0	No	RIGHT	783.9979000000312	RIGHT	860.7904000000417	LEFT	1360.4159999999863	RIGHT	2266.1553000000367	11.7	0.4	Probable_Truth	LEFT	LEFT	1	729.0821999999935	7	2021-02-03 14:22:24.474234
31	Self	S210203	0.6666666666666666	2	1	2	1	0.5	1500.000003	1150.0000023	2216.6666711000003	2216.6666711000003	Major	Wrong_doings	11	You have pretended to be busy to avoid a social situation	C1_51	0.0	Easy	I1_38	2	Septicemia is a lung infection condition	0.833333333333333	Yes	RIGHT	2063.399499999832	RIGHT	1175.9632000000693	RIGHT	2719.1583000001174	LEFT	2888.089799999989	12.2	0.5	Probable_Lie	LEFT	LEFT	5	1278.719099999989	8	2021-02-03 14:22:54.257730
17	Self	S210203	0.6666666666666666	1	2	1	2	0.2	1433.3333362	1283.3333359	1650.0000033	1783.3333369	Major	Wrong_doings	38	You have made someone cry	C2_38	0.5	Hard	I2_41	19	Cernan was the second last man to walk on the Moon	0.944444444444444	Yes	RIGHT	590.7627999999931	RIGHT	2032.0658000000549	RIGHT	2040.553300000056	LEFT	3134.782600000108	12.4	0.2	Probable_Truth	LEFT	LEFT	1	795.0522999999521	9	2021-02-03 14:23:21.577502
121	Computer	S210203	0.6666666666666666	2	1	1	2	0.7	1350.0000027	1283.3333359	1783.3333369	2066.6666708	Major	Good_deeds	42	You have gossiped about your best friend	C1_17	0.0	Easy	I2_42	21	The Earth turns the closest to the sun in May	0.0	No	RIGHT	479.83250000015687	LEFT	1085.1654000000508	LEFT	2065.320000000156	LEFT	3775.1691999999366	12.4	0.7	Probable_Truth	RIGHT	LEFT	2	557.1071969393223	10	2021-02-03 14:23:48.585274
129	Computer	S210203	0.8333333333333334	1	2	1	2	0.6	1350.0000027	1500.000003	1933.3333372	1500.000003	Minor	Good_deeds	43	You have held the elevator doors for others	C1_43	0.45	Hard	I2_48	31	Teddy Roosevelt was the youngest US President	0.0	No	RIGHT	674.0290000000186	LEFT	760.2785000001404	RIGHT	1349.0072000001874	RIGHT	3438.6166000001595	12.4	0.6	Probable_Truth	LEFT	LEFT	1	878.313383523072	11	2021-02-03 14:24:14.546089
76	Self	S210203	0.6666666666666666	2	1	2	1	0.4	1066.6666688	1150.0000023	2500.000005	2350.0000047	Major	Good_deeds	3	You have cheated on a national exam	C1_47	1.0	Easy	I2_4	39	There are 9 rings in the Olympic flag	0.0	Yes	RIGHT	583.4759999997914	RIGHT	838.775299999952	LEFT	1407.688700000108	LEFT	1971.0086999998568	12.8	0.4	Probable_Lie	LEFT	LEFT	3	784.1653999998925	12	2021-02-03 14:24:39.768450
137	Computer	S210203	0.8333333333333334	2	1	1	2	0.2	1000.000002	1283.3333359	2066.6666708	2350.0000047	Minor	Wrong_doings	60	You have done something against your values	C2_9	1.0	Hard	I1_9	3	The sun rises at night	0.0	Yes	LEFT	1575.8613999998945	LEFT	992.5534999999854	LEFT	1924.6988999998396	LEFT	1422.5742000000992	12.8	0.2	Probable_Lie	LEFT	LEFT	6	608.6560732722039	13	2021-02-03 14:25:05.554126
89	Self	S210203	0.8333333333333334	2	1	1	2	0.7	1500.000003	1283.3333359	2500.000005	2066.6666708	Minor	Good_deeds	16	You have blackmailed others for money	C1_48	1.0	Easy	I2_11	53	There are 6 million animal species on Earth	0.0	Yes	RIGHT	503.8547000001472	RIGHT	693.7952000000678	LEFT	1223.1062000000748	RIGHT	4512.110899999925	13.499999999999998	0.7	Probable_Truth	LEFT	LEFT	1	700.0519999999142	14	2021-02-03 14:25:33.113178
98	Computer	S210203	0.5	1	2	1	2	0.4	1500.000003	1150.0000023	1500.000003	2350.0000047	Major	Good_deeds	15	You have cursed at others	C1_34	0.0	Hard	I1_23	33	Saturn's rings are between 30 and 300 feet thick	0.722222222222222	Yes	LEFT	830.4090000001452	LEFT	616.1761000000752	LEFT	3164.316500000041	RIGHT	2111.9967999998157	13.499999999999998	0.4	Probable_Lie	LEFT	LEFT	6	806.6448672454023	15	2021-02-03 14:25:59.705990
38	Self	S210203	0.8333333333333334	1	2	2	1	0.8	1066.6666688	1433.3333362	1933.3333372	1783.3333369	Major	Good_deeds	20	You have watched a pirated movie	C2_53	1.0	Easy	I1_1	47	Singapore ranked 8th in World's smallest countries	0.0555555555555556	Yes	RIGHT	556.0314000001654	RIGHT	601.0467999999491	LEFT	1040.2781000000232	RIGHT	1883.2261000000017	14.3	0.8	Probable_Truth	RIGHT	RIGHT	2	611.7995000001883	16	2021-02-03 14:26:23.185956
27	Self	S210203	0.6666666666666666	2	1	1	2	0.8	1216.6666691	1283.3333359	2500.000005	1500.000003	Minor	Wrong_doings	2	You have helped with household chores	C2_57	1.0	Hard	I2_51	59	It is night time now	0.0	Yes	RIGHT	1264.0616000001046	RIGHT	1061.2937000000784	RIGHT	1550.0119000000725	LEFT	1791.186400000015	15.1	0.8	Probable_Lie	LEFT	LEFT	5	890.1341000000684	17	2021-02-03 14:26:48.816417
71	Self	S210203	0.6666666666666666	1	2	2	1	0.7	1150.0000023	1216.6666691	1500.000003	1500.000003	Minor	Wrong_doings	36	You have switched off appliances when not in use	C1_49	0.75	Easy	I2_25	39	It takes 112 years to build the Pisa Tower	0.0	No	RIGHT	798.2587999999851	RIGHT	657.1433000001434	RIGHT	1743.6701000001449	RIGHT	2333.3052000000407	15.8	0.7	Probable_Truth	LEFT	LEFT	1	883.6627999999109	18	2021-02-03 14:27:13.169336
3	Self	S210203	0.5	1	2	1	2	0.8	1283.3333359	1283.3333359	2500.000005	2500.000005	Major	Wrong_doings	22	You have made counterfeit money	C1_60	1.0	Easy	I1_35	28	Kangaroos live in Africa	0.0	No	LEFT	1868.4021999999916	RIGHT	465.03149999989546	LEFT	1660.8582000001206	LEFT	1263.6671000000206	14.999999999999998	0.8	Probable_Lie	LEFT	RIGHT	2	1443.2171000000835	19	2021-02-03 14:27:40.008932
73	Self	S210203	0.6666666666666666	2	1	1	2	0.5	1433.3333362	1433.3333362	1933.3333372	1650.0000033	Minor	Good_deeds	34	You have sign up to sponsor a needy child	C1_7	0.9	Easy	I2_6	4	A dog has four legs	0.0555555555555556	Yes	RIGHT	512.502300000051	RIGHT	643.045999999913	LEFT	2600.971799999797	RIGHT	1136.3117000000784	15.499999999999998	0.5	Probable_Truth	LEFT	LEFT	1	1743.088100000023	20	2021-02-03 14:28:05.666272
60	Self	S210203	0.5	2	1	2	1	0.1	1216.6666691	1500.000003	2350.0000047	1650.0000033	Minor	Wrong_doings	12	You have returned your trays in food courts	C1_12	0.0	Hard	I1_17	18	Malay is one of the races in Singapore	0.666666666666667	Yes	RIGHT	520.4983999999513	RIGHT	546.8203999998877	RIGHT	1375.0594999999066	RIGHT	1287.9562000000533	15.599999999999998	0.1	Probable_Truth	LEFT	RIGHT	5	985.9618999998928	21	2021-02-03 14:28:29.673353
108	Computer	S210203	0.5	2	1	2	1	0.3	1000.000002	1350.0000027	2350.0000047	2066.6666708	Major	Wrong_doings	40	You have drunk alcohol when you were underage	C2_43	0.25	Easy	I1_54	8	There are 7 days in a week	0.777777777777778	Yes	RIGHT	559.7247000000607	LEFT	810.1604999999381	LEFT	1487.181599999985	RIGHT	1271.0632999999234	15.599999999999998	0.3	Probable_Truth	RIGHT	LEFT	2	576.2742271945885	22	2021-02-03 14:28:53.721192
56	Self	S210203	0.5	2	1	1	2	0.3	1066.6666688	1000.000002	1783.3333369	1783.3333369	Major	Good_deeds	33	You have followed instructions	C1_37	0.0	Easy	I2_40	17	Fishes can swim in water	0.0555555555555556	No	RIGHT	1184.165000000121	RIGHT	1218.8575000000128	RIGHT	1673.147199999903	RIGHT	1167.9384000001392	15.9	0.3	Probable_Lie	RIGHT	RIGHT	2	757.7582999999777	23	2021-02-03 14:29:17.928536
105	Computer	S210203	0.5	2	1	1	2	0.6	1350.0000027	1283.3333359	1500.000003	2216.6666711000003	Minor	Good_deeds	57	You have eaten something in the MRT train	C2_19	0.55	Hard	I2_56	54	The current century is 21st	0.0	No	RIGHT	431.9014000000152	RIGHT	954.1063000001486	LEFT	1439.9071000000276	RIGHT	1615.0989999998728	16.5	0.6	Probable_Truth	RIGHT	LEFT	1	904.2832721217836	24	2021-02-03 14:29:42.194068
99	Computer	S210203	0.5	1	2	1	2	0.1	1433.3333362	1000.000002	2350.0000047	2066.6666708	Major	Wrong_doings	22	You have made counterfeit money	C1_60	1.0	Easy	I1_35	28	Kangaroos live in Africa	0.0	No	LEFT	736.7858999998589	LEFT	503.9908999999625	LEFT	848.0667000001176	LEFT	1080.46040000022	16.5	0.1	Probable_Lie	RIGHT	LEFT	4	791.451855471885	25	2021-02-03 14:30:05.562181
32	Self	S210203	0.8333333333333334	1	2	1	2	0.2	1433.3333362	1000.000002	2350.0000047	1933.3333372	Major	Wrong_doings	53	You have been arrested	C1_35	0.7	Hard	I1_33	44	The Earth is round	0.611111111111111	Yes	RIGHT	919.8767000000316	RIGHT	560.9624999999596	LEFT	1141.033200000038	RIGHT	1119.4682999998804	16.7	0.2	Probable_Truth	RIGHT	RIGHT	5	1123.9497000001393	26	2021-02-03 14:30:29.721433
25	Self	S210203	0.6666666666666666	2	1	1	2	0.4	1433.3333362	1433.3333362	1500.000003	2500.000005	Major	Good_deeds	42	You have gossiped about your best friend	C1_17	0.0	Easy	I2_42	21	The Earth turns the closest to the sun in May	0.0	No	RIGHT	1272.931400000061	RIGHT	1132.9648000000816	LEFT	1101.2772999999925	LEFT	2807.5434000002133	17.099999999999998	0.4	Probable_Lie	LEFT	LEFT	5	1091.269400000101	27	2021-02-03 14:30:56.569362
94	Self	S210203	0.8333333333333334	2	1	2	1	0.4	1433.3333362	1350.0000027	2350.0000047	2500.000005	Minor	Good_deeds	48	You have cursed at your loved ones	C1_46	0.7	Easy	I2_1	27	"Statue of Liberty is 151 feet tall"	0.0	No	RIGHT	328.1353999998373	RIGHT	860.1623000001837	LEFT	1364.7942000000055	RIGHT	2439.42039999979	17.499999999999996	0.4	Probable_Lie	LEFT	LEFT	4	1384.3782999999803	28	2021-02-03 14:31:23.152501
8	Self	S210203	0.5	2	1	1	2	0.6	1066.6666688	1216.6666691	2500.000005	2066.6666708	Minor	Wrong_doings	25	You have adopted a zero-waste lifestyle	C2_37	0.95	Easy	I2_2	2	Feijoa is a type of grape	0.944444444444444	No	RIGHT	600.8896999999251	RIGHT	949.8188999998548	LEFT	1815.1585000000523	LEFT	3240.082499999972	18.1	0.6	Probable_Truth	LEFT	RIGHT	6	910.14529999984	29	2021-02-03 14:31:50.088820
10	Self	S210203	0.5	2	1	1	2	0.4	1216.6666691	1000.000002	2350.0000047	1500.000003	Major	Wrong_doings	43	You have given directions to a lost tourist	C1_27	0.0	Hard	I1_29	5	Mexico's National Day is September 16	0.0	Yes	LEFT	824.3949000000157	RIGHT	1450.6861999998364	RIGHT	1797.9361000000154	RIGHT	2288.022200000114	17.7	0.4	Probable_Lie	RIGHT	RIGHT	3	917.1029999999972	30	2021-02-03 14:32:16.010046
23	Self	S210203	0.6666666666666666	1	2	2	1	0.5	1216.6666691	1066.6666688	2066.6666708	2350.0000047	Minor	Wrong_doings	45	You have taken months off to volunteer	C1_38	0.95	Easy	I2_28	45	Cheese is an Asian staple	1.0	Yes	RIGHT	470.91790000013134	RIGHT	632.6638000000457	LEFT	1984.0030999998817	LEFT	3564.985800000158	18.2	0.5	Probable_Truth	LEFT	LEFT	2	749.272000000019	31	2021-02-03 14:32:42.682175
28	Self	S210203	0.6666666666666666	2	1	2	1	0.1	1283.3333359	1066.6666688	2350.0000047	2066.6666708	Major	Good_deeds	17	You have sold illegal drugs	C2_24	0.55	Hard	I1_60	42	Mageirocophobia is a fear of deathly disease	0.777777777777778	No	LEFT	1193.036900000152	RIGHT	796.5513999999985	LEFT	1341.037199999846	Time_Max_Exceeded	5000.358499999948	18.1	0.1	Probable_Lie	LEFT	LEFT	6	618.6560999999529	32	2021-02-03 14:33:10.968453
107	Computer	S210203	0.5	2	1	1	2	0.4	1500.000003	1216.6666691	2500.000005	1933.3333372	Minor	Good_deeds	37	You have held the door open for a stranger	C2_25	0.05	Easy	I1_8	56	The hyoid bone is the only jointless bone	0.722222222222222	No	RIGHT	560.0658999999268	LEFT	1056.6361000001052	RIGHT	1155.5338999999094	RIGHT	1967.529800000193	18.1	0.4	Probable_Truth	LEFT	RIGHT	4	777.7930256593759	33	2021-02-03 14:33:36.208592
78	Self	S210203	0.6666666666666666	2	1	2	1	0.6	1283.3333359	1500.000003	1650.0000033	1783.3333369	Minor	Wrong_doings	7	You have stopped using products tested on animals	C1_3	0.0	Hard	I1_41	41	South East Asia is currently free from polio	0.944444444444444	No	RIGHT	408.548699999983	RIGHT	551.6545999998925	LEFT	2304.333600000064	LEFT	1949.1464000000176	18.7	0.6	Probable_Truth	LEFT	LEFT	2	499.2884000000686	34	2021-02-03 14:34:00.704642
46	Self	S210203	0.8333333333333334	2	1	2	1	0.6	1500.000003	1500.000003	2350.0000047	1500.000003	Major	Good_deeds	58	You have extorted money from anyone	C1_14	0.05	Easy	I2_58	9	Lehman Brothers went bankrupt on 20th September	0.888888888888889	Yes	RIGHT	336.6591999999855	RIGHT	907.6207999999042	LEFT	1040.7622000000174	RIGHT	2301.758100000143	19.3	0.6	Probable_Truth	LEFT	LEFT	1	754.0838999998414	35	2021-02-03 14:34:25.465352
19	Self	S210203	0.6666666666666666	1	2	1	2	0.1	1000.000002	1000.000002	1500.000003	2216.6666711000003	Major	Good_deeds	50	You have sheltered others from disasters	C2_10	0.15	Easy	I1_12	41	Algeria is Africa's second largest country	0.888888888888889	No	RIGHT	499.3676999999934	RIGHT	415.86660000007214	RIGHT	3936.20379999993	RIGHT	1590.892199999871	19.4	0.1	Probable_Truth	RIGHT	RIGHT	5	770.0456000000031	36	2021-02-03 14:34:50.968585
29	Self	S210203	0.6666666666666666	2	1	2	1	0.3	1066.6666688	1000.000002	2066.6666708	2350.0000047	Minor	Good_deeds	57	You have bribed someone to improve a grade	C1_42	0.0	Hard	I2_59	6	Chickens lay eggs	0.944444444444444	No	RIGHT	432.375299999876	RIGHT	711.4260000003014	LEFT	1391.1600999999791	RIGHT	909.2123999998876	19.700000000000003	0.3	Probable_Truth	LEFT	LEFT	1	780.089199999793	37	2021-02-03 14:35:14.248401
26	Self	S210203	0.6666666666666666	2	1	1	2	0.2	1350.0000027	1216.6666691	1783.3333369	1933.3333372	Minor	Good_deeds	24	You have given way to the handicapped	C1_11	0.2	Easy	I1_6	38	There is typically 0.6 grams of mercury in glass thermometer	0.0	Yes	LEFT	776.2235999998666	RIGHT	1514.0556999999717	RIGHT	1292.573000000175	RIGHT	1959.2171999997845	19.500000000000004	0.2	Probable_Lie	RIGHT	RIGHT	1	746.2940000000344	38	2021-02-03 14:35:39.392554
109	Computer	S210203	0.5	2	1	2	1	0.7	1150.0000023	1000.000002	1650.0000033	1650.0000033	Major	Good_deeds	19	You have participated in a scamming business	C1_57	0.85	Hard	I2_45	29	Acoustic Kitty refers to cat with implants	0.0	Yes	RIGHT	576.5205999996397	RIGHT	840.0311000000329	LEFT	2175.6654999999228	LEFT	2445.5895999999484	20.200000000000003	0.7	Probable_Truth	LEFT	RIGHT	6	948.9475741810386	39	2021-02-03 14:36:04.400898
74	Self	S210203	0.6666666666666666	2	1	1	2	0.8	1500.000003	1350.0000027	2066.6666708	2216.6666711000003	Minor	Wrong_doings	20	You have coveted things that belong to others	C2_34	0.05	Hard	I1_5	44	There are 6000 spoken languages in the World	0.722222222222222	No	RIGHT	431.82889999980034	RIGHT	550.1066000001629	RIGHT	2317.868200000248	RIGHT	1727.35879999982	21.000000000000004	0.8	Probable_Lie	LEFT	LEFT	4	605.6110999998054	40	2021-02-03 14:36:29.744997
44	Self	S210203	0.8333333333333334	2	1	2	1	0.3	1433.3333362	1000.000002	2216.6666711000003	2216.6666711000003	Minor	Good_deeds	13	You have donated a pay cheque to charity	C1_13	0.9	Easy	I2_49	49	China is a part of Asia	0.888888888888889	Yes	RIGHT	432.8261000000566	RIGHT	553.47619999975	RIGHT	1446.9717000001765	RIGHT	1313.0977000000712	21.300000000000004	0.3	Probable_Truth	LEFT	LEFT	1	728.6550999997417	41	2021-02-03 14:36:53.655992
128	Computer	S210203	0.8333333333333334	1	2	1	2	0.3	1216.6666691	1216.6666691	2500.000005	1783.3333369	Major	Wrong_doings	53	You have been arrested	C1_35	0.7	Hard	I1_33	44	The Earth is round	0.611111111111111	Yes	RIGHT	650.7062000000587	RIGHT	432.7057999998942	LEFT	1067.9056999997556	RIGHT	903.965700000299	21.600000000000005	0.3	Probable_Lie	LEFT	LEFT	2	799.790246057892	42	2021-02-03 14:37:16.800022
59	Self	S210203	0.5	2	1	1	2	0.2	1350.0000027	1150.0000023	2066.6666708	1500.000003	Major	Good_deeds	37	You have let a homeless man into your house	C2_59	0.95	Easy	I1_37	37	Singapore is a poor country	0.666666666666667	No	RIGHT	496.4081000002807	RIGHT	894.0255000002253	LEFT	1589.691799999855	LEFT	1255.234599999767	21.800000000000004	0.2	Probable_Lie	RIGHT	RIGHT	1	689.6330999998099	43	2021-02-03 14:37:40.368379
22	Self	S210203	0.6666666666666666	1	2	2	1	0.4	1150.0000023	1433.3333362	2216.6666711000003	2066.6666708	Minor	Good_deeds	28	You have taken part in burglary	C2_50	0.05	Easy	I1_19	55	Brazil is in South America	0.0	No	RIGHT	694.5012000001043	RIGHT	432.5146000001041	LEFT	1024.3940999998813	RIGHT	1679.6723000002205	22.200000000000003	0.4	Probable_Truth	RIGHT	RIGHT	4	730.9247999996842	44	2021-02-03 14:38:04.385333
72	Self	S210203	0.6666666666666666	2	1	1	2	0.2	1150.0000023	1000.000002	2350.0000047	2500.000005	Major	Good_deeds	31	You have thrown your trash into the bin	C2_14	0.1	Easy	I1_14	14	It takes 500 days to travel from Earth to Mars	0.0	No	RIGHT	279.72049999971205	RIGHT	610.8710999997129	RIGHT	2414.6444000002703	RIGHT	2823.4941000000617	22.4	0.2	Probable_Truth	RIGHT	RIGHT	3	554.9920999997084	45	2021-02-03 14:38:30.641006
65	Self	S210203	0.6666666666666666	1	2	1	2	0.1	1350.0000027	1066.6666688	1650.0000033	1650.0000033	Minor	Good_deeds	52	You have sorted your trash into recycling bin	C1_19	0.9	Hard	I1_52	52	Nanyang Technological University is in Australia	0.0	Yes	RIGHT	614.1192999998566	RIGHT	296.0938000001079	RIGHT	2774.87229999997	LEFT	1559.0640999998868	22.500000000000004	0.1	Probable_Truth	LEFT	LEFT	2	848.722600000201	46	2021-02-03 14:38:55.024448
97	Computer	S210203	0.5	1	2	1	2	0.2	1283.3333359	1500.000003	1933.3333372	1650.0000033	Major	Good_deeds	60	You have stolen something	C1_15	0.1	Hard	I2_8	40	A caterpillar has more muscle than a human	0.777777777777778	Yes	LEFT	936.4017999996576	LEFT	688.3836000001793	LEFT	1897.9976000000531	LEFT	1769.0488999996887	22.500000000000004	0.2	Probable_Lie	RIGHT	LEFT	4	946.6304968870708	47	2021-02-03 14:39:20.199395
92	Self	S210203	0.8333333333333334	2	1	2	1	0.1	1150.0000023	1000.000002	1650.0000033	1650.0000033	Minor	Good_deeds	40	You have given up your seat in the MRT	C2_18	0.0	Hard	I1_27	34	Beer is an alcoholic drink	0.888888888888889	No	LEFT	671.9248999997944	RIGHT	869.2190000001574	RIGHT	1159.4205999999758	RIGHT	1138.055599999916	22.4	0.1	Probable_Lie	RIGHT	RIGHT	1	1510.929600000054	48	2021-02-03 14:40:23.367442
126	Computer	S210203	0.6666666666666666	2	1	2	1	0.5	1433.3333362	1000.000002	1500.000003	2500.000005	Minor	Wrong_doings	42	You have provided shelter for stray animals	C2_2	1.0	Hard	I2_21	60	The Eiffel Tower is in Paris	0.944444444444444	Yes	RIGHT	376.94009999995615	RIGHT	982.1045999997295	LEFT	1080.5421000000024	RIGHT	1645.9169999998269	22.9	0.5	Probable_Truth	LEFT	LEFT	1	576.8265740463352	49	2021-02-03 14:40:47.040432
21	Self	S210203	0.6666666666666666	1	2	2	1	0.7	1350.0000027	1150.0000023	2500.000005	1933.3333372	Major	Wrong_doings	38	You have engaged in drink-driving	C2_30	0.05	Easy	I2_55	12	Arabi is the oldest surviving breed of horse	0.0555555555555556	No	LEFT	1221.3360999999168	LEFT	504.2454999997972	LEFT	1367.635899999641	RIGHT	1869.8378999997656	22.9	0.7	Probable_Lie	RIGHT	RIGHT	2	805.5904000002556	50	2021-02-03 14:41:12.313196
6	Self	S210203	0.5	1	2	2	1	0.3	1000.000002	1216.6666691	1783.3333369	1783.3333369	Minor	Wrong_doings	48	You have been restricting your electricity consumption	C2_6	0.65	Hard	I1_40	35	Singapore is a country	0.944444444444444	Yes	RIGHT	1167.6103999998304	LEFT	553.5724999999729	RIGHT	1973.771200000101	RIGHT	760.7024000003548	22.9	0.3	Probable_Lie	RIGHT	RIGHT	3	678.4631000000445	51	2021-02-03 14:41:35.808719
112	Computer	S210203	0.6666666666666666	1	2	1	2	0.5	1283.3333359	1150.0000023	1650.0000033	1933.3333372	Minor	Good_deeds	30	You have fabricated facts about yourself	C1_23	0.0	Hard	I2_13	13	Today is a weekday	0.0	No	RIGHT	854.2837999998483	LEFT	607.9944000002797	LEFT	2067.569700000149	RIGHT	1047.939099999894	22.9	0.5	Probable_Truth	RIGHT	LEFT	1	646.3658056808729	52	2021-02-03 14:41:59.624417
54	Self	S210203	0.5	1	2	2	1	0.8	1150.0000023	1433.3333362	2216.6666711000003	1500.000003	Minor	Good_deeds	29	You have been sued	C2_27	0.8	Hard	I1_46	43	Airbags in cars are filled with sodium azide	0.0	Yes	RIGHT	520.3661000000466	RIGHT	417.101200000161	LEFT	1185.3107000001728	RIGHT	2184.1205999999147	23.700000000000003	0.8	Probable_Truth	LEFT	RIGHT	5	783.7709000000359	53	2021-02-03 14:42:23.585297
118	Computer	S210203	0.6666666666666666	1	2	2	1	0.8	1500.000003	1283.3333359	2066.6666708	2216.6666711000003	Minor	Good_deeds	28	You have taken part in burglary	C2_50	0.05	Easy	I1_19	55	Brazil is in South America	0.0	No	RIGHT	478.7294000002476	RIGHT	277.6202999998532	LEFT	1183.9058000000475	RIGHT	1087.4730000000454	24.500000000000004	0.8	Probable_Truth	RIGHT	RIGHT	4	624.943668785607	54	2021-02-03 14:42:46.873142
35	Self	S210203	0.8333333333333334	1	2	1	2	0.4	1350.0000027	1350.0000027	1783.3333369	2066.6666708	Minor	Wrong_doings	26	You have helped a friend in need	C2_35	1.0	Easy	I1_47	25	There are 20 bones in the human skull	0.0555555555555556	No	LEFT	1034.960200000114	RIGHT	1430.4327000004378	RIGHT	1237.7800999997817	RIGHT	1846.8503999997663	24.100000000000005	0.4	Probable_Lie	RIGHT	RIGHT	1	714.5552000001771	55	2021-02-03 14:43:12.263932
1	Self	S210203	0.5	1	2	1	2	0.7	1216.6666691	1150.0000023	1500.000003	2216.6666711000003	Major	Good_deeds	60	You have stolen something	C1_15	0.1	Hard	I2_8	40	A caterpillar has more muscle than a human	0.777777777777778	Yes	RIGHT	1045.084200000019	RIGHT	569.6136000001388	LEFT	825.6839000000582	LEFT	1424.0239999999176	24.800000000000004	0.7	Probable_Lie	RIGHT	RIGHT	3	1266.9315000002823	56	2021-02-03 14:43:36.047580
114	Computer	S210203	0.6666666666666666	1	2	1	2	0.4	1216.6666691	1000.000002	2216.6666711000003	1650.0000033	Minor	Wrong_doings	23	You have helped others to pick up their belongings	C1_45	1.0	Hard	I1_32	32	It is 20th Century now	0.111111111111111	Yes	LEFT	1014.6735999996964	RIGHT	552.2081000003709	RIGHT	1400.449000000208	LEFT	968.0542000000968	24.40000000000001	0.4	Probable_Lie	LEFT	RIGHT	1	855.3601639727788	57	2021-02-03 14:43:59.488485
68	Self	S210203	0.6666666666666666	1	2	2	1	0.2	1000.000002	1150.0000023	2216.6666711000003	2066.6666708	Major	Wrong_doings	56	You have kidnapped someone	C1_36	0.0	Hard	I1_39	25	Earth's atmosphere extends up to 10,000km into space	0.666666666666667	Yes	LEFT	992.6657000000888	RIGHT	1230.5379999997967	LEFT	967.54940000028	LEFT	3084.263299999748	24.200000000000006	0.2	Probable_Lie	LEFT	LEFT	5	729.3878999998924	58	2021-02-03 14:44:25.503784
69	Self	S210203	0.6666666666666666	1	2	2	1	0.3	1433.3333362	1283.3333359	2066.6666708	2216.6666711000003	Minor	Good_deeds	13	You have stopped using plastics completely	C2_17	0.0	Hard	I2_23	23	The human's inner ear is larger than a pencil eraser	0.0	Yes	LEFT	846.551399999953	RIGHT	712.8639000002295	LEFT	1854.7944000001733	LEFT	2224.815899999612	23.90000000000001	0.3	Probable_Lie	RIGHT	RIGHT	2	748.1447000000117	59	2021-02-03 14:44:51.463701
47	Self	S210203	0.8333333333333334	2	1	2	1	0.2	1283.3333359	1350.0000027	1650.0000033	2350.0000047	Major	Wrong_doings	1	You have taken responsibility for your actions	C2_1	0.0	Easy	I1_42	35	Cleopatra was born in Greece	0.722222222222222	Yes	RIGHT	392.7568999997675	RIGHT	517.9622000000563	RIGHT	1112.487500000043	LEFT	2123.0673999998544	24.100000000000005	0.2	Probable_Truth	RIGHT	RIGHT	5	710.9096999997746	60	2021-02-03 14:45:15.527390
48	Self	S210203	0.5	1	2	1	2	0.7	1350.0000027	1150.0000023	1650.0000033	2350.0000047	Major	Good_deeds	39	You have intentionally let others cut in line	C1_5	0.8	Easy	I2_43	26	Red is a color	0.611111111111111	No	RIGHT	727.0013000002109	RIGHT	600.4164999999375	RIGHT	2411.166299999877	RIGHT	951.0942000001704	24.800000000000004	0.7	Probable_Lie	RIGHT	RIGHT	3	772.0558999999412	61	2021-02-03 14:45:40.063527
24	Self	S210203	0.6666666666666666	2	1	1	2	0.6	1150.0000023	1500.000003	1933.3333372	1783.3333369	Major	Wrong_doings	51	You have started a hotline for victims of bully	C2_42	0.95	Easy	I1_2	51	Singapore has four seasons	0.0	No	RIGHT	263.3362000001398	RIGHT	1091.7970000000423	LEFT	2088.795399999981	LEFT	1128.392299999632	25.40000000000001	0.6	Probable_Lie	RIGHT	RIGHT	2	533.5827000003519	62	2021-02-03 14:46:04.112307
51	Self	S210203	0.5	1	2	1	2	0.4	1216.6666691	1216.6666691	1783.3333369	1933.3333372	Major	Wrong_doings	54	You have borrowed things and never returned	C2_39	0.05	Easy	I1_43	30	The hardest bone in human body is the jawbone	0.0	No	RIGHT	488.5859999999411	RIGHT	257.202000000234	LEFT	1885.6798000001615	RIGHT	2360.79860000018	25.800000000000004	0.4	Probable_Truth	LEFT	RIGHT	4	655.177999999978	63	2021-02-03 14:46:28.482323
62	Self	S210203	0.5	2	1	2	1	0.7	1283.3333359	1066.6666688	2216.6666711000003	2500.000005	Minor	Wrong_doings	59	You have failed to keep promises	C2_47	1.0	Hard	I2_12	11	Astatine is the rarest element in the Earth's crust	0.0	No	RIGHT	632.1600999999646	RIGHT	912.297899999885	LEFT	1752.4578999996263	RIGHT	2068.2676999999785	26.500000000000004	0.7	Probable_Truth	LEFT	RIGHT	5	614.595399999871	64	2021-02-03 14:46:54.104185
16	Self	S210203	0.6666666666666666	1	2	1	2	0.6	1500.000003	1500.000003	1933.3333372	1650.0000033	Minor	Good_deeds	30	You have fabricated facts about yourself	C1_23	0.0	Hard	I2_13	13	Today is a weekday	0.0	No	LEFT	828.1486999999288	LEFT	1488.3820999998534	LEFT	1856.9588999998812	RIGHT	775.5850999997165	26.500000000000004	0.6	Probable_Lie	RIGHT	RIGHT	2	639.5507000001999	65	2021-02-03 14:47:18.848089
96	Computer	S210203	0.5	1	2	1	2	0.7	1350.0000027	1350.0000027	1783.3333369	1933.3333372	Minor	Wrong_doings	6	You have said sorry when you were rude	C2_33	0.85	Easy	I2_27	27	The Amazon forest covers an area of 1 billion acres	0.0	No	RIGHT	992.7672999997412	RIGHT	424.29000000038286	RIGHT	1573.1932999997298	RIGHT	1143.0440000003728	27.200000000000003	0.7	Probable_Lie	LEFT	LEFT	4	806.7475996432706	66	2021-02-03 14:47:42.768191
91	Self	S210203	0.8333333333333334	2	1	1	2	0.2	1066.6666688	1150.0000023	2216.6666711000003	1500.000003	Major	Wrong_doings	36	You have engaged in money laundering	C2_16	0.0	Hard	I2_36	48	It is snowing outside now	0.0	Yes	LEFT	760.5505999999878	RIGHT	584.9287999999433	LEFT	1230.0700999999208	LEFT	992.5028000002384	27.000000000000004	0.2	Probable_Lie	RIGHT	RIGHT	1	856.1018000000331	67	2021-02-03 14:48:05.695862
15	Self	S210203	0.5	2	1	2	1	0.8	1000.000002	1283.3333359	1500.000003	2500.000005	Minor	Wrong_doings	27	You have a non-judgmental attitude towards everyone	C1_40	1.0	Easy	I2_5	31	Christmas Day is in March	0.0	No	RIGHT	464.6330999999009	RIGHT	1238.1168000001708	RIGHT	1559.8761999999624	LEFT	1364.280200000394	27.800000000000004	0.8	Probable_Lie	LEFT	RIGHT	1	629.2371999998068	68	2021-02-03 14:48:29.808193
113	Computer	S210203	0.6666666666666666	1	2	1	2	0.7	1433.3333362	1066.6666688	1933.3333372	2500.000005	Major	Wrong_doings	38	You have made someone cry	C2_38	0.5	Hard	I2_41	19	Cernan was the second last man to walk on the Moon	0.944444444444444	Yes	RIGHT	479.2795000003025	RIGHT	375.551600000108	RIGHT	1485.3778000001512	LEFT	1632.1028999996088	28.500000000000004	0.7	Probable_Lie	RIGHT	LEFT	3	743.8495517119861	69	2021-02-03 14:48:54.031407
36	Self	S210203	0.8333333333333334	1	2	2	1	0.7	1283.3333359	1283.3333359	2216.6666711000003	1500.000003	Minor	Good_deeds	6	You have rescued others from a catastrophe	C2_26	0.95	Hard	I1_25	48	Most plants emit oxygen in the day	0.764705882352941	Yes	RIGHT	568.9363000001322	RIGHT	519.2286000001332	LEFT	1984.1984999998203	RIGHT	1629.3193999999858	29.200000000000003	0.7	Probable_Truth	RIGHT	RIGHT	6	666.3697000003594	70	2021-02-03 14:49:18.255725
119	Computer	S210203	0.6666666666666666	1	2	2	1	0.6	1066.6666688	1433.3333362	2500.000005	2350.0000047	Minor	Wrong_doings	45	You have taken months off to volunteer	C1_38	0.95	Easy	I2_28	45	Cheese is an Asian staple	1.0	Yes	RIGHT	476.6235000001871	LEFT	464.353299999857	LEFT	1159.5804000003227	LEFT	1611.3325999999688	29.200000000000003	0.6	Probable_Truth	LEFT	LEFT	2	731.4316614054353	71	2021-02-03 14:49:42.625312
5	Self	S210203	0.5	1	2	2	1	0.2	1066.6666688	1066.6666688	2066.6666708	1650.0000033	Major	Good_deeds	7	You have taken part in violent demonstration	C2_7	0.95	Easy	I2_54	54	North Korea is more developed than South Korea	0.0555555555555556	No	RIGHT	463.4497000001829	RIGHT	335.967299999993	LEFT	1271.7092000002594	LEFT	1561.044700000366	29.4	0.2	Probable_Truth	LEFT	RIGHT	6	638.7652999997044	72	2021-02-03 14:50:05.319034
85	Self	S210203	0.8333333333333334	1	2	2	1	0.2	1216.6666691	1000.000002	2066.6666708	1650.0000033	Minor	Good_deeds	3	You have been donating all your excess food to a food bank	C1_59	0.0	Hard	I2_52	24	Vegetarians can eat vegetable products	0.0555555555555556	Yes	RIGHT	468.9845999996578	RIGHT	240.70899999969697	LEFT	2134.92929999984	RIGHT	1839.1634999998128	29.6	0.2	Probable_Lie	LEFT	LEFT	5	757.2942000001603	73	2021-02-03 14:50:29.271920
4	Self	S210203	0.5	1	2	2	1	0.5	1350.0000027	1350.0000027	1933.3333372	1500.000003	Minor	Good_deeds	33	You have signed up as a bone marrow donor	C1_22	0.0	Hard	I2_33	23	The first Grammy awards was held in 1959	0.777777777777778	No	LEFT	1012.3023000001012	RIGHT	1047.9732999997395	RIGHT	1663.9519000000291	RIGHT	1482.3449000000437	29.1	0.5	Probable_Lie	RIGHT	RIGHT	2	668.0049999999937	74	2021-02-03 14:50:53.855771
103	Computer	S210203	0.5	1	2	2	1	0.3	1000.000002	1066.6666688	2500.000005	2500.000005	Minor	Wrong_doings	34	You have said thank you when you have received help	C2_48	0.45	Easy	I1_28	8	Animals are living things	0.166666666666667	Yes	LEFT	879.9487999999656	LEFT	760.1891999997861	RIGHT	1493.677199999638	RIGHT	854.0093999999954	29.1	0.3	Probable_Lie	RIGHT	RIGHT	1	634.549601941263	75	2021-02-03 14:51:18.119688
95	Self	S210203	0.8333333333333334	2	1	2	1	0.3	1283.3333359	1216.6666691	2066.6666708	2216.6666711000003	Minor	Good_deeds	46	You have downloaded pirated movies	C2_40	0.0	Hard	I1_3	3	Some owl species hunt fish	0.888888888888889	Yes	RIGHT	264.0008000003036	RIGHT	391.01750000008906	LEFT	1103.6361999999826	RIGHT	1535.9358000000611	29.4	0.3	Probable_Truth	RIGHT	RIGHT	2	564.7612000002482	76	2021-02-03 14:51:41.336380
0	Self	S210203	0.5	1	2	1	2	0.6	1500.000003	1000.000002	1650.0000033	1933.3333372	Minor	Wrong_doings	6	You have said sorry when you were rude	C2_33	0.85	Easy	I2_27	27	The Amazon forest covers an area of 1 billion acres	0.0	No	LEFT	887.1557999996185	RIGHT	672.2546999999395	RIGHT	1430.712500000027	RIGHT	824.0805999998884	28.8	0.6	Probable_Lie	RIGHT	RIGHT	1	681.4908999999716	77	2021-02-03 14:52:04.486775
84	Self	S210203	0.8333333333333334	1	2	2	1	0.1	1350.0000027	1500.000003	1933.3333372	1500.000003	Minor	Good_deeds	59	You have deceived a loved one	C2_11	0.0	Hard	I1_24	21	Milwaukee Art Museum is located in California	0.833333333333333	No	LEFT	1058.933999999681	RIGHT	601.7335999999887	LEFT	1558.956500000022	LEFT	2005.778900000223	28.7	0.1	Probable_Lie	LEFT	LEFT	5	564.1283000004478	78	2021-02-03 14:52:29.134872
41	Self	S210203	0.8333333333333334	2	1	1	2	0.1	1000.000002	1283.3333359	1500.000003	1933.3333372	Minor	Wrong_doings	60	You have done something against your values	C2_9	1.0	Hard	I1_9	3	The sun rises at night	0.0	Yes	RIGHT	273.7298000001829	RIGHT	428.5514000002877	LEFT	1212.2143999999937	LEFT	1046.908500000427	28.8	0.1	Probable_Truth	RIGHT	RIGHT	6	463.5321000000658	79	2021-02-03 14:52:50.847654
83	Self	S210203	0.8333333333333334	1	2	1	2	0.3	1150.0000023	1350.0000027	2216.6666711000003	2066.6666708	Minor	Good_deeds	46	You have confessed to your mistake	C1_8	0.2	Hard	I2_38	52	Afghan Hound is the first cloned cat	0.666666666666667	No	RIGHT	423.718000000008	RIGHT	255.30030000027185	RIGHT	1319.017199999962	LEFT	1959.840299999996	29.1	0.3	Probable_Lie	LEFT	LEFT	3	579.6419999996942	80	2021-02-03 14:53:14.751087
117	Computer	S210203	0.6666666666666666	1	2	2	1	0.1	1000.000002	1500.000003	1783.3333369	1783.3333369	Major	Wrong_doings	38	You have engaged in drink-driving	C2_30	0.05	Easy	I2_55	12	Arabi is the oldest surviving breed of horse	0.0555555555555556	No	RIGHT	499.816699999883	LEFT	615.5831000000944	LEFT	1039.90419999991	RIGHT	1295.990999999958	29.1	0.1	Probable_Truth	RIGHT	LEFT	2	766.8738682151017	81	2021-02-03 14:53:37.606662
33	Self	S210203	0.8333333333333334	1	2	1	2	0.1	1000.000002	1500.000003	2500.000005	2350.0000047	Minor	Good_deeds	43	You have held the elevator doors for others	C1_43	0.45	Hard	I2_48	31	Teddy Roosevelt was the youngest US President	0.0	No	LEFT	972.5739000000432	RIGHT	304.3855999999323	RIGHT	1050.476300000355	RIGHT	887.6560999997309	29.0	0.1	Probable_Lie	RIGHT	RIGHT	1	771.3717999999972	82	2021-02-03 14:54:01.520109
102	Computer	S210203	0.5	1	2	2	1	0.8	1150.0000023	1216.6666691	2216.6666711000003	1783.3333369	Minor	Wrong_doings	48	You have been restricting your electricity consumption	C2_6	0.65	Hard	I1_40	35	Singapore is a country	0.944444444444444	Yes	RIGHT	549.2072000001826	RIGHT	295.6067999998595	RIGHT	1160.0326000002497	RIGHT	1819.983200000024	29.8	0.8	Probable_Lie	RIGHT	RIGHT	1	507.0725968538184	83	2021-02-03 14:54:24.783201
132	Computer	S210203	0.8333333333333334	1	2	2	1	0.8	1500.000003	1433.3333362	1783.3333369	2350.0000047	Minor	Good_deeds	6	You have rescued others from a catastrophe	C2_26	0.95	Hard	I1_25	48	Most plants emit oxygen in the day	0.764705882352941	Yes	RIGHT	604.4725000001563	RIGHT	305.52129999978206	LEFT	1215.3487000000496	RIGHT	908.8168000002952	30.6	0.8	Probable_Truth	RIGHT	RIGHT	4	864.7388530644487	84	2021-02-03 14:54:48.319603
67	Self	S210203	0.6666666666666666	1	2	1	2	0.8	1066.6666688	1350.0000027	1933.3333372	2500.000005	Major	Good_deeds	17	You have claimed doing things that you never did	C2_13	0.55	Easy	I2_24	15	The Seine river is 50 feet above sea level	0.0	No	LEFT	1252.4852000001374	LEFT	767.9511000001185	LEFT	2110.8761000000413	LEFT	2175.716400000056	30.6	0.8	Probable_Lie	LEFT	LEFT	6	1094.4237999997313	85	2021-02-03 14:55:15.143576
87	Self	S210203	0.8333333333333334	1	2	2	1	0.8	1000.000002	1433.3333362	1783.3333369	2350.0000047	Major	Wrong_doings	11	You have attended all lectures as a student	C2_46	0.85	Hard	I1_58	58	Nomophobia is the fear of being without a phone or computer	0.944444444444444	No	RIGHT	402.6758999998492	RIGHT	254.96509999993577	RIGHT	1470.0649999999769	RIGHT	2234.192500000063	31.4	0.8	Probable_Truth	RIGHT	RIGHT	2	592.4056999997447	86	2021-02-03 14:55:39.247207
66	Self	S210203	0.6666666666666666	1	2	1	2	0.5	1500.000003	1000.000002	2500.000005	2350.0000047	Minor	Good_deeds	49	You have used heroin	C2_52	0.85	Easy	I1_15	10	French is Singapore's official language	0.944444444444444	No	RIGHT	373.589599999832	RIGHT	328.41199999984383	LEFT	1108.4460000001854	LEFT	1278.9466999997785	31.9	0.5	Probable_Truth	RIGHT	RIGHT	5	724.181800000224	87	2021-02-03 14:56:02.984318
101	Computer	S210203	0.5	1	2	2	1	0.6	1066.6666688	1283.3333359	1650.0000033	2216.6666711000003	Major	Good_deeds	7	You have taken part in violent demonstration	C2_7	0.95	Easy	I2_54	54	North Korea is more developed than South Korea	0.0555555555555556	No	LEFT	572.9676999999356	LEFT	904.8259999999572	LEFT	1087.6705000000584	LEFT	1394.3101999998362	31.9	0.6	Probable_Lie	LEFT	LEFT	5	986.8152330621432	88	2021-02-03 14:56:26.711085
122	Computer	S210203	0.6666666666666666	2	1	1	2	0.6	1283.3333359	1216.6666691	2216.6666711000003	2350.0000047	Minor	Good_deeds	24	You have given way to the handicapped	C1_11	0.2	Easy	I1_6	38	There is typically 0.6 grams of mercury in glass thermometer	0.0	Yes	LEFT	535.7997999999498	LEFT	826.2881999999081	RIGHT	1491.0396999998738	RIGHT	1087.4002999998993	31.9	0.6	Probable_Lie	RIGHT	RIGHT	1	692.2663003200793	89	2021-02-03 14:56:50.991725
2	Self	S210203	0.5	1	2	1	2	0.4	1433.3333362	1500.000003	2350.0000047	2066.6666708	Major	Good_deeds	15	You have cursed at others	C1_34	0.0	Hard	I1_23	33	Saturn's rings are between 30 and 300 feet thick	0.722222222222222	Yes	RIGHT	337.9720000002635	RIGHT	281.010900000183	LEFT	936.7799000001468	RIGHT	984.596799999963	32.300000000000004	0.4	Probable_Truth	RIGHT	RIGHT	5	1201.0721000001467	90	2021-02-03 14:57:14.654673
123	Computer	S210203	0.6666666666666666	2	1	1	2	0.4	1150.0000023	1350.0000027	2500.000005	1933.3333372	Minor	Wrong_doings	2	You have helped with household chores	C2_57	1.0	Hard	I2_51	59	It is night time now	0.0	Yes	LEFT	535.3294999999889	LEFT	844.51080000008	RIGHT	1181.8257999998425	LEFT	1136.4833999996335	32.300000000000004	0.4	Probable_Lie	LEFT	RIGHT	1	611.7188533518377	91	2021-02-03 14:57:38.471405
93	Self	S210203	0.8333333333333334	2	1	2	1	0.8	1350.0000027	1500.000003	1500.000003	1933.3333372	Major	Wrong_doings	16	You have lost everything just to help others	C1_30	0.7	Easy	I1_53	11	Carnivore refers to meat-eater	0.611111111111111	No	RIGHT	801.1553000001186	RIGHT	757.114399999864	LEFT	1544.5168999999623	RIGHT	1753.641100000095	33.1	0.8	Probable_Lie	RIGHT	RIGHT	1	428.9929999999913	92	2021-02-03 14:58:02.614748
13	Self	S210203	0.5	2	1	2	1	0.3	1350.0000027	1500.000003	1933.3333372	1783.3333369	Major	Good_deeds	19	You have participated in a scamming business	C1_57	0.85	Hard	I2_45	29	Acoustic Kitty refers to cat with implants	0.0	Yes	LEFT	641.3894000002074	RIGHT	1355.14110000031	LEFT	1415.4954000000544	LEFT	1570.1162000000295	32.800000000000004	0.3	Probable_Lie	RIGHT	RIGHT	3	612.4411000000691	93	2021-02-03 14:58:27.350912
58	Self	S210203	0.5	2	1	1	2	0.6	1150.0000023	1283.3333359	1933.3333372	2350.0000047	Minor	Wrong_doings	28	You have bought cigarettes for a minor	C2_28	0.1	Hard	I1_11	40	Hot chocolate was created by the Mayan culture	0.0	Yes	RIGHT	241.20229999971343	RIGHT	629.2141999997511	LEFT	1404.3624999999338	RIGHT	1896.0593000001609	33.400000000000006	0.6	Probable_Lie	LEFT	RIGHT	2	615.3684000000794	94	2021-02-03 14:58:51.422716
34	Self	S210203	0.8333333333333334	1	2	1	2	0.3	1500.000003	1066.6666688	1650.0000033	2500.000005	Major	Wrong_doings	35	You have illegally stayed in a country	C1_6	0.0	Easy	I2_46	46	Today is Sunday	0.833333333333333	No	RIGHT	597.6863999999296	RIGHT	632.5783000002048	LEFT	1360.1406000002498	LEFT	1192.624700000124	33.7	0.3	Probable_Truth	LEFT	LEFT	1	744.8085000000901	95	2021-02-03 14:59:15.240272
143	Computer	S210203	0.8333333333333334	2	1	2	1	0.3	1216.6666691	1500.000003	1783.3333369	1933.3333372	Major	Wrong_doings	1	You have taken responsibility for your actions	C2_1	0.0	Easy	I1_42	35	Cleopatra was born in Greece	0.722222222222222	Yes	RIGHT	463.6696999996275	LEFT	1050.047799999902	RIGHT	1103.600599999936	LEFT	1321.7843000002176	33.7	0.3	Probable_Truth	RIGHT	LEFT	1	683.6848511606855	96	2021-02-03 15:00:06.878991
90	Self	S210203	0.8333333333333334	2	1	1	2	0.6	1216.6666691	1433.3333362	1933.3333372	1783.3333369	Major	Wrong_doings	30	You have started an NGO using your savings	C1_16	0.0	Hard	I1_48	36	Africa is the continent with the least rainfall	0.833333333333333	Yes	RIGHT	312.53279999964434	RIGHT	626.706699999886	LEFT	1346.775500000149	RIGHT	2054.0633999999045	34.300000000000004	0.6	Probable_Truth	RIGHT	RIGHT	4	737.4172999998336	97	2021-02-03 15:00:30.902735
79	Self	S210203	0.6666666666666666	2	1	2	1	0.1	1216.6666691	1216.6666691	2216.6666711000003	2066.6666708	Major	Wrong_doings	14	You have helped your parents when asked to	C2_31	0.7	Hard	I2_39	50	Pyramid of Giza is 468 feet tall	0.0	Yes	RIGHT	2279.375300000084	LEFT	2184.456500000124	RIGHT	1352.7609000002485	RIGHT	1334.2680999999177	34.300000000000004	0.1	Probable_Lie	RIGHT	RIGHT	1	382.3056000001088	98	2021-02-03 15:00:57.727006
141	Computer	S210203	0.8333333333333334	2	1	2	1	0.6	1350.0000027	1000.000002	1500.000003	2500.000005	Minor	Good_deeds	31	You have lied to your parents	C1_31	1.0	Hard	I1_36	58	The Franco-Prussian War occurred in the 19th century	0.0	No	RIGHT	400.1862000000074	RIGHT	961.0774999996464	LEFT	941.9364999998834	RIGHT	1845.706699999937	34.900000000000006	0.6	Probable_Lie	RIGHT	LEFT	4	575.5255855009648	99	2021-02-03 15:01:21.368152
142	Computer	S210203	0.8333333333333334	2	1	2	1	0.7	1283.3333359	1433.3333362	1933.3333372	2216.6666711000003	Major	Good_deeds	58	You have extorted money from anyone	C1_14	0.05	Easy	I2_58	9	Lehman Brothers went bankrupt on 20th September	0.888888888888889	Yes	RIGHT	464.23019999974713	RIGHT	1059.1773000001012	LEFT	880.1245999998173	RIGHT	1935.2594000001773	35.60000000000001	0.7	Probable_Lie	RIGHT	LEFT	4	547.3930291141693	100	2021-02-03 15:01:45.695191
52	Self	S210203	0.5	1	2	2	1	0.6	1000.000002	1283.3333359	1933.3333372	2500.000005	Major	Good_deeds	5	You have shown your appreciation to your teachers	C2_29	1.0	Hard	I2_30	43	February has 30 days	1.0	Yes	RIGHT	467.6180999999815	RIGHT	255.5371000003106	RIGHT	1456.0836999999085	LEFT	1380.916199999774	36.20000000000001	0.6	Probable_Truth	RIGHT	RIGHT	6	536.5719999999783	101	2021-02-03 15:02:09.086544
106	Computer	S210203	0.5	2	1	1	2	0.5	1433.3333362	1066.6666688	1933.3333372	1500.000003	Major	Wrong_doings	43	You have given directions to a lost tourist	C1_27	0.0	Hard	I1_29	5	Mexico's National Day is September 16	0.0	Yes	RIGHT	280.5358999999044	RIGHT	392.75950000001103	RIGHT	1021.8079000001126	RIGHT	1214.908700000251	36.70000000000001	0.5	Probable_Truth	LEFT	LEFT	1	977.0226725147572	102	2021-02-03 15:02:31.478629
80	Self	S210203	0.8333333333333334	1	2	1	2	0.6	1066.6666688	1283.3333359	2350.0000047	2500.000005	Major	Wrong_doings	53	You have been convicted in court	C1_53	1.0	Easy	I1_21	17	Penguin can fly with their wings	1.0	Yes	RIGHT	1139.1524999999092	RIGHT	248.71089999987817	LEFT	1302.5664000001598	LEFT	1784.1763000001265	37.30000000000001	0.6	Probable_Lie	RIGHT	RIGHT	1	657.9461999999694	103	2021-02-03 15:02:56.382921
133	Computer	S210203	0.8333333333333334	1	2	2	1	0.5	1150.0000023	1150.0000023	2350.0000047	1650.0000033	Major	Wrong_doings	35	You have used a fake name online	C1_20	0.05	Easy	I2_31	1	Fibers in oranges can be used to make fabric	0.833333333333333	Yes	RIGHT	580.1578000000518	RIGHT	432.3214999999436	RIGHT	1527.9239000001326	LEFT	1457.948700000088	37.80000000000001	0.5	Probable_Truth	LEFT	LEFT	1	546.4944224208933	104	2021-02-03 15:03:19.799545
11	Self	S210203	0.5	2	1	1	2	0.2	1500.000003	1066.6666688	2066.6666708	2216.6666711000003	Minor	Good_deeds	37	You have held the door open for a stranger	C2_25	0.05	Easy	I1_8	56	The hyoid bone is the only jointless bone	0.722222222222222	No	LEFT	585.0590000000011	RIGHT	557.6753000000281	RIGHT	1613.458399999672	RIGHT	861.9483000002219	37.60000000000001	0.2	Probable_Lie	RIGHT	RIGHT	2	789.0786000002663	105	2021-02-03 15:03:43.639285
104	Computer	S210203	0.5	2	1	1	2	0.2	1216.6666691	1433.3333362	2216.6666711000003	2500.000005	Minor	Wrong_doings	25	You have adopted a zero-waste lifestyle	C2_37	0.95	Easy	I2_2	2	Feijoa is a type of grape	0.944444444444444	No	LEFT	997.7845999997044	LEFT	863.2925000001705	LEFT	2445.670600000085	RIGHT	2055.6149000003643	37.60000000000001	0.2	Probable_Lie	LEFT	LEFT	5	729.9879704270215	106	2021-02-03 15:04:10.679203
88	Self	S210203	0.8333333333333334	2	1	1	2	0.5	1000.000002	1066.6666688	1783.3333369	2350.0000047	Major	Wrong_doings	18	You have offered a listening ear to a friend	C2_36	0.95	Easy	I2_34	1	There are 10 continents in the World	0.111111111111111	No	RIGHT	240.33960000042495	RIGHT	442.5489000000198	RIGHT	1452.2380000003068	RIGHT	1872.355699999844	38.10000000000001	0.5	Probable_Truth	LEFT	LEFT	1	573.2958000003237	107	2021-02-03 15:04:34.030451
39	Self	S210203	0.8333333333333334	1	2	2	1	0.6	1150.0000023	1150.0000023	1500.000003	1650.0000033	Minor	Good_deeds	8	You have been physically hurt to protect others	C2_8	0.0	Hard	I2_44	33	It sometimes snows in Singapore	0.0	No	RIGHT	397.830200000044	RIGHT	423.88149999987945	LEFT	2176.0309999999663	LEFT	1624.289200000021	38.70000000000001	0.6	Probable_Truth	RIGHT	RIGHT	6	1051.3834000003044	108	2021-02-03 15:04:57.726594
115	Computer	S210203	0.6666666666666666	1	2	1	2	0.2	1350.0000027	1216.6666691	2350.0000047	1500.000003	Major	Good_deeds	50	You have sheltered others from disasters	C2_10	0.15	Easy	I1_12	41	Algeria is Africa's second largest country	0.888888888888889	No	RIGHT	667.6956999999675	RIGHT	689.0472999998565	RIGHT	3144.0693000004103	RIGHT	2327.515100000255	38.90000000000001	0.2	Probable_Truth	LEFT	LEFT	1	680.6473006169007	109	2021-02-03 15:05:24.222693
63	Self	S210203	0.5	2	1	2	1	0.4	1433.3333362	1216.6666691	1500.000003	1933.3333372	Major	Wrong_doings	47	You have bribed a police officer	C1_24	0.05	Hard	I1_50	12	Bears have the biggest eyes among mammals	0.888888888888889	Yes	RIGHT	254.8762000001261	RIGHT	517.5449000003027	LEFT	855.8753999996043	LEFT	2722.270199999912	39.30000000000001	0.4	Probable_Truth	LEFT	RIGHT	6	801.3332000000446	110	2021-02-03 15:05:48.038603
40	Self	S210203	0.8333333333333334	2	1	1	2	0.7	1066.6666688	1433.3333362	1933.3333372	1783.3333369	Minor	Wrong_doings	14	You have assisted in a crime	C1_44	0.95	Hard	I2_35	42	Beef comes from cows	0.833333333333333	No	RIGHT	326.814099999865	RIGHT	483.9892999998483	LEFT	1464.0855999996347	RIGHT	1112.5363999999536	40.000000000000014	0.7	Probable_Truth	LEFT	LEFT	1	772.577199999887	111	2021-02-03 15:06:10.991003
86	Self	S210203	0.8333333333333334	1	2	2	1	0.7	1500.000003	1150.0000023	1650.0000033	1783.3333369	Minor	Wrong_doings	4	You have cheated on a test	C2_3	0.65	Easy	I1_57	57	Last day of the year is 30th December	0.0555555555555556	No	RIGHT	397.8708999998162	RIGHT	232.46729999982563	LEFT	2328.625600000123	LEFT	1665.109900000061	40.70000000000002	0.7	Probable_Truth	LEFT	LEFT	1	503.5626999997476	112	2021-02-03 15:06:34.783188
77	Self	S210203	0.6666666666666666	2	1	2	1	0.3	1000.000002	1283.3333359	1783.3333369	1500.000003	Major	Wrong_doings	50	You have engaged in arson	C1_50	0.05	Hard	I2_50	6	Obama is the USA president now	0.888888888888889	Yes	RIGHT	223.465799999758	RIGHT	417.3086999999214	LEFT	1495.3169999998863	LEFT	1518.7759999998889	41.000000000000014	0.3	Probable_Truth	RIGHT	RIGHT	3	891.5259000000333	113	2021-02-03 15:06:57.470298
110	Computer	S210203	0.5	2	1	2	1	0.1	1066.6666688	1150.0000023	2066.6666708	1783.3333369	Major	Good_deeds	29	You have organized a violent protest	C1_29	0.0	Hard	I1_31	45	There are 30 hours in a day	1.0	Yes	LEFT	695.8112999996047	LEFT	845.6762999999228	LEFT	1128.0339999998432	LEFT	960.2703000000474	41.000000000000014	0.1	Probable_Lie	RIGHT	RIGHT	2	651.6998569718531	114	2021-02-03 15:07:20.390832
61	Self	S210203	0.5	2	1	2	1	0.8	1500.000003	1433.3333362	2500.000005	2216.6666711000003	Major	Good_deeds	24	You have watched an M18 movie when you were underage	C1_33	0.65	Easy	I2_60	60	Dutch is the 6th Europe's most widely spoken language	0.0	Yes	RIGHT	240.84259999972343	RIGHT	619.587500000307	LEFT	1472.0375000001695	RIGHT	1744.0296999998282	41.80000000000001	0.8	Probable_Truth	LEFT	RIGHT	4	641.412500000115	115	2021-02-03 15:07:45.333416
55	Self	S210203	0.5	1	2	2	1	0.5	1433.3333362	1350.0000027	1500.000003	2066.6666708	Minor	Wrong_doings	9	You have volunteered for a disaster-related humanitarian mission	C1_58	0.85	Easy	I1_4	13	Singapore is in Africa	0.888888888888889	Yes	RIGHT	820.8945000001222	RIGHT	969.5099999999002	LEFT	1799.4705000000977	LEFT	990.7077999996544	42.30000000000001	0.5	Probable_Lie	RIGHT	RIGHT	2	424.9119000000974	116	2021-02-03 15:08:09.262195
139	Computer	S210203	0.8333333333333334	2	1	1	2	0.5	1066.6666688	1216.6666691	1650.0000033	1500.000003	Major	Wrong_doings	9	You have queued to enter the MRT train	C2_58	0.2	Hard	I2_3	26	Mozambique is the world's poorest country	0.0	No	RIGHT	1040.5350999999428	RIGHT	1431.8625999999313	RIGHT	1158.107199999904	RIGHT	1721.2862999999743	42.80000000000001	0.5	Probable_Truth	RIGHT	LEFT	1	504.32310417855086	117	2021-02-03 15:08:33.118532
53	Self	S210203	0.5	1	2	2	1	0.3	1066.6666688	1066.6666688	2500.000005	2216.6666711000003	Minor	Wrong_doings	39	You have volunteered every week for many years	C1_9	0.05	Easy	I1_13	46	R. Amundsen discovered the South Pole	0.0	No	RIGHT	597.0711999998457	RIGHT	305.1860000000488	LEFT	1752.92219999983	RIGHT	1678.4949000002598	43.10000000000001	0.3	Probable_Truth	RIGHT	RIGHT	4	928.1295999999202	118	2021-02-03 15:08:57.805393
111	Computer	S210203	0.5	2	1	2	1	0.8	1283.3333359	1500.000003	1783.3333369	2350.0000047	Minor	Wrong_doings	27	You have a non-judgmental attitude towards everyone	C1_40	1.0	Easy	I2_5	31	Christmas Day is in March	0.0	No	RIGHT	1040.3778999998394	RIGHT	903.2631000000038	RIGHT	1304.1968999996243	LEFT	1037.5989000003756	43.900000000000006	0.8	Probable_Truth	LEFT	LEFT	3	767.9096584699107	119	2021-02-03 15:09:22.341476
116	Computer	S210203	0.6666666666666666	1	2	2	1	0.3	1150.0000023	1350.0000027	1500.000003	2066.6666708	Major	Good_deeds	10	You have complimented others for good work	C1_28	0.95	Hard	I1_45	28	Polish is 20th most spoken language in the World	0.888888888888889	Yes	RIGHT	621.1463999998159	RIGHT	904.6397000001888	RIGHT	1328.6633999996411	RIGHT	1855.6681999998543	44.2	0.3	Probable_Truth	RIGHT	LEFT	2	664.6815458715445	120	2021-02-03 15:09:46.349852
82	Self	S210203	0.8333333333333334	1	2	1	2	0.4	1433.3333362	1216.6666691	1500.000003	1933.3333372	Major	Wrong_doings	45	You have bought cocaine	C2_45	0.0	Easy	I2_22	22	Statute of Liberty is in New York	0.0	Yes	LEFT	894.1328000000794	RIGHT	728.3140999998068	LEFT	1279.051299999992	RIGHT	1319.3377000006876	43.8	0.4	Probable_Lie	RIGHT	RIGHT	1	677.7105999999549	121	2021-02-03 15:10:09.902698
130	Computer	S210203	0.8333333333333334	1	2	1	2	0.4	1000.000002	1000.000002	2066.6666708	1933.3333372	Major	Wrong_doings	35	You have illegally stayed in a country	C1_6	0.0	Easy	I2_46	46	Today is Sunday	0.833333333333333	No	RIGHT	713.822199999413	RIGHT	456.6820000000007	LEFT	1186.0656999997443	LEFT	864.5931000000928	44.2	0.4	Probable_Truth	LEFT	RIGHT	5	872.8854821563099	122	2021-02-03 15:10:32.567245
81	Self	S210203	0.8333333333333334	1	2	1	2	0.5	1283.3333359	1066.6666688	2500.000005	2216.6666711000003	Major	Good_deeds	8	You have kept your promises	C1_4	0.65	Easy	I2_17	38	Slavery was abolished in Cuba in 1886	0.0	Yes	RIGHT	420.63469999993686	RIGHT	287.4609000000419	RIGHT	970.4763999998248	LEFT	2479.6102999998766	44.7	0.5	Probable_Lie	LEFT	LEFT	3	878.4846999997171	123	2021-02-03 15:10:57.246020
9	Self	S210203	0.5	2	1	1	2	0.7	1433.3333362	1433.3333362	1650.0000033	1933.3333372	Minor	Good_deeds	57	You have eaten something in the MRT train	C2_19	0.55	Hard	I2_56	54	The current century is 21st	0.0	No	RIGHT	281.18780000022525	RIGHT	509.92979999955423	LEFT	1005.576800000199	RIGHT	888.5239999999612	45.400000000000006	0.7	Probable_Lie	RIGHT	RIGHT	1	578.713500000049	124	2021-02-03 15:11:19.533591
7	Self	S210203	0.5	1	2	2	1	0.1	1150.0000023	1433.3333362	2216.6666711000003	2350.0000047	Minor	Wrong_doings	34	You have said thank you when you have received help	C2_48	0.45	Easy	I1_28	8	Animals are living things	0.166666666666667	Yes	LEFT	751.9626999992397	RIGHT	631.5745000001698	RIGHT	1055.8477999993556	RIGHT	842.601299999842	45.3	0.1	Probable_Lie	RIGHT	RIGHT	2	671.302700000524	125	2021-02-03 15:11:43.213900
100	Computer	S210203	0.5	1	2	2	1	0.5	1216.6666691	1433.3333362	2066.6666708	1500.000003	Minor	Good_deeds	33	You have signed up as a bone marrow donor	C1_22	0.0	Hard	I2_33	23	The first Grammy awards was held in 1959	0.777777777777778	No	RIGHT	463.0361999998058	RIGHT	423.9692000001014	RIGHT	1119.8890999994546	RIGHT	1083.360000000539	45.8	0.5	Probable_Lie	RIGHT	RIGHT	2	592.3370224220055	126	2021-02-03 15:12:05.694651
57	Self	S210203	0.5	2	1	1	2	0.5	1000.000002	1350.0000027	1650.0000033	2066.6666708	Minor	Good_deeds	23	You have donated blood every 6 months for many years	C2_23	0.85	Easy	I2_18	50	A square has 3 corners	0.888888888888889	No	RIGHT	287.6931999999215	RIGHT	328.0012999994142	LEFT	1943.7748999998803	LEFT	1247.79160000071	46.3	0.5	Probable_Truth	LEFT	RIGHT	6	575.8562999999413	127	2021-02-03 15:12:28.718474
140	Computer	S210203	0.8333333333333334	2	1	2	1	0.4	1433.3333362	1066.6666688	2500.000005	1650.0000033	Minor	Good_deeds	13	You have donated a pay cheque to charity	C1_13	0.9	Easy	I2_49	49	China is a part of Asia	0.888888888888889	Yes	LEFT	886.3715999996202	LEFT	810.2394000006825	RIGHT	1257.0416999997178	RIGHT	1800.770900000316	46.3	0.4	Probable_Lie	RIGHT	LEFT	2	840.5840007950981	128	2021-02-03 15:12:53.527223
124	Computer	S210203	0.6666666666666666	2	1	2	1	0.2	1066.6666688	1066.6666688	2350.0000047	1500.000003	Major	Good_deeds	17	You have sold illegal drugs	C2_24	0.55	Hard	I1_60	42	Mageirocophobia is a fear of deathly disease	0.777777777777778	No	RIGHT	489.0739000002213	RIGHT	647.5227000000814	LEFT	1176.5226000006803	RIGHT	1870.3036999995677	46.50000000000001	0.2	Probable_Truth	LEFT	RIGHT	3	749.1943650384568	129	2021-02-03 15:13:17.014896
20	Self	S210203	0.6666666666666666	1	2	2	1	0.8	1066.6666688	1216.6666691	2350.0000047	1500.000003	Major	Good_deeds	10	You have complimented others for good work	C1_28	0.95	Hard	I1_45	28	Polish is 20th most spoken language in the World	0.888888888888889	Yes	RIGHT	268.0244000002858	RIGHT	248.1778999999733	RIGHT	951.1397999995096	RIGHT	925.7322000003114	47.3	0.8	Probable_Truth	LEFT	LEFT	1	697.664999999688	130	2021-02-03 15:13:38.813924
12	Self	S210203	0.5	2	1	2	1	0.1	1283.3333359	1350.0000027	1783.3333369	1650.0000033	Major	Wrong_doings	40	You have drunk alcohol when you were underage	C2_43	0.25	Easy	I1_54	8	There are 7 days in a week	0.777777777777778	Yes	LEFT	1016.0138999999616	RIGHT	617.4772000003941	LEFT	936.7533000004188	RIGHT	1088.3020000001125	47.2	0.1	Probable_Lie	LEFT	RIGHT	2	891.9416999997338	131	2021-02-03 15:14:02.005447
64	Self	S210203	0.6666666666666666	1	2	1	2	0.4	1216.6666691	1433.3333362	1783.3333369	1933.3333372	Major	Wrong_doings	19	You have violated a traffic law	C2_56	0.0	Easy	I1_10	24	Summer is hotter than winter	0.666666666666667	Yes	RIGHT	434.93039999975736	RIGHT	672.952400000213	LEFT	1351.2723999992886	RIGHT	1295.9299999993164	47.6	0.4	Probable_Lie	LEFT	LEFT	5	794.4111999995584	132	2021-02-03 15:14:25.494043
14	Self	S210203	0.5	2	1	2	1	0.5	1150.0000023	1150.0000023	2216.6666711000003	2350.0000047	Major	Good_deeds	29	You have organized a violent protest	C1_29	0.0	Hard	I1_31	45	There are 30 hours in a day	1.0	Yes	RIGHT	281.4773000000059	RIGHT	336.2710999999763	LEFT	807.658800000354	LEFT	1036.315399999694	48.1	0.5	Probable_Truth	RIGHT	RIGHT	5	525.1349999998638	133	2021-02-03 15:14:47.919403
125	Computer	S210203	0.6666666666666666	2	1	2	1	0.3	1500.000003	1500.000003	2066.6666708	1650.0000033	Minor	Good_deeds	57	You have bribed someone to improve a grade	C1_42	0.0	Hard	I2_59	6	Chickens lay eggs	0.944444444444444	No	RIGHT	472.2878000002311	RIGHT	1022.03019999979	LEFT	1184.773599999971	RIGHT	848.147799999424	48.4	0.3	Probable_Truth	LEFT	LEFT	2	565.6679223380222	134	2021-02-03 15:15:11.303041
138	Computer	S210203	0.8333333333333334	2	1	1	2	0.1	1150.0000023	1150.0000023	2216.6666711000003	2066.6666708	Major	Good_deeds	44	You have risked your life to save another person's life	C2_60	0.05	Easy	I1_26	36	Marijuana is legal in Singapore	0.0	No	LEFT	713.102799999433	LEFT	805.3497999999308	LEFT	1933.035000000018	LEFT	999.264499999299	48.4	0.1	Probable_Lie	RIGHT	LEFT	5	742.7332643687997	135	2021-02-03 15:15:35.662159
131	Computer	S210203	0.8333333333333334	1	2	1	2	0.2	1283.3333359	1066.6666688	1650.0000033	2500.000005	Minor	Wrong_doings	26	You have helped a friend in need	C2_35	1.0	Easy	I1_47	25	There are 20 bones in the human skull	0.0555555555555556	No	RIGHT	787.3862999995254	RIGHT	327.18519999980344	RIGHT	1333.6615999996866	RIGHT	856.2262999994346	48.6	0.2	Probable_Lie	LEFT	LEFT	5	725.2878864379727	136	2021-02-03 15:15:58.765383
70	Self	S210203	0.6666666666666666	1	2	2	1	0.6	1283.3333359	1500.000003	2350.0000047	1783.3333369	Major	Wrong_doings	1	You have started a movement to support a cause	C1_1	0.0	Hard	I2_16	16	December is the last month of the year	1.0	No	RIGHT	361.8247000003976	RIGHT	224.22139999980573	RIGHT	1567.9952000000412	RIGHT	1354.1614999994636	49.2	0.6	Probable_Lie	LEFT	LEFT	4	654.4321999999738	137	2021-02-03 15:16:22.421619
120	Computer	S210203	0.6666666666666666	2	1	1	2	0.1	1216.6666691	1433.3333362	1650.0000033	1783.3333369	Major	Wrong_doings	51	You have started a hotline for victims of bully	C2_42	0.95	Easy	I1_2	51	Singapore has four seasons	0.0	No	RIGHT	320.2933000002304	RIGHT	803.3762000004572	LEFT	1363.4294000003138	LEFT	1127.8732999999193	49.3	0.1	Probable_Lie	RIGHT	LEFT	4	663.7842567099899	138	2021-02-03 15:16:45.358656
42	Self	S210203	0.8333333333333334	2	1	1	2	0.5	1350.0000027	1216.6666691	2066.6666708	1650.0000033	Major	Good_deeds	44	You have risked your life to save another person's life	C2_60	0.05	Easy	I1_26	36	Marijuana is legal in Singapore	0.0	No	RIGHT	273.0513000005885	RIGHT	373.0164999997214	LEFT	1038.7426999996023	LEFT	789.9115000000165	49.8	0.5	Probable_Truth	RIGHT	RIGHT	5	744.7824999999284	139	2021-02-03 15:17:07.439391
75	Self	S210203	0.6666666666666666	2	1	1	2	0.7	1350.0000027	1066.6666688	1500.000003	1933.3333372	Minor	Good_deeds	47	You have faked an illness	C2_20	1.0	Easy	I1_44	5	A triangle has three sides	0.777777777777778	No	RIGHT	753.2760000003691	RIGHT	1060.9088000001066	LEFT	1470.7447000000684	RIGHT	1320.2739999996993	50.50000000000001	0.7	Probable_Lie	RIGHT	RIGHT	2	734.59769999954	140	2021-02-03 15:17:31.198775
135	Computer	S210203	0.8333333333333334	1	2	2	1	0.1	1066.6666688	1283.3333359	1500.000003	2216.6666711000003	Minor	Good_deeds	8	You have been physically hurt to protect others	C2_8	0.0	Hard	I2_44	33	It sometimes snows in Singapore	0.0	No	RIGHT	533.7390000004234	RIGHT	487.31989999942016	LEFT	2047.6910999996107	LEFT	1281.5925999993851	50.60000000000001	0.1	Probable_Truth	RIGHT	LEFT	1	717.9844680950551	141	2021-02-03 15:17:54.902757
43	Self	S210203	0.8333333333333334	2	1	1	2	0.8	1150.0000023	1066.6666688	1783.3333369	2066.6666708	Major	Wrong_doings	9	You have queued to enter the MRT train	C2_58	0.2	Hard	I2_3	26	Mozambique is the world's poorest country	0.0	No	RIGHT	367.9838000007294	RIGHT	488.5513999997784	RIGHT	1230.643300000338	RIGHT	1207.720700000209	51.400000000000006	0.8	Probable_Truth	LEFT	LEFT	1	756.8671999997605	142	2021-02-03 15:18:17.598128
30	Self	S210203	0.6666666666666666	2	1	2	1	0.7	1000.000002	1350.0000027	1650.0000033	1650.0000033	Minor	Wrong_doings	42	You have provided shelter for stray animals	C2_2	1.0	Hard	I2_21	60	The Eiffel Tower is in Paris	0.944444444444444	Yes	RIGHT	390.3864999992948	RIGHT	352.11900000012974	LEFT	1240.5268000002252	RIGHT	1521.639499999765	52.10000000000001	0.7	Probable_Truth	LEFT	LEFT	1	619.1820000003645	143	2021-02-03 15:18:39.941505
