"Participant"	"Task"	"Stimulus_Side"	"Response"	"RT"	"ITI"	"Previous_Response"	"Previous_RT"	"Stop_Signal"	"Stop_Signal_RT"	"Conflict"	"Cue_Response"	"Cue_Response_RT"	"Trial_Onset"	"Trial_End"	"Trial_Order"	"Duration"
"S210315"	"Conflict_Resolution"	"LEFT"	"LEFT"	718.4263	1116.666669	n/a	n/a	n/a	n/a	FALSE	n/a	n/a	"19:54.3"	"19:55.2"	1	6.625023567
"S210315"	"Conflict_Resolution"	"LEFT"	"Time_Max_Exceeded"	1500.066	783.3333349	n/a	n/a	n/a	n/a	TRUE	n/a	n/a	"19:56.0"	"19:57.5"	2	6.625023567
"S210315"	"Conflict_Resolution"	"LEFT"	"LEFT"	1222.7691	1200.000002	n/a	n/a	n/a	n/a	TRUE	n/a	n/a	"19:58.8"	"20:00.2"	3	6.625023567
"S210315"	"Conflict_Resolution"	"LEFT"	"LEFT"	776.1082	1100.000002	n/a	n/a	n/a	n/a	TRUE	n/a	n/a	"20:01.3"	"20:02.3"	4	6.625023567
"S210315"	"Conflict_Resolution"	"LEFT"	"LEFT"	597.1702	1166.666669	n/a	n/a	n/a	n/a	FALSE	n/a	n/a	"20:03.5"	"20:04.3"	5	6.625023567
"S210315"	"Conflict_Resolution"	"RIGHT"	"RIGHT"	1296.1686	750.0000015	n/a	n/a	n/a	n/a	TRUE	n/a	n/a	"20:05.0"	"20:06.6"	6	6.625023567
"S210315"	"Conflict_Resolution"	"RIGHT"	"RIGHT"	663.2147	1150.000002	n/a	n/a	n/a	n/a	FALSE	n/a	n/a	"20:07.7"	"20:08.6"	7	6.625023567
"S210315"	"Conflict_Resolution"	"LEFT"	"LEFT"	568.8636	516.6666677	n/a	n/a	n/a	n/a	FALSE	n/a	n/a	"20:09.1"	"20:09.9"	8	6.625023567
"S210315"	"Conflict_Resolution"	"RIGHT"	"RIGHT"	1005.4562	983.3333353	n/a	n/a	n/a	n/a	TRUE	n/a	n/a	"20:10.9"	"20:12.1"	9	6.625023567
"S210315"	"Conflict_Resolution"	"LEFT"	"LEFT"	708.79	1366.666669	n/a	n/a	n/a	n/a	TRUE	n/a	n/a	"20:13.5"	"20:14.4"	10	6.625023567
"S210315"	"Conflict_Resolution"	"RIGHT"	"RIGHT"	848.6584	1283.333336	n/a	n/a	n/a	n/a	TRUE	n/a	n/a	"20:15.7"	"20:16.8"	11	6.625023567
"S210315"	"Conflict_Resolution"	"RIGHT"	"RIGHT"	452.4458	1416.66667	n/a	n/a	n/a	n/a	FALSE	n/a	n/a	"20:18.2"	"20:18.9"	12	6.625023567
"S210315"	"Conflict_Resolution"	"LEFT"	"LEFT"	940.1668	1050.000002	n/a	n/a	n/a	n/a	TRUE	n/a	n/a	"20:19.9"	"20:21.1"	13	6.625023567
"S210315"	"Conflict_Resolution"	"RIGHT"	"RIGHT"	444.0162	1183.333336	n/a	n/a	n/a	n/a	FALSE	n/a	n/a	"20:22.3"	"20:23.0"	14	6.625023567
"S210315"	"Conflict_Resolution"	"RIGHT"	"RIGHT"	495.6386	733.3333348	n/a	n/a	n/a	n/a	FALSE	n/a	n/a	"20:23.7"	"20:24.4"	15	6.625023567
"S210315"	"Conflict_Resolution"	"LEFT"	"LEFT"	466.8714	1416.66667	n/a	n/a	n/a	n/a	FALSE	n/a	n/a	"20:25.8"	"20:26.5"	16	6.625023567
"S210315"	"Conflict_Resolution"	"LEFT"	"LEFT"	760.6662	1466.66667	n/a	n/a	n/a	n/a	TRUE	n/a	n/a	"20:28.0"	"20:29.0"	17	6.625023567
"S210315"	"Conflict_Resolution"	"LEFT"	"LEFT"	678.4998	566.6666678	n/a	n/a	n/a	n/a	FALSE	n/a	n/a	"20:29.6"	"20:30.4"	18	6.625023567
"S210315"	"Conflict_Resolution"	"LEFT"	"LEFT"	733.4876	583.3333345	n/a	n/a	n/a	n/a	TRUE	n/a	n/a	"20:31.0"	"20:32.0"	19	6.625023567
"S210315"	"Conflict_Resolution"	"RIGHT"	"RIGHT"	691.6363	833.333335	n/a	n/a	n/a	n/a	FALSE	n/a	n/a	"20:32.8"	"20:33.7"	20	6.625023567
"S210315"	"Conflict_Resolution"	"RIGHT"	"RIGHT"	932.9595	800.0000016	n/a	n/a	n/a	n/a	TRUE	n/a	n/a	"20:34.6"	"20:35.7"	21	6.625023567
"S210315"	"Conflict_Resolution"	"RIGHT"	"RIGHT"	653.1398	1000.000002	n/a	n/a	n/a	n/a	TRUE	n/a	n/a	"20:36.7"	"20:37.6"	22	6.625023567
"S210315"	"Conflict_Resolution"	"LEFT"	"LEFT"	529.0161	866.6666684	n/a	n/a	n/a	n/a	FALSE	n/a	n/a	"20:38.5"	"20:39.2"	23	6.625023567
"S210315"	"Conflict_Resolution"	"LEFT"	"LEFT"	528.8002	1316.666669	n/a	n/a	n/a	n/a	FALSE	n/a	n/a	"20:40.5"	"20:41.3"	24	6.625023567
"S210315"	"Conflict_Resolution"	"LEFT"	"LEFT"	452.2351	816.6666683	n/a	n/a	n/a	n/a	FALSE	n/a	n/a	"20:42.1"	"20:42.8"	25	6.625023567
"S210315"	"Conflict_Resolution"	"LEFT"	"LEFT"	842.4669	866.6666684	n/a	n/a	n/a	n/a	TRUE	n/a	n/a	"20:43.7"	"20:44.7"	26	6.625023567
"S210315"	"Conflict_Resolution"	"LEFT"	"LEFT"	598.503	950.0000019	n/a	n/a	n/a	n/a	FALSE	n/a	n/a	"20:45.7"	"20:46.5"	27	6.625023567
"S210315"	"Conflict_Resolution"	"RIGHT"	"RIGHT"	645.879	550.0000011	n/a	n/a	n/a	n/a	TRUE	n/a	n/a	"20:47.1"	"20:47.9"	28	6.625023567
"S210315"	"Conflict_Resolution"	"LEFT"	"LEFT"	1246.2478	533.3333344	n/a	n/a	n/a	n/a	TRUE	n/a	n/a	"20:48.5"	"20:49.9"	29	6.625023567
"S210315"	"Conflict_Resolution"	"RIGHT"	"RIGHT"	609.3371	1483.333336	n/a	n/a	n/a	n/a	FALSE	n/a	n/a	"20:51.4"	"20:52.2"	30	6.625023567
"S210315"	"Conflict_Resolution"	"RIGHT"	"RIGHT"	634.9066	1216.666669	n/a	n/a	n/a	n/a	TRUE	n/a	n/a	"20:53.5"	"20:54.3"	31	6.625023567
"S210315"	"Conflict_Resolution"	"LEFT"	"LEFT"	662.5769	716.6666681	n/a	n/a	n/a	n/a	FALSE	n/a	n/a	"20:55.1"	"20:55.9"	32	6.625023567
"S210315"	"Conflict_Resolution"	"LEFT"	"LEFT"	975.8803	733.3333348	n/a	n/a	n/a	n/a	TRUE	n/a	n/a	"20:56.7"	"20:57.9"	33	6.625023567
"S210315"	"Conflict_Resolution"	"RIGHT"	"RIGHT"	779.303	833.333335	n/a	n/a	n/a	n/a	TRUE	n/a	n/a	"20:58.7"	"20:59.7"	34	6.625023567
"S210315"	"Conflict_Resolution"	"RIGHT"	"RIGHT"	674.9891	650.0000013	n/a	n/a	n/a	n/a	TRUE	n/a	n/a	"21:00.4"	"21:01.3"	35	6.625023567
"S210315"	"Conflict_Resolution"	"RIGHT"	"RIGHT"	573.5924	533.3333344	n/a	n/a	n/a	n/a	TRUE	n/a	n/a	"21:01.8"	"21:02.6"	36	6.625023567
"S210315"	"Conflict_Resolution"	"LEFT"	"LEFT"	569.5078	633.3333346	n/a	n/a	n/a	n/a	TRUE	n/a	n/a	"21:03.2"	"21:04.0"	37	6.625023567
"S210315"	"Conflict_Resolution"	"RIGHT"	"RIGHT"	537.6517	900.0000018	n/a	n/a	n/a	n/a	TRUE	n/a	n/a	"21:04.9"	"21:05.7"	38	6.625023567
"S210315"	"Conflict_Resolution"	"RIGHT"	"RIGHT"	641.698	633.3333346	n/a	n/a	n/a	n/a	TRUE	n/a	n/a	"21:06.3"	"21:07.2"	39	6.625023567
"S210315"	"Conflict_Resolution"	"RIGHT"	"RIGHT"	512.0579	533.3333344	n/a	n/a	n/a	n/a	FALSE	n/a	n/a	"21:07.7"	"21:08.5"	40	6.625023567
"S210315"	"Conflict_Resolution"	"RIGHT"	"RIGHT"	428.4656	600.0000012	n/a	n/a	n/a	n/a	FALSE	n/a	n/a	"21:09.1"	"21:09.7"	41	6.625023567
"S210315"	"Conflict_Resolution"	"LEFT"	"LEFT"	503.9824	1466.66667	n/a	n/a	n/a	n/a	FALSE	n/a	n/a	"21:11.2"	"21:11.9"	42	6.625023567
"S210315"	"Conflict_Resolution"	"RIGHT"	"RIGHT"	570.9135	1050.000002	n/a	n/a	n/a	n/a	FALSE	n/a	n/a	"21:13.0"	"21:13.8"	43	6.625023567
"S210315"	"Conflict_Resolution"	"RIGHT"	"RIGHT"	618.3051	850.0000017	n/a	n/a	n/a	n/a	TRUE	n/a	n/a	"21:14.6"	"21:15.5"	44	6.625023567
"S210315"	"Conflict_Resolution"	"RIGHT"	"RIGHT"	571.152	1233.333336	n/a	n/a	n/a	n/a	FALSE	n/a	n/a	"21:16.7"	"21:17.5"	45	6.625023567
"S210315"	"Conflict_Resolution"	"LEFT"	"LEFT"	881.9271	1066.666669	n/a	n/a	n/a	n/a	TRUE	n/a	n/a	"21:18.6"	"21:19.7"	46	6.625023567
"S210315"	"Conflict_Resolution"	"LEFT"	"LEFT"	681.1089	716.6666681	n/a	n/a	n/a	n/a	TRUE	n/a	n/a	"21:20.4"	"21:21.3"	47	6.625023567
"S210315"	"Conflict_Resolution"	"LEFT"	"LEFT"	598.556	1150.000002	n/a	n/a	n/a	n/a	TRUE	n/a	n/a	"21:22.5"	"21:23.3"	48	6.625023567
"S210315"	"Conflict_Resolution"	"RIGHT"	"RIGHT"	787.8323	1183.333336	n/a	n/a	n/a	n/a	TRUE	n/a	n/a	"21:24.5"	"21:25.5"	49	6.625023567
"S210315"	"Conflict_Resolution"	"LEFT"	"LEFT"	777.0902	1300.000003	n/a	n/a	n/a	n/a	TRUE	n/a	n/a	"21:26.8"	"21:27.8"	50	6.625023567
"S210315"	"Conflict_Resolution"	"RIGHT"	"RIGHT"	729.1856	1083.333336	n/a	n/a	n/a	n/a	TRUE	n/a	n/a	"21:28.9"	"21:29.8"	51	6.625023567
"S210315"	"Conflict_Resolution"	"LEFT"	"LEFT"	461.0988	583.3333345	n/a	n/a	n/a	n/a	FALSE	n/a	n/a	"21:30.4"	"21:31.1"	52	6.625023567
"S210315"	"Conflict_Resolution"	"RIGHT"	"RIGHT"	487.7318	550.0000011	n/a	n/a	n/a	n/a	FALSE	n/a	n/a	"21:31.7"	"21:32.4"	53	6.625023567
"S210315"	"Conflict_Resolution"	"LEFT"	"LEFT"	495.3491	733.3333348	n/a	n/a	n/a	n/a	FALSE	n/a	n/a	"21:33.1"	"21:33.8"	54	6.625023567
"S210315"	"Conflict_Resolution"	"LEFT"	"LEFT"	502.8102	1150.000002	n/a	n/a	n/a	n/a	FALSE	n/a	n/a	"21:35.0"	"21:35.7"	55	6.625023567
"S210315"	"Conflict_Resolution"	"LEFT"	"LEFT"	666.9423	1266.666669	n/a	n/a	n/a	n/a	TRUE	n/a	n/a	"21:37.0"	"21:37.8"	56	6.625023567
"S210315"	"Conflict_Resolution"	"LEFT"	"LEFT"	801.4789	1100.000002	n/a	n/a	n/a	n/a	FALSE	n/a	n/a	"21:39.0"	"21:40.0"	57	6.625023567
"S210315"	"Conflict_Resolution"	"RIGHT"	"RIGHT"	830.2661	1333.333336	n/a	n/a	n/a	n/a	TRUE	n/a	n/a	"21:41.3"	"21:42.4"	58	6.625023567
"S210315"	"Conflict_Resolution"	"RIGHT"	"RIGHT"	665.6226	1483.333336	n/a	n/a	n/a	n/a	TRUE	n/a	n/a	"21:43.9"	"21:44.7"	59	6.625023567
"S210315"	"Conflict_Resolution"	"LEFT"	"LEFT"	481.6257	1266.666669	n/a	n/a	n/a	n/a	FALSE	n/a	n/a	"21:46.0"	"21:46.7"	60	6.625023567
"S210315"	"Conflict_Resolution"	"RIGHT"	"RIGHT"	457.6054	1083.333336	n/a	n/a	n/a	n/a	FALSE	n/a	n/a	"21:47.8"	"21:48.5"	61	6.625023567
"S210315"	"Conflict_Resolution"	"RIGHT"	"RIGHT"	444.0311	1216.666669	n/a	n/a	n/a	n/a	FALSE	n/a	n/a	"21:49.7"	"21:50.4"	62	6.625023567
"S210315"	"Conflict_Resolution"	"RIGHT"	"RIGHT"	590.5211	1383.333336	n/a	n/a	n/a	n/a	TRUE	n/a	n/a	"21:51.8"	"21:52.6"	63	6.625023567
"S210315"	"Conflict_Resolution"	"RIGHT"	"RIGHT"	501.7029	950.0000019	n/a	n/a	n/a	n/a	TRUE	n/a	n/a	"21:53.5"	"21:54.3"	64	6.625023567
"S210315"	"Conflict_Resolution"	"LEFT"	"LEFT"	628.7398	1000.000002	n/a	n/a	n/a	n/a	TRUE	n/a	n/a	"21:55.3"	"21:56.1"	65	6.625023567
"S210315"	"Conflict_Resolution"	"LEFT"	"LEFT"	562.5181	1250.000003	n/a	n/a	n/a	n/a	TRUE	n/a	n/a	"21:57.4"	"21:58.2"	66	6.625023567
"S210315"	"Conflict_Resolution"	"RIGHT"	"RIGHT"	419.3211	1033.333335	n/a	n/a	n/a	n/a	FALSE	n/a	n/a	"21:59.2"	"21:59.8"	67	6.625023567
"S210315"	"Conflict_Resolution"	"LEFT"	"LEFT"	1401.7185	683.3333347	n/a	n/a	n/a	n/a	TRUE	n/a	n/a	"22:00.5"	"22:02.1"	68	6.625023567
"S210315"	"Conflict_Resolution"	"LEFT"	"LEFT"	609.3964	1316.666669	n/a	n/a	n/a	n/a	TRUE	n/a	n/a	"22:03.5"	"22:04.3"	69	6.625023567
"S210315"	"Conflict_Resolution"	"LEFT"	"LEFT"	491.9978	783.3333349	n/a	n/a	n/a	n/a	FALSE	n/a	n/a	"22:05.1"	"22:05.8"	70	6.625023567
"S210315"	"Conflict_Resolution"	"RIGHT"	"RIGHT"	454.8277	950.0000019	n/a	n/a	n/a	n/a	FALSE	n/a	n/a	"22:06.8"	"22:07.4"	71	6.625023567
"S210315"	"Conflict_Resolution"	"RIGHT"	"RIGHT"	512.7926	883.3333351	n/a	n/a	n/a	n/a	FALSE	n/a	n/a	"22:08.3"	"22:09.1"	72	6.625023567
"S210315"	"Conflict_Resolution"	"LEFT"	"LEFT"	419.2653	1250.000003	n/a	n/a	n/a	n/a	FALSE	n/a	n/a	"22:10.3"	"22:11.0"	73	6.625023567
"S210315"	"Conflict_Resolution"	"LEFT"	"LEFT"	400.5641	666.666668	n/a	n/a	n/a	n/a	FALSE	n/a	n/a	"22:11.6"	"22:12.2"	74	6.625023567
"S210315"	"Conflict_Resolution"	"RIGHT"	"RIGHT"	517.1385	1366.666669	n/a	n/a	n/a	n/a	FALSE	n/a	n/a	"22:13.6"	"22:14.4"	75	6.625023567
"S210315"	"Conflict_Resolution"	"RIGHT"	"RIGHT"	761.4091	883.3333351	n/a	n/a	n/a	n/a	TRUE	n/a	n/a	"22:15.3"	"22:16.2"	76	6.625023567
"S210315"	"Conflict_Resolution"	"LEFT"	"LEFT"	550.4916	916.6666685	n/a	n/a	n/a	n/a	TRUE	n/a	n/a	"22:17.2"	"22:17.9"	77	6.625023567
"S210315"	"Conflict_Resolution"	"RIGHT"	"RIGHT"	402.9341	983.3333353	n/a	n/a	n/a	n/a	FALSE	n/a	n/a	"22:18.9"	"22:19.5"	78	6.625023567
"S210315"	"Conflict_Resolution"	"RIGHT"	"RIGHT"	412.2467	633.3333346	n/a	n/a	n/a	n/a	FALSE	n/a	n/a	"22:20.2"	"22:20.8"	79	6.625023567
"S210315"	"Conflict_Resolution"	"LEFT"	"LEFT"	684.8337	1166.666669	n/a	n/a	n/a	n/a	TRUE	n/a	n/a	"22:22.0"	"22:22.9"	80	6.625023567
"S210315"	"Conflict_Resolution"	"LEFT"	"LEFT"	558.6999	966.6666686	n/a	n/a	n/a	n/a	FALSE	n/a	n/a	"22:23.9"	"22:24.6"	81	6.625023567
"S210315"	"Conflict_Resolution"	"LEFT"	"LEFT"	426.1693	1216.666669	n/a	n/a	n/a	n/a	FALSE	n/a	n/a	"22:25.9"	"22:26.5"	82	6.625023567
"S210315"	"Conflict_Resolution"	"LEFT"	"LEFT"	687.9631	1500.000003	n/a	n/a	n/a	n/a	TRUE	n/a	n/a	"22:28.0"	"22:28.9"	83	6.625023567
"S210315"	"Conflict_Resolution"	"LEFT"	"LEFT"	469.3628	1200.000002	n/a	n/a	n/a	n/a	FALSE	n/a	n/a	"22:30.2"	"22:30.8"	84	6.625023567
"S210315"	"Conflict_Resolution"	"RIGHT"	"RIGHT"	619.3273	1416.66667	n/a	n/a	n/a	n/a	TRUE	n/a	n/a	"22:32.3"	"22:33.1"	85	6.625023567
"S210315"	"Conflict_Resolution"	"RIGHT"	"RIGHT"	597.1878	500.000001	n/a	n/a	n/a	n/a	TRUE	n/a	n/a	"22:33.6"	"22:34.4"	86	6.625023567
"S210315"	"Conflict_Resolution"	"LEFT"	"LEFT"	468.0979	1000.000002	n/a	n/a	n/a	n/a	FALSE	n/a	n/a	"22:35.4"	"22:36.1"	87	6.625023567
"S210315"	"Conflict_Resolution"	"RIGHT"	"RIGHT"	460.3327	1433.333336	n/a	n/a	n/a	n/a	FALSE	n/a	n/a	"22:37.6"	"22:38.2"	88	6.625023567
"S210315"	"Conflict_Resolution"	"RIGHT"	"RIGHT"	605.5524	933.3333352	n/a	n/a	n/a	n/a	TRUE	n/a	n/a	"22:39.2"	"22:40.0"	89	6.625023567
"S210315"	"Conflict_Resolution"	"RIGHT"	"RIGHT"	454.6253	583.3333345	n/a	n/a	n/a	n/a	TRUE	n/a	n/a	"22:40.6"	"22:41.3"	90	6.625023567
"S210315"	"Conflict_Resolution"	"RIGHT"	"RIGHT"	381.342	783.3333349	n/a	n/a	n/a	n/a	TRUE	n/a	n/a	"22:42.1"	"22:42.7"	91	6.625023567
"S210315"	"Conflict_Resolution"	"RIGHT"	"RIGHT"	400.9674	1283.333336	n/a	n/a	n/a	n/a	FALSE	n/a	n/a	"22:44.0"	"22:44.6"	92	6.625023567
"S210315"	"Conflict_Resolution"	"RIGHT"	"RIGHT"	416.7089	700.0000014	n/a	n/a	n/a	n/a	FALSE	n/a	n/a	"22:45.3"	"22:45.9"	93	6.625023567
"S210315"	"Conflict_Resolution"	"RIGHT"	"RIGHT"	664.8618	1100.000002	n/a	n/a	n/a	n/a	TRUE	n/a	n/a	"22:47.0"	"22:47.9"	94	6.625023567
"S210315"	"Conflict_Resolution"	"LEFT"	"LEFT"	501.9723	766.6666682	n/a	n/a	n/a	n/a	FALSE	n/a	n/a	"22:48.7"	"22:49.4"	95	6.625023567
"S210315"	"Conflict_Resolution"	"LEFT"	"LEFT"	704.5597	900.0000018	n/a	n/a	n/a	n/a	TRUE	n/a	n/a	"22:50.3"	"22:51.2"	96	6.625023567
"S210315"	"Conflict_Resolution"	"LEFT"	"LEFT"	604.322	950.0000019	n/a	n/a	n/a	n/a	TRUE	n/a	n/a	"22:52.2"	"22:53.0"	97	6.625023567
"S210315"	"Conflict_Resolution"	"LEFT"	"LEFT"	613.2596	916.6666685	n/a	n/a	n/a	n/a	FALSE	n/a	n/a	"22:54.0"	"22:54.8"	98	6.625023567
"S210315"	"Conflict_Resolution"	"RIGHT"	"RIGHT"	468.326	1000.000002	n/a	n/a	n/a	n/a	FALSE	n/a	n/a	"22:55.8"	"22:56.5"	99	6.625023567
"S210315"	"Conflict_Resolution"	"RIGHT"	"RIGHT"	697.8412	1050.000002	n/a	n/a	n/a	n/a	TRUE	n/a	n/a	"22:57.5"	"22:58.5"	100	6.625023567
"S210315"	"Conflict_Resolution"	"RIGHT"	"RIGHT"	399.0612	750.0000015	n/a	n/a	n/a	n/a	FALSE	n/a	n/a	"22:59.2"	"22:59.8"	101	6.625023567
"S210315"	"Conflict_Resolution"	"RIGHT"	"RIGHT"	472.6132	1316.666669	n/a	n/a	n/a	n/a	FALSE	n/a	n/a	"23:01.2"	"23:01.8"	102	6.625023567
"S210315"	"Conflict_Resolution"	"RIGHT"	"RIGHT"	705.3652	683.3333347	n/a	n/a	n/a	n/a	TRUE	n/a	n/a	"23:02.6"	"23:03.5"	103	6.625023567
"S210315"	"Conflict_Resolution"	"RIGHT"	"RIGHT"	433.6685	1266.666669	n/a	n/a	n/a	n/a	FALSE	n/a	n/a	"23:04.7"	"23:05.4"	104	6.625023567
"S210315"	"Conflict_Resolution"	"RIGHT"	"RIGHT"	510.1137	1133.333336	n/a	n/a	n/a	n/a	TRUE	n/a	n/a	"23:06.5"	"23:07.3"	105	6.625023567
"S210315"	"Conflict_Resolution"	"LEFT"	"LEFT"	747.2558	633.3333346	n/a	n/a	n/a	n/a	FALSE	n/a	n/a	"23:07.9"	"23:08.9"	106	6.625023567
"S210315"	"Conflict_Resolution"	"LEFT"	"LEFT"	529.7905	850.0000017	n/a	n/a	n/a	n/a	FALSE	n/a	n/a	"23:09.7"	"23:10.5"	107	6.625023567
"S210315"	"Conflict_Resolution"	"RIGHT"	"RIGHT"	474.8983	650.0000013	n/a	n/a	n/a	n/a	FALSE	n/a	n/a	"23:11.1"	"23:11.8"	108	6.625023567
"S210315"	"Conflict_Resolution"	"LEFT"	"LEFT"	409.1523	1050.000002	n/a	n/a	n/a	n/a	FALSE	n/a	n/a	"23:12.9"	"23:13.5"	109	6.625023567
"S210315"	"Conflict_Resolution"	"RIGHT"	"RIGHT"	713.7814	1266.666669	n/a	n/a	n/a	n/a	TRUE	n/a	n/a	"23:14.8"	"23:15.7"	110	6.625023567
"S210315"	"Conflict_Resolution"	"LEFT"	"LEFT"	891.0698	1216.666669	n/a	n/a	n/a	n/a	TRUE	n/a	n/a	"23:17.0"	"23:18.1"	111	6.625023567
"S210315"	"Conflict_Resolution"	"RIGHT"	"RIGHT"	1222.947	700.0000014	n/a	n/a	n/a	n/a	TRUE	n/a	n/a	"23:18.8"	"23:20.2"	112	6.625023567
"S210315"	"Conflict_Resolution"	"LEFT"	"LEFT"	836.2747	1016.666669	n/a	n/a	n/a	n/a	TRUE	n/a	n/a	"23:21.3"	"23:22.3"	113	6.625023567
"S210315"	"Conflict_Resolution"	"LEFT"	"LEFT"	697.8709	1500.000003	n/a	n/a	n/a	n/a	FALSE	n/a	n/a	"23:23.8"	"23:24.7"	114	6.625023567
"S210315"	"Conflict_Resolution"	"LEFT"	"LEFT"	491.7477	616.6666679	n/a	n/a	n/a	n/a	FALSE	n/a	n/a	"23:25.4"	"23:26.1"	115	6.625023567
"S210315"	"Conflict_Resolution"	"RIGHT"	"RIGHT"	626.0722	1466.66667	n/a	n/a	n/a	n/a	TRUE	n/a	n/a	"23:27.5"	"23:28.4"	116	6.625023567
"S210315"	"Conflict_Resolution"	"LEFT"	"LEFT"	1422.2511	516.6666677	n/a	n/a	n/a	n/a	TRUE	n/a	n/a	"23:28.9"	"23:30.5"	117	6.625023567
"S210315"	"Conflict_Resolution"	"LEFT"	"LEFT"	823.3655	1350.000003	n/a	n/a	n/a	n/a	FALSE	n/a	n/a	"23:31.9"	"23:32.9"	118	6.625023567
"S210315"	"Conflict_Resolution"	"LEFT"	"LEFT"	804.6265	1416.66667	n/a	n/a	n/a	n/a	TRUE	n/a	n/a	"23:34.4"	"23:35.4"	119	6.625023567
"S210315"	"Conflict_Resolution"	"LEFT"	"LEFT"	546.7174	816.6666683	n/a	n/a	n/a	n/a	TRUE	n/a	n/a	"23:36.2"	"23:37.0"	120	6.625023567
"S210315"	"Conflict_Resolution"	"LEFT"	"LEFT"	496.0684	1116.666669	n/a	n/a	n/a	n/a	TRUE	n/a	n/a	"23:38.1"	"23:38.8"	121	6.625023567
"S210315"	"Conflict_Resolution"	"LEFT"	"LEFT"	423.8047	683.3333347	n/a	n/a	n/a	n/a	FALSE	n/a	n/a	"23:39.5"	"23:40.2"	122	6.625023567
"S210315"	"Conflict_Resolution"	"RIGHT"	"RIGHT"	724.3416	1233.333336	n/a	n/a	n/a	n/a	TRUE	n/a	n/a	"23:41.4"	"23:42.3"	123	6.625023567
"S210315"	"Conflict_Resolution"	"RIGHT"	"RIGHT"	461.8849	1383.333336	n/a	n/a	n/a	n/a	FALSE	n/a	n/a	"23:43.7"	"23:44.4"	124	6.625023567
"S210315"	"Conflict_Resolution"	"LEFT"	"LEFT"	563.0398	966.6666686	n/a	n/a	n/a	n/a	TRUE	n/a	n/a	"23:45.4"	"23:46.2"	125	6.625023567
"S210315"	"Conflict_Resolution"	"LEFT"	"LEFT"	451.5631	1450.000003	n/a	n/a	n/a	n/a	FALSE	n/a	n/a	"23:47.6"	"23:48.3"	126	6.625023567
"S210315"	"Conflict_Resolution"	"RIGHT"	"RIGHT"	639.1594	1150.000002	n/a	n/a	n/a	n/a	TRUE	n/a	n/a	"23:49.5"	"23:50.3"	127	6.625023567
"S210315"	"Conflict_Resolution"	"LEFT"	"LEFT"	819.1743	666.666668	n/a	n/a	n/a	n/a	TRUE	n/a	n/a	"23:51.0"	"23:52.0"	128	6.625023567
"S210315"	"Conflict_Resolution"	"RIGHT"	"RIGHT"	522.8102	683.3333347	n/a	n/a	n/a	n/a	FALSE	n/a	n/a	"23:52.7"	"23:53.5"	129	6.625023567
"S210315"	"Conflict_Resolution"	"LEFT"	"LEFT"	439.0207	1300.000003	n/a	n/a	n/a	n/a	FALSE	n/a	n/a	"23:54.8"	"23:55.4"	130	6.625023567
"S210315"	"Conflict_Resolution"	"RIGHT"	"RIGHT"	369.2773	900.0000018	n/a	n/a	n/a	n/a	FALSE	n/a	n/a	"23:56.3"	"23:56.9"	131	6.625023567
"S210315"	"Conflict_Resolution"	"RIGHT"	"RIGHT"	431.4801	1100.000002	n/a	n/a	n/a	n/a	FALSE	n/a	n/a	"23:58.0"	"23:58.7"	132	6.625023567
"S210315"	"Conflict_Resolution"	"RIGHT"	"RIGHT"	341.6571	933.3333352	n/a	n/a	n/a	n/a	FALSE	n/a	n/a	"23:59.6"	"24:00.2"	133	6.625023567
"S210315"	"Conflict_Resolution"	"RIGHT"	"RIGHT"	373.2283	800.0000016	n/a	n/a	n/a	n/a	FALSE	n/a	n/a	"24:01.0"	"24:01.6"	134	6.625023567
"S210315"	"Conflict_Resolution"	"RIGHT"	"RIGHT"	861.6596	1366.666669	n/a	n/a	n/a	n/a	TRUE	n/a	n/a	"24:03.0"	"24:04.0"	135	6.625023567
"S210315"	"Conflict_Resolution"	"LEFT"	"LEFT"	478.4506	533.3333344	n/a	n/a	n/a	n/a	FALSE	n/a	n/a	"24:04.6"	"24:05.3"	136	6.625023567
"S210315"	"Conflict_Resolution"	"RIGHT"	"RIGHT"	651.4345	600.0000012	n/a	n/a	n/a	n/a	TRUE	n/a	n/a	"24:05.9"	"24:06.8"	137	6.625023567
"S210315"	"Conflict_Resolution"	"LEFT"	"LEFT"	524.1201	1400.000003	n/a	n/a	n/a	n/a	FALSE	n/a	n/a	"24:08.2"	"24:08.9"	138	6.625023567
"S210315"	"Conflict_Resolution"	"LEFT"	"LEFT"	700.9798	766.6666682	n/a	n/a	n/a	n/a	TRUE	n/a	n/a	"24:09.7"	"24:10.6"	139	6.625023567
"S210315"	"Conflict_Resolution"	"LEFT"	"LEFT"	601.6582	1450.000003	n/a	n/a	n/a	n/a	TRUE	n/a	n/a	"24:12.1"	"24:12.9"	140	6.625023567
"S210315"	"Conflict_Resolution"	"LEFT"	"LEFT"	692.8387	616.6666679	n/a	n/a	n/a	n/a	TRUE	n/a	n/a	"24:13.5"	"24:14.4"	141	6.625023567
"S210315"	"Conflict_Resolution"	"LEFT"	"LEFT"	653.9388	1400.000003	n/a	n/a	n/a	n/a	TRUE	n/a	n/a	"24:15.8"	"24:16.7"	142	6.625023567
"S210315"	"Conflict_Resolution"	"RIGHT"	"RIGHT"	613.2892	733.3333348	n/a	n/a	n/a	n/a	TRUE	n/a	n/a	"24:17.5"	"24:18.3"	143	6.625023567
"S210315"	"Conflict_Resolution"	"RIGHT"	"RIGHT"	436.5633	583.3333345	n/a	n/a	n/a	n/a	FALSE	n/a	n/a	"24:18.9"	"24:19.5"	144	6.625023567
"S210315"	"Conflict_Resolution"	"RIGHT"	"RIGHT"	491.1783	850.0000017	n/a	n/a	n/a	n/a	FALSE	n/a	n/a	"24:20.4"	"24:21.1"	145	6.625023567
"S210315"	"Conflict_Resolution"	"RIGHT"	"RIGHT"	496.2864	1333.333336	n/a	n/a	n/a	n/a	FALSE	n/a	n/a	"24:22.5"	"24:23.2"	146	6.625023567
"S210315"	"Conflict_Resolution"	"LEFT"	"LEFT"	638.168	1350.000003	n/a	n/a	n/a	n/a	TRUE	n/a	n/a	"24:24.5"	"24:25.4"	147	6.625023567
"S210315"	"Conflict_Resolution"	"RIGHT"	"RIGHT"	796.7915	1033.333335	n/a	n/a	n/a	n/a	TRUE	n/a	n/a	"24:26.4"	"24:27.4"	148	6.625023567
"S210315"	"Conflict_Resolution"	"LEFT"	"LEFT"	490.7316	1016.666669	n/a	n/a	n/a	n/a	FALSE	n/a	n/a	"24:28.5"	"24:29.2"	149	6.625023567
"S210315"	"Conflict_Resolution"	"RIGHT"	"RIGHT"	467.2069	1466.66667	n/a	n/a	n/a	n/a	FALSE	n/a	n/a	"24:30.7"	"24:31.3"	150	6.625023567
"S210315"	"Conflict_Resolution"	"RIGHT"	"RIGHT"	621.235	783.3333349	n/a	n/a	n/a	n/a	FALSE	n/a	n/a	"24:32.1"	"24:33.0"	151	6.625023567
"S210315"	"Conflict_Resolution"	"LEFT"	"LEFT"	608.4285	900.0000018	n/a	n/a	n/a	n/a	FALSE	n/a	n/a	"24:33.9"	"24:34.7"	152	6.625023567
"S210315"	"Conflict_Resolution"	"LEFT"	"LEFT"	527.203	1366.666669	n/a	n/a	n/a	n/a	FALSE	n/a	n/a	"24:36.1"	"24:36.8"	153	6.625023567
"S210315"	"Conflict_Resolution"	"LEFT"	"LEFT"	846.3631	566.6666678	n/a	n/a	n/a	n/a	TRUE	n/a	n/a	"24:37.4"	"24:38.5"	154	6.625023567
"S210315"	"Conflict_Resolution"	"RIGHT"	"RIGHT"	479.9569	1133.333336	n/a	n/a	n/a	n/a	FALSE	n/a	n/a	"24:39.6"	"24:40.3"	155	6.625023567
"S210315"	"Conflict_Resolution"	"RIGHT"	"RIGHT"	457.1933	500.000001	n/a	n/a	n/a	n/a	FALSE	n/a	n/a	"24:40.8"	"24:41.5"	156	6.625023567
"S210315"	"Conflict_Resolution"	"LEFT"	"LEFT"	521.9363	1066.666669	n/a	n/a	n/a	n/a	FALSE	n/a	n/a	"24:42.6"	"24:43.3"	157	6.625023567
"S210315"	"Conflict_Resolution"	"LEFT"	"LEFT"	704.9964	850.0000017	n/a	n/a	n/a	n/a	TRUE	n/a	n/a	"24:44.2"	"24:45.1"	158	6.625023567
"S210315"	"Conflict_Resolution"	"RIGHT"	"RIGHT"	1048.189	1316.666669	n/a	n/a	n/a	n/a	TRUE	n/a	n/a	"24:46.4"	"24:47.7"	159	6.625023567
"S210315"	"Conflict_Resolution"	"RIGHT"	"RIGHT"	739.1807	1433.333336	n/a	n/a	n/a	n/a	TRUE	n/a	n/a	"24:49.1"	"24:50.1"	160	6.625023567
"S210315"	"Processing_Speed"	"RIGHT"	"DOWN"	391.0664	500.000001	""	n/a	n/a	n/a	n/a	n/a	n/a	"07:42.3"	"07:42.9"	1	2.110077283
"S210315"	"Processing_Speed"	"RIGHT"	"DOWN"	403.1174	700.0000014	"DOWN"	-544.922	n/a	n/a	n/a	n/a	n/a	"07:43.6"	"07:44.2"	2	2.110077283
"S210315"	"Processing_Speed"	"LEFT"	"DOWN"	267.6504	883.3333351	""	n/a	n/a	n/a	n/a	n/a	n/a	"07:45.1"	"07:45.6"	3	2.110077283
"S210315"	"Processing_Speed"	"LEFT"	"DOWN"	280.9832	1366.666669	""	n/a	n/a	n/a	n/a	n/a	n/a	"07:47.0"	"07:47.5"	4	2.110077283
"S210315"	"Processing_Speed"	"LEFT"	"DOWN"	304.4122	1183.333336	""	n/a	n/a	n/a	n/a	n/a	n/a	"07:48.7"	"07:49.2"	5	2.110077283
"S210315"	"Processing_Speed"	"LEFT"	"DOWN"	297.8363	1083.333336	""	n/a	n/a	n/a	n/a	n/a	n/a	"07:50.3"	"07:50.8"	6	2.110077283
"S210315"	"Processing_Speed"	"LEFT"	"DOWN"	286.3162	1016.666669	""	n/a	n/a	n/a	n/a	n/a	n/a	"07:51.8"	"07:52.3"	7	2.110077283
"S210315"	"Processing_Speed"	"RIGHT"	"DOWN"	362.8416	1500.000003	""	n/a	n/a	n/a	n/a	n/a	n/a	"07:53.8"	"07:54.4"	8	2.110077283
"S210315"	"Processing_Speed"	"LEFT"	"DOWN"	301.1993	1466.66667	""	n/a	n/a	n/a	n/a	n/a	n/a	"07:55.9"	"07:56.4"	9	2.110077283
"S210315"	"Processing_Speed"	"RIGHT"	"DOWN"	254.369	1216.666669	""	n/a	n/a	n/a	n/a	n/a	n/a	"07:57.6"	"07:58.1"	10	2.110077283
"S210315"	"Processing_Speed"	"LEFT"	"DOWN"	273.1962	1150.000002	""	n/a	n/a	n/a	n/a	n/a	n/a	"07:59.2"	"07:59.7"	11	2.110077283
"S210315"	"Processing_Speed"	"RIGHT"	"DOWN"	341.4676	1016.666669	""	n/a	n/a	n/a	n/a	n/a	n/a	"08:00.7"	"08:01.3"	12	2.110077283
"S210315"	"Processing_Speed"	"LEFT"	"DOWN"	246.8901	983.3333353	""	n/a	n/a	n/a	n/a	n/a	n/a	"08:02.3"	"08:02.7"	13	2.110077283
"S210315"	"Processing_Speed"	"RIGHT"	"DOWN"	282.5341	733.3333348	""	n/a	n/a	n/a	n/a	n/a	n/a	"08:03.5"	"08:04.0"	14	2.110077283
"S210315"	"Processing_Speed"	"RIGHT"	"DOWN"	277.6287	1466.66667	""	n/a	n/a	n/a	n/a	n/a	n/a	"08:05.4"	"08:05.9"	15	2.110077283
"S210315"	"Processing_Speed"	"LEFT"	"DOWN"	352.7738	566.6666678	""	n/a	n/a	n/a	n/a	n/a	n/a	"08:06.5"	"08:07.0"	16	2.110077283
"S210315"	"Processing_Speed"	"LEFT"	"DOWN"	276.4221	700.0000014	""	n/a	n/a	n/a	n/a	n/a	n/a	"08:07.8"	"08:08.2"	17	2.110077283
"S210315"	"Processing_Speed"	"LEFT"	"DOWN"	300.6985	850.0000017	""	n/a	n/a	n/a	n/a	n/a	n/a	"08:09.1"	"08:09.6"	18	2.110077283
"S210315"	"Processing_Speed"	"RIGHT"	"DOWN"	291.7366	883.3333351	""	n/a	n/a	n/a	n/a	n/a	n/a	"08:10.5"	"08:11.0"	19	2.110077283
"S210315"	"Processing_Speed"	"LEFT"	"DOWN"	257.1574	916.6666685	""	n/a	n/a	n/a	n/a	n/a	n/a	"08:11.9"	"08:12.4"	20	2.110077283
"S210315"	"Processing_Speed"	"LEFT"	"DOWN"	263.3779	816.6666683	""	n/a	n/a	n/a	n/a	n/a	n/a	"08:13.2"	"08:13.7"	21	2.110077283
"S210315"	"Processing_Speed"	"RIGHT"	"DOWN"	369.4233	533.3333344	""	n/a	n/a	n/a	n/a	n/a	n/a	"08:14.2"	"08:14.8"	22	2.110077283
"S210315"	"Processing_Speed"	"RIGHT"	"DOWN"	254.0865	633.3333346	""	n/a	n/a	n/a	n/a	n/a	n/a	"08:15.4"	"08:15.9"	23	2.110077283
"S210315"	"Processing_Speed"	"LEFT"	"DOWN"	254.5213	633.3333346	""	n/a	n/a	n/a	n/a	n/a	n/a	"08:16.6"	"08:17.0"	24	2.110077283
"S210315"	"Processing_Speed"	"LEFT"	"DOWN"	254.8471	600.0000012	""	n/a	n/a	n/a	n/a	n/a	n/a	"08:17.6"	"08:18.1"	25	2.110077283
"S210315"	"Processing_Speed"	"LEFT"	"DOWN"	282.0883	1266.666669	""	n/a	n/a	n/a	n/a	n/a	n/a	"08:19.4"	"08:19.9"	26	2.110077283
"S210315"	"Processing_Speed"	"RIGHT"	"DOWN"	248.0051	783.3333349	""	n/a	n/a	n/a	n/a	n/a	n/a	"08:20.6"	"08:21.1"	27	2.110077283
"S210315"	"Processing_Speed"	"RIGHT"	"DOWN"	244.0185	1083.333336	""	n/a	n/a	n/a	n/a	n/a	n/a	"08:22.2"	"08:22.6"	28	2.110077283
"S210315"	"Processing_Speed"	"RIGHT"	"DOWN"	346.9506	916.6666685	""	n/a	n/a	n/a	n/a	n/a	n/a	"08:23.6"	"08:24.1"	29	2.110077283
"S210315"	"Processing_Speed"	"RIGHT"	"DOWN"	293.6989	816.6666683	""	n/a	n/a	n/a	n/a	n/a	n/a	"08:25.0"	"08:25.5"	30	2.110077283
"S210315"	"Processing_Speed"	"RIGHT"	"DOWN"	235.9525	850.0000017	""	n/a	n/a	n/a	n/a	n/a	n/a	"08:26.3"	"08:26.8"	31	2.110077283
"S210315"	"Processing_Speed"	"RIGHT"	"DOWN"	299.9104	1300.000003	""	n/a	n/a	n/a	n/a	n/a	n/a	"08:28.1"	"08:28.6"	32	2.110077283
"S210315"	"Processing_Speed"	"LEFT"	"DOWN"	252.5263	1500.000003	""	n/a	n/a	n/a	n/a	n/a	n/a	"08:30.1"	"08:30.5"	33	2.110077283
"S210315"	"Processing_Speed"	"LEFT"	"DOWN"	281.851	1300.000003	""	n/a	n/a	n/a	n/a	n/a	n/a	"08:31.9"	"08:32.3"	34	2.110077283
"S210315"	"Processing_Speed"	"RIGHT"	"DOWN"	257.5815	1366.666669	""	n/a	n/a	n/a	n/a	n/a	n/a	"08:33.7"	"08:34.2"	35	2.110077283
"S210315"	"Processing_Speed"	"RIGHT"	"DOWN"	262.5934	1400.000003	""	n/a	n/a	n/a	n/a	n/a	n/a	"08:35.6"	"08:36.1"	36	2.110077283
"S210315"	"Processing_Speed"	"RIGHT"	"DOWN"	343.49	1433.333336	""	n/a	n/a	n/a	n/a	n/a	n/a	"08:37.5"	"08:38.1"	37	2.110077283
"S210315"	"Processing_Speed"	"LEFT"	"DOWN"	279.5931	1216.666669	""	n/a	n/a	n/a	n/a	n/a	n/a	"08:39.3"	"08:39.8"	38	2.110077283
"S210315"	"Processing_Speed"	"LEFT"	"DOWN"	255.2125	783.3333349	""	n/a	n/a	n/a	n/a	n/a	n/a	"08:40.6"	"08:41.0"	39	2.110077283
"S210315"	"Processing_Speed"	"RIGHT"	"DOWN"	271.9349	983.3333353	""	n/a	n/a	n/a	n/a	n/a	n/a	"08:42.0"	"08:42.5"	40	2.110077283
"S210315"	"Processing_Speed"	"RIGHT"	"DOWN"	336.8775	566.6666678	""	n/a	n/a	n/a	n/a	n/a	n/a	"08:43.1"	"08:43.6"	41	2.110077283
"S210315"	"Processing_Speed"	"LEFT"	"DOWN"	274.351	500.000001	""	n/a	n/a	n/a	n/a	n/a	n/a	"08:44.1"	"08:44.6"	42	2.110077283
"S210315"	"Processing_Speed"	"RIGHT"	"DOWN"	271.3439	1183.333336	""	n/a	n/a	n/a	n/a	n/a	n/a	"08:45.8"	"08:46.3"	43	2.110077283
"S210315"	"Processing_Speed"	"LEFT"	"DOWN"	253.6817	1050.000002	""	n/a	n/a	n/a	n/a	n/a	n/a	"08:47.3"	"08:47.8"	44	2.110077283
"S210315"	"Processing_Speed"	"RIGHT"	"DOWN"	177.4232	1150.000002	""	n/a	n/a	n/a	n/a	n/a	n/a	"08:49.0"	"08:49.3"	45	2.110077283
"S210315"	"Processing_Speed"	"RIGHT"	"DOWN"	380.4522	666.666668	""	n/a	n/a	n/a	n/a	n/a	n/a	"08:50.0"	"08:50.6"	46	2.110077283
"S210315"	"Processing_Speed"	"LEFT"	"DOWN"	305.4641	533.3333344	""	n/a	n/a	n/a	n/a	n/a	n/a	"08:51.2"	"08:51.7"	47	2.110077283
"S210315"	"Processing_Speed"	"LEFT"	"DOWN"	277.3787	666.666668	""	n/a	n/a	n/a	n/a	n/a	n/a	"08:52.3"	"08:52.8"	48	2.110077283
"S210315"	"Processing_Speed"	"RIGHT"	"DOWN"	218.2486	950.0000019	""	n/a	n/a	n/a	n/a	n/a	n/a	"08:53.8"	"08:54.2"	49	2.110077283
"S210315"	"Processing_Speed"	"RIGHT"	"DOWN"	249.1527	1333.333336	""	n/a	n/a	n/a	n/a	n/a	n/a	"08:55.6"	"08:56.0"	50	2.110077283
"S210315"	"Processing_Speed"	"RIGHT"	"DOWN"	412.9462	1266.666669	""	n/a	n/a	n/a	n/a	n/a	n/a	"08:57.3"	"08:57.9"	51	2.110077283
"S210315"	"Processing_Speed"	"LEFT"	"DOWN"	234.0435	1333.333336	""	n/a	n/a	n/a	n/a	n/a	n/a	"08:59.2"	"08:59.7"	52	2.110077283
"S210315"	"Processing_Speed"	"LEFT"	"DOWN"	287.9348	1400.000003	""	n/a	n/a	n/a	n/a	n/a	n/a	"09:01.1"	"09:01.6"	53	2.110077283
"S210315"	"Processing_Speed"	"RIGHT"	"DOWN"	397.137	1050.000002	""	n/a	n/a	n/a	n/a	n/a	n/a	"09:02.7"	"09:03.3"	54	2.110077283
"S210315"	"Processing_Speed"	"LEFT"	"DOWN"	277.9536	1433.333336	""	n/a	n/a	n/a	n/a	n/a	n/a	"09:04.7"	"09:05.2"	55	2.110077283
"S210315"	"Processing_Speed"	"LEFT"	"DOWN"	385.9681	733.3333348	""	n/a	n/a	n/a	n/a	n/a	n/a	"09:05.9"	"09:06.5"	56	2.110077283
"S210315"	"Processing_Speed"	"LEFT"	"DOWN"	273.3554	950.0000019	""	n/a	n/a	n/a	n/a	n/a	n/a	"09:07.5"	"09:08.0"	57	2.110077283
"S210315"	"Processing_Speed"	"RIGHT"	"DOWN"	312.4895	600.0000012	""	n/a	n/a	n/a	n/a	n/a	n/a	"09:08.6"	"09:09.1"	58	2.110077283
"S210315"	"Processing_Speed"	"LEFT"	"DOWN"	275.2714	1116.666669	""	n/a	n/a	n/a	n/a	n/a	n/a	"09:10.2"	"09:10.7"	59	2.110077283
"S210315"	"Processing_Speed"	"RIGHT"	"DOWN"	235.2044	1116.666669	""	n/a	n/a	n/a	n/a	n/a	n/a	"09:11.8"	"09:12.3"	60	2.110077283
"S210315"	"Response_Inhibition"	"RIGHT"	"RIGHT"	767.3808	650.0000013	n/a	n/a	n/a	n/a	n/a	n/a	n/a	"13:10.1"	"13:11.1"	1	5.8323834
"S210315"	"Response_Inhibition"	"LEFT"	"Time_Max_Exceeded"	1500.070833	1416.66667	n/a	n/a	n/a	n/a	n/a	n/a	n/a	"13:12.5"	"13:14.0"	2	5.8323834
"S210315"	"Response_Inhibition"	"RIGHT"	"RIGHT"	422.3848	1366.666669	n/a	n/a	n/a	n/a	n/a	n/a	n/a	"13:15.4"	"13:16.1"	3	5.8323834
"S210315"	"Response_Inhibition"	"RIGHT"	"RIGHT"	451.8642	1066.666669	n/a	n/a	n/a	n/a	n/a	n/a	n/a	"13:17.1"	"13:17.8"	4	5.8323834
"S210315"	"Response_Inhibition"	"RIGHT"	"RIGHT"	369.0413671	1050.000002	n/a	n/a	n/a	n/a	n/a	n/a	n/a	"13:18.9"	"13:19.4"	5	5.8323834
"S210315"	"Response_Inhibition"	"RIGHT"	"RIGHT"	593.2998	733.3333348	n/a	n/a	n/a	n/a	n/a	n/a	n/a	"13:20.2"	"13:21.0"	6	5.8323834
"S210315"	"Response_Inhibition"	"RIGHT"	"RIGHT"	479.206	1200.000002	n/a	n/a	n/a	n/a	n/a	n/a	n/a	"13:22.2"	"13:22.9"	7	5.8323834
"S210315"	"Response_Inhibition"	"LEFT"	"LEFT"	418.8649	900.0000018	n/a	n/a	n/a	n/a	n/a	n/a	n/a	"13:23.8"	"13:24.4"	8	5.8323834
"S210315"	"Response_Inhibition"	"LEFT"	"LEFT"	389.415	1266.666669	n/a	n/a	n/a	n/a	n/a	n/a	n/a	"13:25.7"	"13:26.3"	9	5.8323834
"S210315"	"Response_Inhibition"	"RIGHT"	"RIGHT"	379.4803	1483.333336	n/a	n/a	n/a	n/a	n/a	n/a	n/a	"13:27.8"	"13:28.4"	10	5.8323834
"S210315"	"Response_Inhibition"	"RIGHT"	"RIGHT"	472.3034	583.3333345	n/a	n/a	n/a	n/a	n/a	n/a	n/a	"13:29.0"	"13:29.6"	11	5.8323834
"S210315"	"Response_Inhibition"	"LEFT"	"LEFT"	398.6942	1250.000003	n/a	n/a	n/a	n/a	n/a	n/a	n/a	"13:30.9"	"13:31.5"	12	5.8323834
"S210315"	"Response_Inhibition"	"LEFT"	"LEFT"	367.4858	1216.666669	n/a	n/a	n/a	n/a	n/a	n/a	n/a	"13:32.7"	"13:33.3"	13	5.8323834
"S210315"	"Response_Inhibition"	"LEFT"	"LEFT"	359.6019	1400.000003	n/a	n/a	n/a	n/a	n/a	n/a	n/a	"13:34.7"	"13:35.3"	14	5.8323834
"S210315"	"Response_Inhibition"	"LEFT"	"LEFT"	400.0645007	850.0000017	n/a	n/a	n/a	n/a	n/a	n/a	n/a	"13:36.1"	"13:36.7"	15	5.8323834
"S210315"	"Response_Inhibition"	"LEFT"	"LEFT"	450.2537	1150.000002	n/a	n/a	n/a	n/a	n/a	n/a	n/a	"13:37.9"	"13:38.6"	16	5.8323834
"S210315"	"Response_Inhibition"	"LEFT"	"Time_Max_Exceeded"	1500.0629	516.6666677	n/a	n/a	n/a	n/a	n/a	n/a	n/a	"13:39.1"	"13:40.6"	17	5.8323834
"S210315"	"Response_Inhibition"	"RIGHT"	"Time_Max_Exceeded"	1500.055233	1100.000002	n/a	n/a	n/a	n/a	n/a	n/a	n/a	"13:41.7"	"13:43.2"	18	5.8323834
"S210315"	"Response_Inhibition"	"LEFT"	"LEFT"	340.9497	783.3333349	n/a	n/a	n/a	n/a	n/a	n/a	n/a	"13:44.0"	"13:44.5"	19	5.8323834
"S210315"	"Response_Inhibition"	"LEFT"	"LEFT"	502.7277	583.3333345	n/a	n/a	n/a	n/a	n/a	n/a	n/a	"13:45.1"	"13:45.8"	20	5.8323834
"S210315"	"Response_Inhibition"	"RIGHT"	"RIGHT"	432.3923	1083.333336	n/a	n/a	n/a	n/a	n/a	n/a	n/a	"13:46.9"	"13:47.6"	21	5.8323834
"S210315"	"Response_Inhibition"	"LEFT"	"LEFT"	411.1803336	616.6666679	n/a	n/a	n/a	n/a	n/a	n/a	n/a	"13:48.2"	"13:48.8"	22	5.8323834
"S210315"	"Response_Inhibition"	"LEFT"	"LEFT"	569.1438	1183.333336	n/a	n/a	n/a	n/a	n/a	n/a	n/a	"13:50.0"	"13:50.8"	23	5.8323834
"S210315"	"Response_Inhibition"	"LEFT"	"LEFT"	534.1147	633.3333346	n/a	n/a	n/a	n/a	n/a	n/a	n/a	"13:51.4"	"13:52.2"	24	5.8323834
"S210315"	"Response_Inhibition"	"LEFT"	"LEFT"	446.8311	833.333335	n/a	n/a	n/a	n/a	n/a	n/a	n/a	"13:53.0"	"13:53.7"	25	5.8323834
"S210315"	"Response_Inhibition"	"RIGHT"	"RIGHT"	477.3349004	1166.666669	n/a	n/a	n/a	n/a	n/a	n/a	n/a	"13:54.9"	"13:55.5"	26	5.8323834
"S210315"	"Response_Inhibition"	"LEFT"	"LEFT"	589.3962	850.0000017	n/a	n/a	n/a	n/a	n/a	n/a	n/a	"13:56.4"	"13:57.2"	27	5.8323834
"S210315"	"Response_Inhibition"	"RIGHT"	"Time_Max_Exceeded"	1500.062867	950.0000019	n/a	n/a	n/a	n/a	n/a	n/a	n/a	"13:58.2"	"13:59.7"	28	5.8323834
"S210315"	"Response_Inhibition"	"LEFT"	"LEFT"	453.4157339	783.3333349	n/a	n/a	n/a	n/a	n/a	n/a	n/a	"14:00.5"	"14:01.1"	29	5.8323834
"S210315"	"Response_Inhibition"	"LEFT"	"Time_Max_Exceeded"	1500.207534	1033.333335	n/a	n/a	n/a	n/a	n/a	n/a	n/a	"14:02.2"	"14:03.7"	30	5.8323834
"S210315"	"Response_Inhibition"	"RIGHT"	"Time_Max_Exceeded"	1500.0523	1400.000003	n/a	n/a	n/a	n/a	n/a	n/a	n/a	"14:05.1"	"14:06.6"	31	5.8323834
"S210315"	"Response_Inhibition"	"RIGHT"	"RIGHT"	482.0558338	733.3333348	n/a	n/a	n/a	n/a	n/a	n/a	n/a	"14:07.3"	"14:08.0"	32	5.8323834
"S210315"	"Response_Inhibition"	"RIGHT"	"Time_Max_Exceeded"	1500.0533	533.3333344	n/a	n/a	n/a	n/a	n/a	n/a	n/a	"14:08.6"	"14:10.1"	33	5.8323834
"S210315"	"Response_Inhibition"	"LEFT"	"LEFT"	513.9963	1016.666669	n/a	n/a	n/a	n/a	n/a	n/a	n/a	"14:11.1"	"14:11.8"	34	5.8323834
"S210315"	"Response_Inhibition"	"RIGHT"	"RIGHT"	556.6714	683.3333347	n/a	n/a	n/a	n/a	n/a	n/a	n/a	"14:12.5"	"14:13.3"	35	5.8323834
"S210315"	"Response_Inhibition"	"LEFT"	"Time_Max_Exceeded"	1500.056401	1383.333336	n/a	n/a	n/a	n/a	n/a	n/a	n/a	"14:14.7"	"14:16.2"	36	5.8323834
"S210315"	"Response_Inhibition"	"LEFT"	"Time_Max_Exceeded"	1500.0483	1366.666669	n/a	n/a	n/a	n/a	n/a	n/a	n/a	"14:17.5"	"14:19.0"	37	5.8323834
"S210315"	"Response_Inhibition"	"LEFT"	"Time_Max_Exceeded"	1500.073033	1166.666669	n/a	n/a	n/a	n/a	n/a	n/a	n/a	"14:20.2"	"14:21.7"	38	5.8323834
"S210315"	"Response_Inhibition"	"LEFT"	"LEFT"	696.5318	1116.666669	n/a	n/a	n/a	n/a	n/a	n/a	n/a	"14:22.8"	"14:23.8"	39	5.8323834
"S210315"	"Response_Inhibition"	"RIGHT"	"RIGHT"	441.8905	1350.000003	n/a	n/a	n/a	n/a	n/a	n/a	n/a	"14:25.1"	"14:25.8"	40	5.8323834
"S210315"	"Response_Inhibition"	"RIGHT"	"RIGHT"	482.7177	716.6666681	n/a	n/a	n/a	n/a	n/a	n/a	n/a	"14:26.5"	"14:27.2"	41	5.8323834
"S210315"	"Response_Inhibition"	"LEFT"	"LEFT"	444.4446	1500.000003	n/a	n/a	n/a	n/a	n/a	n/a	n/a	"14:28.7"	"14:29.3"	42	5.8323834
"S210315"	"Response_Inhibition"	"RIGHT"	"RIGHT"	517.0228	1250.000003	n/a	n/a	n/a	n/a	n/a	n/a	n/a	"14:30.6"	"14:31.3"	43	5.8323834
"S210315"	"Response_Inhibition"	"LEFT"	"LEFT"	392.0661	966.6666686	n/a	n/a	n/a	n/a	n/a	n/a	n/a	"14:32.3"	"14:32.9"	44	5.8323834
"S210315"	"Response_Inhibition"	"LEFT"	"Time_Max_Exceeded"	1500.060067	950.0000019	n/a	n/a	n/a	n/a	n/a	n/a	n/a	"14:33.9"	"14:35.4"	45	5.8323834
"S210315"	"Response_Inhibition"	"RIGHT"	"RIGHT"	395.5747339	1283.333336	n/a	n/a	n/a	n/a	n/a	n/a	n/a	"14:36.6"	"14:37.3"	46	5.8323834
"S210315"	"Response_Inhibition"	"LEFT"	"LEFT"	648.609	950.0000019	n/a	n/a	n/a	n/a	n/a	n/a	n/a	"14:38.2"	"14:39.1"	47	5.8323834
"S210315"	"Response_Inhibition"	"LEFT"	"LEFT"	464.1862	566.6666678	n/a	n/a	n/a	n/a	n/a	n/a	n/a	"14:39.6"	"14:40.3"	48	5.8323834
"S210315"	"Response_Inhibition"	"LEFT"	"LEFT"	407.2007	1000.000002	n/a	n/a	n/a	n/a	n/a	n/a	n/a	"14:41.3"	"14:41.9"	49	5.8323834
"S210315"	"Response_Inhibition"	"LEFT"	"LEFT"	405.0542	666.666668	n/a	n/a	n/a	n/a	n/a	n/a	n/a	"14:42.6"	"14:43.2"	50	5.8323834
"S210315"	"Response_Inhibition"	"RIGHT"	"RIGHT"	550.2484	1416.66667	n/a	n/a	n/a	n/a	n/a	n/a	n/a	"14:44.7"	"14:45.4"	51	5.8323834
"S210315"	"Response_Inhibition"	"RIGHT"	"RIGHT"	452.3653673	1366.666669	n/a	n/a	n/a	n/a	n/a	n/a	n/a	"14:46.8"	"14:47.5"	52	5.8323834
"S210315"	"Response_Inhibition"	"RIGHT"	"Time_Max_Exceeded"	1500.060567	1183.333336	n/a	n/a	n/a	n/a	n/a	n/a	n/a	"14:48.6"	"14:50.2"	53	5.8323834
"S210315"	"Response_Inhibition"	"LEFT"	"LEFT"	435.6954	1450.000003	n/a	n/a	n/a	n/a	n/a	n/a	n/a	"14:51.6"	"14:52.3"	54	5.8323834
"S210315"	"Response_Inhibition"	"RIGHT"	"RIGHT"	478.5102	1000.000002	n/a	n/a	n/a	n/a	n/a	n/a	n/a	"14:53.3"	"14:54.0"	55	5.8323834
"S210315"	"Response_Inhibition"	"RIGHT"	"Time_Max_Exceeded"	1500.053633	616.6666679	n/a	n/a	n/a	n/a	n/a	n/a	n/a	"14:54.6"	"14:56.1"	56	5.8323834
"S210315"	"Response_Inhibition"	"LEFT"	"Time_Max_Exceeded"	1500.0481	700.0000014	n/a	n/a	n/a	n/a	n/a	n/a	n/a	"14:56.8"	"14:58.3"	57	5.8323834
"S210315"	"Response_Inhibition"	"RIGHT"	"Time_Max_Exceeded"	1500.062	1016.666669	n/a	n/a	n/a	n/a	n/a	n/a	n/a	"14:59.3"	"15:00.8"	58	5.8323834
"S210315"	"Response_Inhibition"	"LEFT"	"LEFT"	395.1568	1316.666669	n/a	n/a	n/a	n/a	n/a	n/a	n/a	"15:02.1"	"15:02.8"	59	5.8323834
"S210315"	"Response_Inhibition"	"LEFT"	"LEFT"	367.2997	1000.000002	n/a	n/a	n/a	n/a	n/a	n/a	n/a	"15:03.8"	"15:04.3"	60	5.8323834
"S210315"	"Response_Inhibition"	"RIGHT"	"Time_Max_Exceeded"	1500.071367	1316.666669	n/a	n/a	n/a	n/a	n/a	n/a	n/a	"15:05.7"	"15:07.2"	61	5.8323834
"S210315"	"Response_Inhibition"	"RIGHT"	"RIGHT"	660.4934	766.6666682	n/a	n/a	n/a	n/a	n/a	n/a	n/a	"15:07.9"	"15:08.8"	62	5.8323834
"S210315"	"Response_Inhibition"	"RIGHT"	"RIGHT"	673.1534	533.3333344	n/a	n/a	n/a	n/a	n/a	n/a	n/a	"15:09.3"	"15:10.2"	63	5.8323834
"S210315"	"Response_Inhibition"	"RIGHT"	"RIGHT"	454.6589007	950.0000019	n/a	n/a	n/a	n/a	n/a	n/a	n/a	"15:11.2"	"15:11.9"	64	5.8323834
"S210315"	"Response_Inhibition"	"RIGHT"	"RIGHT"	599.4361	600.0000012	n/a	n/a	n/a	n/a	n/a	n/a	n/a	"15:12.5"	"15:13.3"	65	5.8323834
"S210315"	"Response_Inhibition"	"RIGHT"	"RIGHT"	484.8624	1433.333336	n/a	n/a	n/a	n/a	n/a	n/a	n/a	"15:14.7"	"15:15.4"	66	5.8323834
"S210315"	"Response_Inhibition"	"RIGHT"	"RIGHT"	399.9413	1150.000002	n/a	n/a	n/a	n/a	n/a	n/a	n/a	"15:16.6"	"15:17.2"	67	5.8323834
"S210315"	"Response_Inhibition"	"LEFT"	"LEFT"	361.0627	1350.000003	n/a	n/a	n/a	n/a	n/a	n/a	n/a	"15:18.5"	"15:19.1"	68	5.8323834
"S210315"	"Response_Inhibition"	"LEFT"	"LEFT"	436.9286	1266.666669	n/a	n/a	n/a	n/a	n/a	n/a	n/a	"15:20.4"	"15:21.0"	69	5.8323834
"S210315"	"Response_Inhibition"	"RIGHT"	"RIGHT"	373.5066	1050.000002	n/a	n/a	n/a	n/a	n/a	n/a	n/a	"15:22.1"	"15:22.7"	70	5.8323834
"S210315"	"Response_Inhibition"	"RIGHT"	"Time_Max_Exceeded"	1500.052467	1100.000002	n/a	n/a	n/a	n/a	n/a	n/a	n/a	"15:23.8"	"15:25.3"	71	5.8323834
"S210315"	"Response_Inhibition"	"RIGHT"	"Time_Max_Exceeded"	1500.051667	850.0000017	n/a	n/a	n/a	n/a	n/a	n/a	n/a	"15:26.1"	"15:27.6"	72	5.8323834
"S210315"	"Response_Inhibition"	"LEFT"	"LEFT"	418.9382	1300.000003	n/a	n/a	n/a	n/a	n/a	n/a	n/a	"15:28.9"	"15:29.6"	73	5.8323834
"S210315"	"Response_Inhibition"	"RIGHT"	"RIGHT"	520.206534	516.6666677	n/a	n/a	n/a	n/a	n/a	n/a	n/a	"15:30.1"	"15:30.8"	74	5.8323834
"S210315"	"Response_Inhibition"	"LEFT"	"LEFT"	586.68	500.000001	n/a	n/a	n/a	n/a	n/a	n/a	n/a	"15:31.3"	"15:32.1"	75	5.8323834
"S210315"	"Response_Inhibition"	"RIGHT"	"RIGHT"	496.9712	550.0000011	n/a	n/a	n/a	n/a	n/a	n/a	n/a	"15:32.7"	"15:33.4"	76	5.8323834
"S210315"	"Response_Inhibition"	"LEFT"	"LEFT"	345.007	1366.666669	n/a	n/a	n/a	n/a	n/a	n/a	n/a	"15:34.8"	"15:35.3"	77	5.8323834
"S210315"	"Response_Inhibition"	"RIGHT"	"RIGHT"	561.1701	933.3333352	n/a	n/a	n/a	n/a	n/a	n/a	n/a	"15:36.3"	"15:37.0"	78	5.8323834
"S210315"	"Response_Inhibition"	"RIGHT"	"RIGHT"	541.3655	866.6666684	n/a	n/a	n/a	n/a	n/a	n/a	n/a	"15:37.9"	"15:38.7"	79	5.8323834
"S210315"	"Response_Inhibition"	"LEFT"	"LEFT"	541.8317	600.0000012	n/a	n/a	n/a	n/a	n/a	n/a	n/a	"15:39.3"	"15:40.0"	80	5.8323834
"S210315"	"Response_Inhibition"	"RIGHT"	"RIGHT"	386.9985	1333.333336	n/a	n/a	n/a	n/a	n/a	n/a	n/a	"15:41.4"	"15:42.0"	81	5.8323834
"S210315"	"Response_Inhibition"	"LEFT"	"Time_Max_Exceeded"	1500.055467	1133.333336	n/a	n/a	n/a	n/a	n/a	n/a	n/a	"15:43.1"	"15:44.6"	82	5.8323834
"S210315"	"Response_Inhibition"	"LEFT"	"LEFT"	481.0344	933.3333352	n/a	n/a	n/a	n/a	n/a	n/a	n/a	"15:45.5"	"15:46.2"	83	5.8323834
"S210315"	"Response_Inhibition"	"LEFT"	"LEFT"	437.4785006	683.3333347	n/a	n/a	n/a	n/a	n/a	n/a	n/a	"15:46.9"	"15:47.6"	84	5.8323834
"S210315"	"Response_Inhibition"	"LEFT"	"Time_Max_Exceeded"	1500.0846	1066.666669	n/a	n/a	n/a	n/a	n/a	n/a	n/a	"15:48.7"	"15:50.2"	85	5.8323834
"S210315"	"Response_Inhibition"	"LEFT"	"LEFT"	803.1959	1083.333336	n/a	n/a	n/a	n/a	n/a	n/a	n/a	"15:51.3"	"15:52.3"	86	5.8323834
"S210315"	"Response_Inhibition"	"LEFT"	"LEFT"	521.6808673	1233.333336	n/a	n/a	n/a	n/a	n/a	n/a	n/a	"15:53.5"	"15:54.3"	87	5.8323834
"S210315"	"Response_Inhibition"	"LEFT"	"LEFT"	1098.6621	1333.333336	n/a	n/a	n/a	n/a	n/a	n/a	n/a	"15:55.6"	"15:56.9"	88	5.8323834
"S210315"	"Response_Inhibition"	"LEFT"	"LEFT"	573.6854	1050.000002	n/a	n/a	n/a	n/a	n/a	n/a	n/a	"15:58.0"	"15:58.7"	89	5.8323834
"S210315"	"Response_Inhibition"	"LEFT"	"LEFT"	515.1648	883.3333351	n/a	n/a	n/a	n/a	n/a	n/a	n/a	"15:59.6"	"16:00.4"	90	5.8323834
"S210315"	"Response_Inhibition"	"RIGHT"	"RIGHT"	558.1661	633.3333346	n/a	n/a	n/a	n/a	n/a	n/a	n/a	"16:01.0"	"16:01.8"	91	5.8323834
"S210315"	"Response_Inhibition"	"RIGHT"	"RIGHT"	595.3159	1450.000003	n/a	n/a	n/a	n/a	n/a	n/a	n/a	"16:03.2"	"16:04.0"	92	5.8323834
"S210315"	"Response_Inhibition"	"RIGHT"	"RIGHT"	505.817	916.6666685	n/a	n/a	n/a	n/a	n/a	n/a	n/a	"16:05.0"	"16:05.7"	93	5.8323834
"S210315"	"Response_Inhibition"	"RIGHT"	"RIGHT"	468.9904	1266.666669	n/a	n/a	n/a	n/a	n/a	n/a	n/a	"16:06.9"	"16:07.6"	94	5.8323834
"S210315"	"Response_Inhibition"	"RIGHT"	"Time_Max_Exceeded"	1500.063067	1500.000003	n/a	n/a	n/a	n/a	n/a	n/a	n/a	"16:09.1"	"16:10.6"	95	5.8323834
"S210315"	"Response_Inhibition"	"RIGHT"	"Time_Max_Exceeded"	1500.0583	1233.333336	n/a	n/a	n/a	n/a	n/a	n/a	n/a	"16:11.9"	"16:13.4"	96	5.8323834
"S210315"	"Response_Inhibition"	"LEFT"	"LEFT"	518.3267	816.6666683	n/a	n/a	n/a	n/a	n/a	n/a	n/a	"16:14.2"	"16:14.9"	97	5.8323834
"S210315"	"Response_Inhibition"	"LEFT"	"LEFT"	545.1743	766.6666682	n/a	n/a	n/a	n/a	n/a	n/a	n/a	"16:15.7"	"16:16.5"	98	5.8323834
"S210315"	"Response_Inhibition"	"RIGHT"	"Time_Max_Exceeded"	1500.0533	783.3333349	n/a	n/a	n/a	n/a	n/a	n/a	n/a	"16:17.3"	"16:18.8"	99	5.8323834
"S210315"	"Response_Inhibition"	"RIGHT"	"RIGHT"	498.9735	1316.666669	n/a	n/a	n/a	n/a	n/a	n/a	n/a	"16:20.1"	"16:20.8"	100	5.8323834
"S210315"	"Response_Inhibition"	"RIGHT"	"RIGHT"	536.5657	783.3333349	n/a	n/a	n/a	n/a	n/a	n/a	n/a	"16:21.6"	"16:22.3"	101	5.8323834
"S210315"	"Response_Inhibition"	"RIGHT"	"RIGHT"	548.1767	1300.000003	n/a	n/a	n/a	n/a	n/a	n/a	n/a	"16:23.6"	"16:24.4"	102	5.8323834
"S210315"	"Response_Inhibition"	"RIGHT"	"RIGHT"	558.6711	800.0000016	n/a	n/a	n/a	n/a	n/a	n/a	n/a	"16:25.2"	"16:26.0"	103	5.8323834
"S210315"	"Response_Inhibition"	"RIGHT"	"RIGHT"	432.4902	983.3333353	n/a	n/a	n/a	n/a	n/a	n/a	n/a	"16:27.0"	"16:27.6"	104	5.8323834
"S210315"	"Response_Inhibition"	"LEFT"	"LEFT"	423.3676	1416.66667	n/a	n/a	n/a	n/a	n/a	n/a	n/a	"16:29.0"	"16:29.7"	105	5.8323834
"S210315"	"Response_Inhibition"	"RIGHT"	"RIGHT"	361.6566	1150.000002	n/a	n/a	n/a	n/a	n/a	n/a	n/a	"16:30.8"	"16:31.4"	106	5.8323834
"S210315"	"Response_Inhibition"	"LEFT"	"LEFT"	538.5792	733.3333348	n/a	n/a	n/a	n/a	n/a	n/a	n/a	"16:32.1"	"16:32.9"	107	5.8323834
"S210315"	"Response_Inhibition"	"RIGHT"	"RIGHT"	484.2847	1266.666669	n/a	n/a	n/a	n/a	n/a	n/a	n/a	"16:34.1"	"16:34.8"	108	5.8323834
"S210315"	"Response_Inhibition"	"RIGHT"	"RIGHT"	383.0527	1216.666669	n/a	n/a	n/a	n/a	n/a	n/a	n/a	"16:36.1"	"16:36.7"	109	5.8323834
"S210315"	"Response_Inhibition"	"LEFT"	"LEFT"	498.2505	916.6666685	n/a	n/a	n/a	n/a	n/a	n/a	n/a	"16:37.6"	"16:38.3"	110	5.8323834
"S210315"	"Response_Inhibition"	"LEFT"	"LEFT"	406.8312005	1316.666669	n/a	n/a	n/a	n/a	n/a	n/a	n/a	"16:39.6"	"16:40.2"	111	5.8323834
"S210315"	"Response_Inhibition"	"LEFT"	"LEFT"	519.441	800.0000016	n/a	n/a	n/a	n/a	n/a	n/a	n/a	"16:41.0"	"16:41.8"	112	5.8323834
"S210315"	"Response_Inhibition"	"LEFT"	"LEFT"	408.0143669	1283.333336	n/a	n/a	n/a	n/a	n/a	n/a	n/a	"16:43.1"	"16:43.7"	113	5.8323834
"S210315"	"Response_Inhibition"	"RIGHT"	"RIGHT"	579.0271	1116.666669	n/a	n/a	n/a	n/a	n/a	n/a	n/a	"16:44.8"	"16:45.6"	114	5.8323834
"S210315"	"Response_Inhibition"	"LEFT"	"LEFT"	389.4707	1050.000002	n/a	n/a	n/a	n/a	n/a	n/a	n/a	"16:46.7"	"16:47.2"	115	5.8323834
"S210315"	"Response_Inhibition"	"RIGHT"	"RIGHT"	545.8047006	666.666668	n/a	n/a	n/a	n/a	n/a	n/a	n/a	"16:47.9"	"16:48.7"	116	5.8323834
"S210315"	"Response_Inhibition"	"RIGHT"	"Time_Max_Exceeded"	1500.053567	583.3333345	n/a	n/a	n/a	n/a	n/a	n/a	n/a	"16:49.3"	"16:50.8"	117	5.8323834
"S210315"	"Response_Inhibition"	"RIGHT"	"Time_Max_Exceeded"	1500.053467	900.0000018	n/a	n/a	n/a	n/a	n/a	n/a	n/a	"16:51.7"	"16:53.2"	118	5.8323834
"S210315"	"Response_Inhibition"	"RIGHT"	"RIGHT"	695.1335	1466.66667	n/a	n/a	n/a	n/a	n/a	n/a	n/a	"16:54.7"	"16:55.6"	119	5.8323834
"S210315"	"Response_Inhibition"	"RIGHT"	"RIGHT"	608.4005	966.6666686	n/a	n/a	n/a	n/a	n/a	n/a	n/a	"16:56.5"	"16:57.4"	120	5.8323834
"S210315"	"Response_Inhibition"	"RIGHT"	"Time_Max_Exceeded"	1500.061334	1416.66667	n/a	n/a	n/a	n/a	n/a	n/a	n/a	"16:58.8"	"17:00.3"	121	5.8323834
"S210315"	"Response_Inhibition"	"LEFT"	"LEFT"	579.6259	683.3333347	n/a	n/a	n/a	n/a	n/a	n/a	n/a	"17:01.0"	"17:01.8"	122	5.8323834
"S210315"	"Response_Inhibition"	"RIGHT"	"RIGHT"	600.4453	750.0000015	n/a	n/a	n/a	n/a	n/a	n/a	n/a	"17:02.5"	"17:03.3"	123	5.8323834
"S210315"	"Response_Inhibition"	"RIGHT"	"RIGHT"	606.6349	1000.000002	n/a	n/a	n/a	n/a	n/a	n/a	n/a	"17:04.3"	"17:05.2"	124	5.8323834
"S210315"	"Response_Inhibition"	"RIGHT"	"RIGHT"	511.303	566.6666678	n/a	n/a	n/a	n/a	n/a	n/a	n/a	"17:05.7"	"17:06.5"	125	5.8323834
"S210315"	"Response_Inhibition"	"LEFT"	"LEFT"	545.7893	533.3333344	n/a	n/a	n/a	n/a	n/a	n/a	n/a	"17:07.0"	"17:07.8"	126	5.8323834
"S210315"	"Response_Inhibition"	"LEFT"	"LEFT"	460.2901	1100.000002	n/a	n/a	n/a	n/a	n/a	n/a	n/a	"17:08.9"	"17:09.5"	127	5.8323834
"S210315"	"Response_Inhibition"	"RIGHT"	"RIGHT"	416.4498	1383.333336	n/a	n/a	n/a	n/a	n/a	n/a	n/a	"17:10.9"	"17:11.5"	128	5.8323834
"S210315"	"Response_Inhibition"	"LEFT"	"LEFT"	641.8859	533.3333344	n/a	n/a	n/a	n/a	n/a	n/a	n/a	"17:12.1"	"17:12.9"	129	5.8323834
"S210315"	"Response_Inhibition"	"RIGHT"	"Time_Max_Exceeded"	1500.057034	1466.66667	n/a	n/a	n/a	n/a	n/a	n/a	n/a	"17:14.4"	"17:15.9"	130	5.8323834
"S210315"	"Response_Inhibition"	"RIGHT"	"RIGHT"	464.6038	883.3333351	n/a	n/a	n/a	n/a	n/a	n/a	n/a	"17:16.8"	"17:17.5"	131	5.8323834
"S210315"	"Response_Inhibition"	"RIGHT"	"RIGHT"	556.3396	850.0000017	n/a	n/a	n/a	n/a	n/a	n/a	n/a	"17:18.3"	"17:19.1"	132	5.8323834
"S210315"	"Response_Inhibition"	"LEFT"	"LEFT"	381.6331	1433.333336	n/a	n/a	n/a	n/a	n/a	n/a	n/a	"17:20.5"	"17:21.1"	133	5.8323834
"S210315"	"Response_Inhibition"	"LEFT"	"LEFT"	352.7066	750.0000015	n/a	n/a	n/a	n/a	n/a	n/a	n/a	"17:21.9"	"17:22.5"	134	5.8323834
"S210315"	"Response_Inhibition"	"LEFT"	"LEFT"	376.1076337	650.0000013	n/a	n/a	n/a	n/a	n/a	n/a	n/a	"17:23.1"	"17:23.7"	135	5.8323834
"S210315"	"Response_Inhibition"	"LEFT"	"Time_Max_Exceeded"	1500.058167	1200.000002	n/a	n/a	n/a	n/a	n/a	n/a	n/a	"17:24.9"	"17:26.4"	136	5.8323834
"S210315"	"Response_Inhibition"	"LEFT"	"LEFT"	478.7474673	900.0000018	n/a	n/a	n/a	n/a	n/a	n/a	n/a	"17:27.3"	"17:28.0"	137	5.8323834
"S210315"	"Response_Inhibition"	"LEFT"	"Time_Max_Exceeded"	1500.077234	866.6666684	n/a	n/a	n/a	n/a	n/a	n/a	n/a	"17:28.9"	"17:30.4"	138	5.8323834
"S210315"	"Response_Inhibition"	"LEFT"	"LEFT"	486.095	1150.000002	n/a	n/a	n/a	n/a	n/a	n/a	n/a	"17:31.6"	"17:32.2"	139	5.8323834
"S210315"	"Response_Inhibition"	"LEFT"	"LEFT"	561.4199	550.0000011	n/a	n/a	n/a	n/a	n/a	n/a	n/a	"17:32.8"	"17:33.6"	140	5.8323834
"S210315"	"Response_Inhibition"	"RIGHT"	"RIGHT"	505.464	1133.333336	n/a	n/a	n/a	n/a	n/a	n/a	n/a	"17:34.7"	"17:35.4"	141	5.8323834
"S210315"	"Response_Inhibition"	"LEFT"	"LEFT"	485.9058	633.3333346	n/a	n/a	n/a	n/a	n/a	n/a	n/a	"17:36.1"	"17:36.8"	142	5.8323834
"S210315"	"Response_Inhibition"	"RIGHT"	"RIGHT"	494.2471	1216.666669	n/a	n/a	n/a	n/a	n/a	n/a	n/a	"17:38.0"	"17:38.7"	143	5.8323834
"S210315"	"Response_Inhibition"	"LEFT"	"LEFT"	434.3712	716.6666681	n/a	n/a	n/a	n/a	n/a	n/a	n/a	"17:39.4"	"17:40.1"	144	5.8323834
"S210315"	"Response_Inhibition"	"LEFT"	"Time_Max_Exceeded"	1500.110067	733.3333348	n/a	n/a	n/a	n/a	n/a	n/a	n/a	"17:40.8"	"17:42.3"	145	5.8323834
"S210315"	"Response_Inhibition"	"RIGHT"	"RIGHT"	576.0674	833.333335	n/a	n/a	n/a	n/a	n/a	n/a	n/a	"17:43.2"	"17:43.9"	146	5.8323834
"S210315"	"Response_Inhibition"	"RIGHT"	"RIGHT"	533.4139	1033.333335	n/a	n/a	n/a	n/a	n/a	n/a	n/a	"17:45.0"	"17:45.7"	147	5.8323834
"S210315"	"Response_Inhibition"	"LEFT"	"LEFT"	659.8585	1466.66667	n/a	n/a	n/a	n/a	n/a	n/a	n/a	"17:47.2"	"17:48.1"	148	5.8323834
"S210315"	"Response_Inhibition"	"LEFT"	"Time_Max_Exceeded"	1500.056767	1100.000002	n/a	n/a	n/a	n/a	n/a	n/a	n/a	"17:49.2"	"17:50.7"	149	5.8323834
"S210315"	"Response_Inhibition"	"LEFT"	"Time_Max_Exceeded"	1500.0878	583.3333345	n/a	n/a	n/a	n/a	n/a	n/a	n/a	"17:51.3"	"17:52.8"	150	5.8323834
"S210315"	"Response_Inhibition"	"RIGHT"	"RIGHT"	519.2052	500.000001	n/a	n/a	n/a	n/a	n/a	n/a	n/a	"17:53.3"	"17:54.0"	151	5.8323834
"S210315"	"Response_Inhibition"	"LEFT"	"LEFT"	476.6359	1483.333336	n/a	n/a	n/a	n/a	n/a	n/a	n/a	"17:55.5"	"17:56.2"	152	5.8323834
"S210315"	"Response_Inhibition"	"LEFT"	"Time_Max_Exceeded"	1500.0619	983.3333353	n/a	n/a	n/a	n/a	n/a	n/a	n/a	"17:57.2"	"17:58.7"	153	5.8323834
"S210315"	"Response_Inhibition"	"RIGHT"	"Time_Max_Exceeded"	1500.104034	700.0000014	n/a	n/a	n/a	n/a	n/a	n/a	n/a	"17:59.4"	"18:00.9"	154	5.8323834
"S210315"	"Response_Inhibition"	"RIGHT"	"RIGHT"	554.631434	816.6666683	n/a	n/a	n/a	n/a	n/a	n/a	n/a	"18:01.7"	"18:02.5"	155	5.8323834
"S210315"	"Response_Inhibition"	"RIGHT"	"RIGHT"	724.8759	633.3333346	n/a	n/a	n/a	n/a	n/a	n/a	n/a	"18:03.1"	"18:04.1"	156	5.8323834
"S210315"	"Response_Inhibition"	"LEFT"	"LEFT"	638.8498	1216.666669	n/a	n/a	n/a	n/a	n/a	n/a	n/a	"18:05.3"	"18:06.1"	157	5.8323834
"S210315"	"Response_Inhibition"	"RIGHT"	"RIGHT"	748.1898	683.3333347	n/a	n/a	n/a	n/a	n/a	n/a	n/a	"18:06.8"	"18:07.8"	158	5.8323834
"S210315"	"Response_Inhibition"	"RIGHT"	"RIGHT"	594.8015	900.0000018	n/a	n/a	n/a	n/a	n/a	n/a	n/a	"18:08.7"	"18:09.5"	159	5.8323834
"S210315"	"Response_Inhibition"	"LEFT"	"Time_Max_Exceeded"	1500.074134	1466.66667	n/a	n/a	n/a	n/a	n/a	n/a	n/a	"18:11.0"	"18:12.5"	160	5.8323834
"S210315"	"Response_Selection"	"LEFT"	"LEFT"	395.8565	1466.66667	""	n/a	n/a	n/a	n/a	n/a	n/a	"10:17.6"	"10:18.2"	1	3.138118883
"S210315"	"Response_Selection"	"LEFT"	"LEFT"	344.3956	583.3333345	""	n/a	n/a	n/a	n/a	n/a	n/a	"10:18.8"	"10:19.4"	2	3.138118883
"S210315"	"Response_Selection"	"RIGHT"	"RIGHT"	300.2006	1266.666669	""	n/a	n/a	n/a	n/a	n/a	n/a	"10:20.6"	"10:21.1"	3	3.138118883
"S210315"	"Response_Selection"	"RIGHT"	"RIGHT"	396.7868	1083.333336	""	n/a	n/a	n/a	n/a	n/a	n/a	"10:22.2"	"10:22.8"	4	3.138118883
"S210315"	"Response_Selection"	"RIGHT"	"RIGHT"	309.1441	1450.000003	""	n/a	n/a	n/a	n/a	n/a	n/a	"10:24.3"	"10:24.8"	5	3.138118883
"S210315"	"Response_Selection"	"RIGHT"	"RIGHT"	375.7027	1400.000003	""	n/a	n/a	n/a	n/a	n/a	n/a	"10:26.2"	"10:26.8"	6	3.138118883
"S210315"	"Response_Selection"	"LEFT"	"LEFT"	411.8115	866.6666684	""	n/a	n/a	n/a	n/a	n/a	n/a	"10:27.7"	"10:28.3"	7	3.138118883
"S210315"	"Response_Selection"	"LEFT"	"LEFT"	352.7006	1350.000003	""	n/a	n/a	n/a	n/a	n/a	n/a	"10:29.7"	"10:30.2"	8	3.138118883
"S210315"	"Response_Selection"	"LEFT"	"LEFT"	283.3577	1316.666669	""	n/a	n/a	n/a	n/a	n/a	n/a	"10:31.5"	"10:32.0"	9	3.138118883
"S210315"	"Response_Selection"	"LEFT"	"LEFT"	300.8177	1450.000003	""	n/a	n/a	n/a	n/a	n/a	n/a	"10:33.5"	"10:34.0"	10	3.138118883
"S210315"	"Response_Selection"	"LEFT"	"LEFT"	388.5526	1300.000003	""	n/a	n/a	n/a	n/a	n/a	n/a	"10:35.3"	"10:35.9"	11	3.138118883
"S210315"	"Response_Selection"	"LEFT"	"LEFT"	337.1413	933.3333352	""	n/a	n/a	n/a	n/a	n/a	n/a	"10:36.8"	"10:37.4"	12	3.138118883
"S210315"	"Response_Selection"	"RIGHT"	"RIGHT"	413.7103	1033.333335	""	n/a	n/a	n/a	n/a	n/a	n/a	"10:38.4"	"10:39.1"	13	3.138118883
"S210315"	"Response_Selection"	"LEFT"	"LEFT"	354.2494	916.6666685	""	n/a	n/a	n/a	n/a	n/a	n/a	"10:40.0"	"10:40.5"	14	3.138118883
"S210315"	"Response_Selection"	"LEFT"	"LEFT"	450.4282	1500.000003	""	n/a	n/a	n/a	n/a	n/a	n/a	"10:42.1"	"10:42.7"	15	3.138118883
"S210315"	"Response_Selection"	"LEFT"	"LEFT"	373.7407	1033.333335	""	n/a	n/a	n/a	n/a	n/a	n/a	"10:43.8"	"10:44.3"	16	3.138118883
"S210315"	"Response_Selection"	"RIGHT"	"RIGHT"	457.4925	550.0000011	""	n/a	n/a	n/a	n/a	n/a	n/a	"10:44.9"	"10:45.6"	17	3.138118883
"S210315"	"Response_Selection"	"LEFT"	"LEFT"	289.3494	783.3333349	""	n/a	n/a	n/a	n/a	n/a	n/a	"10:46.4"	"10:46.8"	18	3.138118883
"S210315"	"Response_Selection"	"LEFT"	"LEFT"	343.3326	966.6666686	""	n/a	n/a	n/a	n/a	n/a	n/a	"10:47.8"	"10:48.4"	19	3.138118883
"S210315"	"Response_Selection"	"RIGHT"	"RIGHT"	329.5899	733.3333348	""	n/a	n/a	n/a	n/a	n/a	n/a	"10:49.1"	"10:49.7"	20	3.138118883
"S210315"	"Response_Selection"	"LEFT"	"LEFT"	297.371	1166.666669	""	n/a	n/a	n/a	n/a	n/a	n/a	"10:50.8"	"10:51.3"	21	3.138118883
"S210315"	"Response_Selection"	"LEFT"	"LEFT"	330.6648	733.3333348	""	n/a	n/a	n/a	n/a	n/a	n/a	"10:52.1"	"10:52.6"	22	3.138118883
"S210315"	"Response_Selection"	"LEFT"	"LEFT"	348.3898	700.0000014	""	n/a	n/a	n/a	n/a	n/a	n/a	"10:53.3"	"10:53.9"	23	3.138118883
"S210315"	"Response_Selection"	"RIGHT"	"RIGHT"	280.0013	983.3333353	""	n/a	n/a	n/a	n/a	n/a	n/a	"10:54.9"	"10:55.4"	24	3.138118883
"S210315"	"Response_Selection"	"LEFT"	"LEFT"	401.4069	533.3333344	""	n/a	n/a	n/a	n/a	n/a	n/a	"10:55.9"	"10:56.5"	25	3.138118883
"S210315"	"Response_Selection"	"RIGHT"	"RIGHT"	427.0606	1500.000003	""	n/a	n/a	n/a	n/a	n/a	n/a	"10:58.0"	"10:58.7"	26	3.138118883
"S210315"	"Response_Selection"	"LEFT"	"LEFT"	465.6638	1116.666669	""	n/a	n/a	n/a	n/a	n/a	n/a	"10:59.8"	"11:00.5"	27	3.138118883
"S210315"	"Response_Selection"	"RIGHT"	"RIGHT"	488.9407	1350.000003	""	n/a	n/a	n/a	n/a	n/a	n/a	"11:01.8"	"11:02.5"	28	3.138118883
"S210315"	"Response_Selection"	"RIGHT"	"RIGHT"	393.4265	1133.333336	""	n/a	n/a	n/a	n/a	n/a	n/a	"11:03.7"	"11:04.3"	29	3.138118883
"S210315"	"Response_Selection"	"RIGHT"	"RIGHT"	291.8688	1066.666669	""	n/a	n/a	n/a	n/a	n/a	n/a	"11:05.3"	"11:05.8"	30	3.138118883
"S210315"	"Response_Selection"	"LEFT"	"LEFT"	329.119	750.0000015	""	n/a	n/a	n/a	n/a	n/a	n/a	"11:06.6"	"11:07.1"	31	3.138118883
"S210315"	"Response_Selection"	"RIGHT"	"RIGHT"	305.2902	750.0000015	""	n/a	n/a	n/a	n/a	n/a	n/a	"11:07.9"	"11:08.4"	32	3.138118883
"S210315"	"Response_Selection"	"LEFT"	"LEFT"	285.7837	1266.666669	""	n/a	n/a	n/a	n/a	n/a	n/a	"11:09.7"	"11:10.2"	33	3.138118883
"S210315"	"Response_Selection"	"LEFT"	"LEFT"	405.9319	633.3333346	""	n/a	n/a	n/a	n/a	n/a	n/a	"11:10.8"	"11:11.4"	34	3.138118883
"S210315"	"Response_Selection"	"RIGHT"	"RIGHT"	267.0028	1116.666669	""	n/a	n/a	n/a	n/a	n/a	n/a	"11:12.5"	"11:13.0"	35	3.138118883
"S210315"	"Response_Selection"	"RIGHT"	"RIGHT"	353.0267	966.6666686	""	n/a	n/a	n/a	n/a	n/a	n/a	"11:14.0"	"11:14.6"	36	3.138118883
"S210315"	"Response_Selection"	"LEFT"	"LEFT"	350.1207	1216.666669	""	n/a	n/a	n/a	n/a	n/a	n/a	"11:15.8"	"11:16.3"	37	3.138118883
"S210315"	"Response_Selection"	"LEFT"	"LEFT"	447.7291	1366.666669	""	n/a	n/a	n/a	n/a	n/a	n/a	"11:17.7"	"11:18.4"	38	3.138118883
"S210315"	"Response_Selection"	"RIGHT"	"RIGHT"	394.074	533.3333344	""	n/a	n/a	n/a	n/a	n/a	n/a	"11:18.9"	"11:19.5"	39	3.138118883
"S210315"	"Response_Selection"	"RIGHT"	"RIGHT"	408.8785	583.3333345	""	n/a	n/a	n/a	n/a	n/a	n/a	"11:20.1"	"11:20.7"	40	3.138118883
"S210315"	"Response_Selection"	"RIGHT"	"RIGHT"	436.4439	1466.66667	""	n/a	n/a	n/a	n/a	n/a	n/a	"11:22.2"	"11:22.8"	41	3.138118883
"S210315"	"Response_Selection"	"RIGHT"	"RIGHT"	347.4984	883.3333351	""	n/a	n/a	n/a	n/a	n/a	n/a	"11:23.7"	"11:24.3"	42	3.138118883
"S210315"	"Response_Selection"	"RIGHT"	"RIGHT"	405.7064	600.0000012	""	n/a	n/a	n/a	n/a	n/a	n/a	"11:24.9"	"11:25.5"	43	3.138118883
"S210315"	"Response_Selection"	"LEFT"	"LEFT"	351.0247	1400.000003	""	n/a	n/a	n/a	n/a	n/a	n/a	"11:26.9"	"11:27.5"	44	3.138118883
"S210315"	"Response_Selection"	"RIGHT"	"RIGHT"	371.2422	1316.666669	""	n/a	n/a	n/a	n/a	n/a	n/a	"11:28.8"	"11:29.4"	45	3.138118883
"S210315"	"Response_Selection"	"RIGHT"	"RIGHT"	373.2694	1250.000003	""	n/a	n/a	n/a	n/a	n/a	n/a	"11:30.7"	"11:31.2"	46	3.138118883
"S210315"	"Response_Selection"	"LEFT"	"LEFT"	309.1543	1066.666669	""	n/a	n/a	n/a	n/a	n/a	n/a	"11:32.3"	"11:32.8"	47	3.138118883
"S210315"	"Response_Selection"	"RIGHT"	"RIGHT"	339.599	700.0000014	""	n/a	n/a	n/a	n/a	n/a	n/a	"11:33.5"	"11:34.1"	48	3.138118883
"S210315"	"Response_Selection"	"LEFT"	"LEFT"	414.2713	650.0000013	""	n/a	n/a	n/a	n/a	n/a	n/a	"11:34.7"	"11:35.4"	49	3.138118883
"S210315"	"Response_Selection"	"LEFT"	"LEFT"	455.2871	1416.66667	""	n/a	n/a	n/a	n/a	n/a	n/a	"11:36.8"	"11:37.4"	50	3.138118883
"S210315"	"Response_Selection"	"RIGHT"	"RIGHT"	296.2358	800.0000016	""	n/a	n/a	n/a	n/a	n/a	n/a	"11:38.3"	"11:38.8"	51	3.138118883
"S210315"	"Response_Selection"	"LEFT"	"LEFT"	366.79	600.0000012	""	n/a	n/a	n/a	n/a	n/a	n/a	"11:39.4"	"11:39.9"	52	3.138118883
"S210315"	"Response_Selection"	"LEFT"	"LEFT"	386.1555	1133.333336	""	n/a	n/a	n/a	n/a	n/a	n/a	"11:41.1"	"11:41.7"	53	3.138118883
"S210315"	"Response_Selection"	"LEFT"	"LEFT"	388.3315	683.3333347	""	n/a	n/a	n/a	n/a	n/a	n/a	"11:42.4"	"11:43.0"	54	3.138118883
"S210315"	"Response_Selection"	"RIGHT"	"RIGHT"	348.8982	650.0000013	""	n/a	n/a	n/a	n/a	n/a	n/a	"11:43.6"	"11:44.2"	55	3.138118883
"S210315"	"Response_Selection"	"LEFT"	"LEFT"	305.3766	550.0000011	""	n/a	n/a	n/a	n/a	n/a	n/a	"11:44.7"	"11:45.3"	56	3.138118883
"S210315"	"Response_Selection"	"RIGHT"	"RIGHT"	411.9381	1300.000003	""	n/a	n/a	n/a	n/a	n/a	n/a	"11:46.6"	"11:47.2"	57	3.138118883
"S210315"	"Response_Selection"	"RIGHT"	"RIGHT"	524.4133	633.3333346	""	n/a	n/a	n/a	n/a	n/a	n/a	"11:47.8"	"11:48.6"	58	3.138118883
"S210315"	"Response_Selection"	"LEFT"	"LEFT"	327.683	1200.000002	""	n/a	n/a	n/a	n/a	n/a	n/a	"11:49.8"	"11:50.3"	59	3.138118883
"S210315"	"Response_Selection"	"RIGHT"	"RIGHT"	254.4147	1216.666669	""	n/a	n/a	n/a	n/a	n/a	n/a	"11:51.5"	"11:52.0"	60	3.138118883
"S210315"	"Response_Selection"	"LEFT"	"LEFT"	406.3621	1016.666669	""	n/a	n/a	n/a	n/a	n/a	n/a	"11:53.0"	"11:53.6"	61	3.138118883
"S210315"	"Response_Selection"	"RIGHT"	"RIGHT"	318.0316	1016.666669	""	n/a	n/a	n/a	n/a	n/a	n/a	"11:54.7"	"11:55.2"	62	3.138118883
"S210315"	"Response_Selection"	"LEFT"	"LEFT"	286.6472	983.3333353	""	n/a	n/a	n/a	n/a	n/a	n/a	"11:56.2"	"11:56.7"	63	3.138118883
"S210315"	"Response_Selection"	"RIGHT"	"RIGHT"	351.2185	783.3333349	""	n/a	n/a	n/a	n/a	n/a	n/a	"11:57.5"	"11:58.0"	64	3.138118883
"S210315"	"Response_Selection"	"LEFT"	"LEFT"	308.1688	1250.000003	""	n/a	n/a	n/a	n/a	n/a	n/a	"11:59.3"	"11:59.8"	65	3.138118883
"S210315"	"Response_Selection"	"RIGHT"	"RIGHT"	296.5049	1166.666669	""	n/a	n/a	n/a	n/a	n/a	n/a	"12:01.0"	"12:01.5"	66	3.138118883
"S210315"	"Response_Selection"	"RIGHT"	"RIGHT"	500.1626	683.3333347	""	n/a	n/a	n/a	n/a	n/a	n/a	"12:02.2"	"12:02.9"	67	3.138118883
"S210315"	"Response_Selection"	"RIGHT"	"RIGHT"	340.9612	833.333335	""	n/a	n/a	n/a	n/a	n/a	n/a	"12:03.7"	"12:04.3"	68	3.138118883
"S210315"	"Response_Selection"	"RIGHT"	"RIGHT"	262.8789	1200.000002	""	n/a	n/a	n/a	n/a	n/a	n/a	"12:05.5"	"12:06.0"	69	3.138118883
"S210315"	"Response_Selection"	"RIGHT"	"RIGHT"	553.7286	1366.666669	""	n/a	n/a	n/a	n/a	n/a	n/a	"12:07.3"	"12:08.1"	70	3.138118883
"S210315"	"Response_Selection"	"LEFT"	"LEFT"	370.8285	500.000001	""	n/a	n/a	n/a	n/a	n/a	n/a	"12:08.6"	"12:09.2"	71	3.138118883
"S210315"	"Response_Selection"	"RIGHT"	"RIGHT"	291.0454	500.000001	""	n/a	n/a	n/a	n/a	n/a	n/a	"12:09.7"	"12:10.2"	72	3.138118883
"S210315"	"Response_Selection"	"LEFT"	"LEFT"	477.0246	1083.333336	""	n/a	n/a	n/a	n/a	n/a	n/a	"12:11.3"	"12:12.0"	73	3.138118883
"S210315"	"Response_Selection"	"RIGHT"	"RIGHT"	275.3246	916.6666685	""	n/a	n/a	n/a	n/a	n/a	n/a	"12:12.9"	"12:13.4"	74	3.138118883
"S210315"	"Response_Selection"	"LEFT"	"LEFT"	308.564	883.3333351	""	n/a	n/a	n/a	n/a	n/a	n/a	"12:14.3"	"12:14.8"	75	3.138118883
"S210315"	"Response_Selection"	"LEFT"	"LEFT"	365.657	833.333335	""	n/a	n/a	n/a	n/a	n/a	n/a	"12:15.6"	"12:16.2"	76	3.138118883
"S210315"	"Response_Selection"	"RIGHT"	"LEFT"	275.8816	866.6666684	""	n/a	n/a	n/a	n/a	n/a	n/a	"12:17.1"	"12:17.6"	77	3.138118883
"S210315"	"Response_Selection"	"LEFT"	"LEFT"	422.1245	800.0000016	"RIGHT"	-525.94	n/a	n/a	n/a	n/a	n/a	"12:18.4"	"12:19.0"	78	3.138118883
"S210315"	"Response_Selection"	"RIGHT"	"RIGHT"	310.5269	1416.66667	""	n/a	n/a	n/a	n/a	n/a	n/a	"12:20.4"	"12:20.9"	79	3.138118883
"S210315"	"Response_Selection"	"RIGHT"	"RIGHT"	370.3586	933.3333352	""	n/a	n/a	n/a	n/a	n/a	n/a	"12:21.9"	"12:22.5"	80	3.138118883
