"Participant"	"Task"	"Stimulus_Side"	"Response"	"RT"	"ITI"	"Previous_Response"	"Previous_RT"	"Stop_Signal"	"Stop_Signal_RT"	"Conflict"	"Cue_Response"	"Cue_Response_RT"	"Trial_Onset"	"Trial_End"	"Trial_Order"	"Duration"
"S200203"	"Conflict_Resolution"	"LEFT"	"LEFT"	1081.21490000008	1266.6666692	n/a	n/a	n/a	n/a	"False"	n/a	n/a	"2020-02-03 11:12:46.792404"	"2020-02-03 11:12:48.080211"	1	7.18443358333333
"S200203"	"Conflict_Resolution"	"RIGHT"	"Time_Max_Exceeded"	1500.06199999996	1366.6666694	n/a	n/a	n/a	n/a	"True"	n/a	n/a	"2020-02-03 11:12:49.466352"	"2020-02-03 11:12:50.966044"	2	7.18443358333333
"S200203"	"Conflict_Resolution"	"LEFT"	"LEFT"	555.805500000019	1500.000003	n/a	n/a	n/a	n/a	"False"	n/a	n/a	"2020-02-03 11:12:52.485371"	"2020-02-03 11:12:53.249115"	3	7.18443358333333
"S200203"	"Conflict_Resolution"	"RIGHT"	"RIGHT"	591.163599999959	1333.333336	n/a	n/a	n/a	n/a	"False"	n/a	n/a	"2020-02-03 11:12:54.602115"	"2020-02-03 11:12:55.400923"	4	7.18443358333333
"S200203"	"Conflict_Resolution"	"RIGHT"	"Time_Max_Exceeded"	1500.10410000004	900.0000018	n/a	n/a	n/a	n/a	"True"	n/a	n/a	"2020-02-03 11:12:56.320359"	"2020-02-03 11:12:57.821204"	5	7.18443358333333
"S200203"	"Conflict_Resolution"	"LEFT"	"LEFT"	663.613199999986	633.3333346	n/a	n/a	n/a	n/a	"False"	n/a	n/a	"2020-02-03 11:12:58.473262"	"2020-02-03 11:12:59.344824"	6	7.18443358333333
"S200203"	"Conflict_Resolution"	"LEFT"	"Time_Max_Exceeded"	1500.06360000009	1100.0000022	n/a	n/a	n/a	n/a	"True"	n/a	n/a	"2020-02-03 11:13:00.464933"	"2020-02-03 11:13:01.964656"	7	7.18443358333333
"S200203"	"Conflict_Resolution"	"RIGHT"	"RIGHT"	552.522400000043	1050.0000021	n/a	n/a	n/a	n/a	"False"	n/a	n/a	"2020-02-03 11:13:03.032850"	"2020-02-03 11:13:03.793007"	8	7.18443358333333
"S200203"	"Conflict_Resolution"	"LEFT"	"LEFT"	460.809399999903	1416.6666695	n/a	n/a	n/a	n/a	"False"	n/a	n/a	"2020-02-03 11:13:05.228480"	"2020-02-03 11:13:05.897410"	9	7.18443358333333
"S200203"	"Conflict_Resolution"	"LEFT"	"LEFT"	557.106100000055	783.3333349	n/a	n/a	n/a	n/a	"False"	n/a	n/a	"2020-02-03 11:13:06.700497"	"2020-02-03 11:13:07.465762"	10	7.18443358333333
"S200203"	"Conflict_Resolution"	"LEFT"	"Time_Max_Exceeded"	1500.06009999993	1350.0000027	n/a	n/a	n/a	n/a	"True"	n/a	n/a	"2020-02-03 11:13:08.834925"	"2020-02-03 11:13:10.334575"	11	7.18443358333333
"S200203"	"Conflict_Resolution"	"RIGHT"	"RIGHT"	668.994600000019	1033.3333354	n/a	n/a	n/a	n/a	"False"	n/a	n/a	"2020-02-03 11:13:11.387809"	"2020-02-03 11:13:12.264337"	12	7.18443358333333
"S200203"	"Conflict_Resolution"	"LEFT"	"Time_Max_Exceeded"	1500.08279999997	1000.000002	n/a	n/a	n/a	n/a	"True"	n/a	n/a	"2020-02-03 11:13:13.285914"	"2020-02-03 11:13:14.786586"	13	7.18443358333333
"S200203"	"Conflict_Resolution"	"RIGHT"	"RIGHT"	847.328599999969	550.0000011	n/a	n/a	n/a	n/a	"False"	n/a	n/a	"2020-02-03 11:13:15.354341"	"2020-02-03 11:13:16.409508"	14	7.18443358333333
"S200203"	"Conflict_Resolution"	"RIGHT"	"Time_Max_Exceeded"	1500.06080000003	600.0000012	n/a	n/a	n/a	n/a	"True"	n/a	n/a	"2020-02-03 11:13:17.028008"	"2020-02-03 11:13:18.528512"	15	7.18443358333333
"S200203"	"Conflict_Resolution"	"RIGHT"	"Time_Max_Exceeded"	1500.09339999997	1266.6666692	n/a	n/a	n/a	n/a	"True"	n/a	n/a	"2020-02-03 11:13:19.813674"	"2020-02-03 11:13:21.314343"	16	7.18443358333333
"S200203"	"Conflict_Resolution"	"RIGHT"	"RIGHT"	1265.96960000006	1416.6666695	n/a	n/a	n/a	n/a	"True"	n/a	n/a	"2020-02-03 11:13:22.750869"	"2020-02-03 11:13:24.224972"	17	7.18443358333333
"S200203"	"Conflict_Resolution"	"RIGHT"	"RIGHT"	1035.57079999996	1283.3333359	n/a	n/a	n/a	n/a	"True"	n/a	n/a	"2020-02-03 11:13:25.525996"	"2020-02-03 11:13:26.769650"	18	7.18443358333333
"S200203"	"Conflict_Resolution"	"LEFT"	"LEFT"	905.992900000001	1266.6666692	n/a	n/a	n/a	n/a	"True"	n/a	n/a	"2020-02-03 11:13:28.055021"	"2020-02-03 11:13:29.169978"	19	7.18443358333333
"S200203"	"Conflict_Resolution"	"RIGHT"	"RIGHT"	555.831099999978	1433.3333362	n/a	n/a	n/a	n/a	"False"	n/a	n/a	"2020-02-03 11:13:30.621180"	"2020-02-03 11:13:31.385770"	20	7.18443358333333
"S200203"	"Conflict_Resolution"	"LEFT"	"LEFT"	997.085299999981	616.6666679	n/a	n/a	n/a	n/a	"True"	n/a	n/a	"2020-02-03 11:13:32.019825"	"2020-02-03 11:13:33.225885"	21	7.18443358333333
"S200203"	"Conflict_Resolution"	"RIGHT"	"RIGHT"	808.77559999999	1100.0000022	n/a	n/a	n/a	n/a	"True"	n/a	n/a	"2020-02-03 11:13:34.345001"	"2020-02-03 11:13:35.361508"	22	7.18443358333333
"S200203"	"Conflict_Resolution"	"RIGHT"	"RIGHT"	558.649599999853	1150.0000023	n/a	n/a	n/a	n/a	"False"	n/a	n/a	"2020-02-03 11:13:36.530375"	"2020-02-03 11:13:37.297886"	23	7.18443358333333
"S200203"	"Conflict_Resolution"	"LEFT"	"LEFT"	675.738700000011	1200.0000024	n/a	n/a	n/a	n/a	"False"	n/a	n/a	"2020-02-03 11:13:38.518033"	"2020-02-03 11:13:39.400256"	24	7.18443358333333
"S200203"	"Conflict_Resolution"	"LEFT"	"LEFT"	515.30159999993	1066.6666688	n/a	n/a	n/a	n/a	"False"	n/a	n/a	"2020-02-03 11:13:40.486103"	"2020-02-03 11:13:41.209041"	25	7.18443358333333
"S200203"	"Conflict_Resolution"	"RIGHT"	"RIGHT"	768.974600000092	550.0000011	n/a	n/a	n/a	n/a	"True"	n/a	n/a	"2020-02-03 11:13:41.776565"	"2020-02-03 11:13:42.752200"	26	7.18443358333333
"S200203"	"Conflict_Resolution"	"RIGHT"	"RIGHT"	726.726899999903	1383.3333361	n/a	n/a	n/a	n/a	"True"	n/a	n/a	"2020-02-03 11:13:44.154870"	"2020-02-03 11:13:45.089172"	27	7.18443358333333
"S200203"	"Conflict_Resolution"	"LEFT"	"LEFT"	522.33299999989	1100.0000022	n/a	n/a	n/a	n/a	"False"	n/a	n/a	"2020-02-03 11:13:46.206854"	"2020-02-03 11:13:46.937902"	28	7.18443358333333
"S200203"	"Conflict_Resolution"	"LEFT"	"LEFT"	839.938500000017	950.0000019	n/a	n/a	n/a	n/a	"True"	n/a	n/a	"2020-02-03 11:13:47.905342"	"2020-02-03 11:13:48.953839"	29	7.18443358333333
"S200203"	"Conflict_Resolution"	"LEFT"	"LEFT"	750.966599999856	533.3333344	n/a	n/a	n/a	n/a	"False"	n/a	n/a	"2020-02-03 11:13:49.506620"	"2020-02-03 11:13:50.465040"	30	7.18443358333333
"S200203"	"Conflict_Resolution"	"LEFT"	"LEFT"	500.185399999964	850.0000017	n/a	n/a	n/a	n/a	"False"	n/a	n/a	"2020-02-03 11:13:51.333142"	"2020-02-03 11:13:52.041188"	31	7.18443358333333
"S200203"	"Conflict_Resolution"	"RIGHT"	"RIGHT"	701.357799999869	983.3333353	n/a	n/a	n/a	n/a	"True"	n/a	n/a	"2020-02-03 11:13:53.044728"	"2020-02-03 11:13:53.953553"	32	7.18443358333333
"S200203"	"Conflict_Resolution"	"LEFT"	"LEFT"	694.126900000128	566.6666678	n/a	n/a	n/a	n/a	"True"	n/a	n/a	"2020-02-03 11:13:54.538980"	"2020-02-03 11:13:55.441422"	33	7.18443358333333
"S200203"	"Conflict_Resolution"	"RIGHT"	"RIGHT"	485.465100000056	983.3333353	n/a	n/a	n/a	n/a	"False"	n/a	n/a	"2020-02-03 11:13:56.444006"	"2020-02-03 11:13:57.137453"	34	7.18443358333333
"S200203"	"Conflict_Resolution"	"RIGHT"	"RIGHT"	533.905700000105	950.0000019	n/a	n/a	n/a	n/a	"False"	n/a	n/a	"2020-02-03 11:13:58.107559"	"2020-02-03 11:13:58.849351"	35	7.18443358333333
"S200203"	"Conflict_Resolution"	"RIGHT"	"RIGHT"	499.979199999871	633.3333346	n/a	n/a	n/a	n/a	"False"	n/a	n/a	"2020-02-03 11:13:59.501722"	"2020-02-03 11:14:00.210387"	36	7.18443358333333
"S200203"	"Conflict_Resolution"	"LEFT"	"LEFT"	692.52809999989	583.3333345	n/a	n/a	n/a	n/a	"True"	n/a	n/a	"2020-02-03 11:14:00.812587"	"2020-02-03 11:14:01.712985"	37	7.18443358333333
"S200203"	"Conflict_Resolution"	"RIGHT"	"RIGHT"	411.649600000146	850.0000017	n/a	n/a	n/a	n/a	"False"	n/a	n/a	"2020-02-03 11:14:02.582339"	"2020-02-03 11:14:03.200924"	38	7.18443358333333
"S200203"	"Conflict_Resolution"	"LEFT"	"LEFT"	654.794600000059	1166.666669	n/a	n/a	n/a	n/a	"True"	n/a	n/a	"2020-02-03 11:14:04.387048"	"2020-02-03 11:14:05.249616"	39	7.18443358333333
"S200203"	"Conflict_Resolution"	"LEFT"	"LEFT"	586.052399999971	1050.0000021	n/a	n/a	n/a	n/a	"True"	n/a	n/a	"2020-02-03 11:14:06.319259"	"2020-02-03 11:14:07.112263"	40	7.18443358333333
"S200203"	"Conflict_Resolution"	"RIGHT"	"RIGHT"	764.209100000016	1033.3333354	n/a	n/a	n/a	n/a	"True"	n/a	n/a	"2020-02-03 11:14:08.164767"	"2020-02-03 11:14:09.137197"	41	7.18443358333333
"S200203"	"Conflict_Resolution"	"LEFT"	"LEFT"	638.210999999956	1366.6666694	n/a	n/a	n/a	n/a	"True"	n/a	n/a	"2020-02-03 11:14:10.523110"	"2020-02-03 11:14:11.369842"	42	7.18443358333333
"S200203"	"Conflict_Resolution"	"RIGHT"	"RIGHT"	576.012799999944	733.3333348	n/a	n/a	n/a	n/a	"False"	n/a	n/a	"2020-02-03 11:14:12.122408"	"2020-02-03 11:14:12.906754"	43	7.18443358333333
"S200203"	"Conflict_Resolution"	"RIGHT"	"LEFT"	517.281800000092	750.0000015	n/a	n/a	n/a	n/a	"True"	n/a	n/a	"2020-02-03 11:14:13.676762"	"2020-02-03 11:14:14.401452"	44	7.18443358333333
"S200203"	"Conflict_Resolution"	"RIGHT"	"RIGHT"	798.63320000004	1150.0000023	n/a	n/a	n/a	n/a	"True"	n/a	n/a	"2020-02-03 11:14:15.570394"	"2020-02-03 11:14:16.577134"	45	7.18443358333333
"S200203"	"Conflict_Resolution"	"RIGHT"	"RIGHT"	723.064300000033	1050.0000021	n/a	n/a	n/a	n/a	"True"	n/a	n/a	"2020-02-03 11:14:17.646620"	"2020-02-03 11:14:18.577549"	46	7.18443358333333
"S200203"	"Conflict_Resolution"	"RIGHT"	"RIGHT"	625.235400000065	1283.3333359	n/a	n/a	n/a	n/a	"False"	n/a	n/a	"2020-02-03 11:14:19.880550"	"2020-02-03 11:14:20.713113"	47	7.18443358333333
"S200203"	"Conflict_Resolution"	"RIGHT"	"RIGHT"	684.205199999951	1433.3333362	n/a	n/a	n/a	n/a	"True"	n/a	n/a	"2020-02-03 11:14:22.164753"	"2020-02-03 11:14:23.057571"	48	7.18443358333333
"S200203"	"Conflict_Resolution"	"RIGHT"	"RIGHT"	858.549100000118	650.0000013	n/a	n/a	n/a	n/a	"True"	n/a	n/a	"2020-02-03 11:14:23.726439"	"2020-02-03 11:14:24.793822"	49	7.18443358333333
"S200203"	"Conflict_Resolution"	"RIGHT"	"RIGHT"	604.499399999895	583.3333345	n/a	n/a	n/a	n/a	"False"	n/a	n/a	"2020-02-03 11:14:25.396788"	"2020-02-03 11:14:26.209410"	50	7.18443358333333
"S200203"	"Conflict_Resolution"	"LEFT"	"LEFT"	745.493299999907	683.3333347	n/a	n/a	n/a	n/a	"True"	n/a	n/a	"2020-02-03 11:14:26.912120"	"2020-02-03 11:14:27.865441"	51	7.18443358333333
"S200203"	"Conflict_Resolution"	"LEFT"	"LEFT"	624.422600000116	716.6666681	n/a	n/a	n/a	n/a	"True"	n/a	n/a	"2020-02-03 11:14:28.601471"	"2020-02-03 11:14:29.433493"	52	7.18443358333333
"S200203"	"Conflict_Resolution"	"RIGHT"	"RIGHT"	648.506499999939	700.0000014	n/a	n/a	n/a	n/a	"False"	n/a	n/a	"2020-02-03 11:14:30.152743"	"2020-02-03 11:14:31.008973"	53	7.18443358333333
"S200203"	"Conflict_Resolution"	"LEFT"	"LEFT"	840.904500000079	533.3333344	n/a	n/a	n/a	n/a	"True"	n/a	n/a	"2020-02-03 11:14:31.560509"	"2020-02-03 11:14:32.608987"	54	7.18443358333333
"S200203"	"Conflict_Resolution"	"LEFT"	"LEFT"	808.066800000006	566.6666678	n/a	n/a	n/a	n/a	"False"	n/a	n/a	"2020-02-03 11:14:33.193608"	"2020-02-03 11:14:34.209119"	55	7.18443358333333
"S200203"	"Conflict_Resolution"	"LEFT"	"LEFT"	527.064100000189	1150.0000023	n/a	n/a	n/a	n/a	"False"	n/a	n/a	"2020-02-03 11:14:35.378163"	"2020-02-03 11:14:36.113753"	56	7.18443358333333
"S200203"	"Conflict_Resolution"	"LEFT"	"LEFT"	858.069999999998	1450.0000029	n/a	n/a	n/a	n/a	"True"	n/a	n/a	"2020-02-03 11:14:37.583247"	"2020-02-03 11:14:38.649358"	57	7.18443358333333
"S200203"	"Conflict_Resolution"	"RIGHT"	"RIGHT"	529.536100000087	1483.3333363	n/a	n/a	n/a	n/a	"False"	n/a	n/a	"2020-02-03 11:14:40.152275"	"2020-02-03 11:14:40.889799"	58	7.18443358333333
"S200203"	"Conflict_Resolution"	"RIGHT"	"RIGHT"	727.221999999983	933.3333352	n/a	n/a	n/a	n/a	"True"	n/a	n/a	"2020-02-03 11:14:41.842525"	"2020-02-03 11:14:42.777063"	59	7.18443358333333
"S200203"	"Conflict_Resolution"	"RIGHT"	"RIGHT"	715.752900000098	833.333335	n/a	n/a	n/a	n/a	"True"	n/a	n/a	"2020-02-03 11:14:43.629526"	"2020-02-03 11:14:44.553865"	60	7.18443358333333
"S200203"	"Conflict_Resolution"	"LEFT"	"LEFT"	667.295400000057	633.3333346	n/a	n/a	n/a	n/a	"True"	n/a	n/a	"2020-02-03 11:14:45.206864"	"2020-02-03 11:14:46.081731"	61	7.18443358333333
"S200203"	"Conflict_Resolution"	"LEFT"	"LEFT"	629.613199999994	766.6666682	n/a	n/a	n/a	n/a	"True"	n/a	n/a	"2020-02-03 11:14:46.868254"	"2020-02-03 11:14:47.705053"	62	7.18443358333333
"S200203"	"Conflict_Resolution"	"LEFT"	"LEFT"	666.22869999992	1016.6666687	n/a	n/a	n/a	n/a	"False"	n/a	n/a	"2020-02-03 11:14:48.742939"	"2020-02-03 11:14:49.617858"	63	7.18443358333333
"S200203"	"Conflict_Resolution"	"RIGHT"	"RIGHT"	698.453900000004	850.0000017	n/a	n/a	n/a	n/a	"True"	n/a	n/a	"2020-02-03 11:14:50.486548"	"2020-02-03 11:14:51.393385"	64	7.18443358333333
"S200203"	"Conflict_Resolution"	"RIGHT"	"RIGHT"	600.69969999995	1100.0000022	n/a	n/a	n/a	n/a	"False"	n/a	n/a	"2020-02-03 11:14:52.512692"	"2020-02-03 11:14:53.321329"	65	7.18443358333333
"S200203"	"Conflict_Resolution"	"LEFT"	"LEFT"	697.666799999979	1116.6666689	n/a	n/a	n/a	n/a	"True"	n/a	n/a	"2020-02-03 11:14:54.455729"	"2020-02-03 11:14:55.361627"	66	7.18443358333333
"S200203"	"Conflict_Resolution"	"RIGHT"	"RIGHT"	529.082799999969	500.000001	n/a	n/a	n/a	n/a	"False"	n/a	n/a	"2020-02-03 11:14:55.880822"	"2020-02-03 11:14:56.617099"	67	7.18443358333333
"S200203"	"Conflict_Resolution"	"RIGHT"	"RIGHT"	526.867400000128	783.3333349	n/a	n/a	n/a	n/a	"False"	n/a	n/a	"2020-02-03 11:14:57.419210"	"2020-02-03 11:14:58.153315"	68	7.18443358333333
"S200203"	"Conflict_Resolution"	"RIGHT"	"RIGHT"	531.927300000007	1233.3333358	n/a	n/a	n/a	n/a	"False"	n/a	n/a	"2020-02-03 11:14:59.405962"	"2020-02-03 11:15:00.145777"	69	7.18443358333333
"S200203"	"Conflict_Resolution"	"RIGHT"	"RIGHT"	975.21299999994	1333.333336	n/a	n/a	n/a	n/a	"True"	n/a	n/a	"2020-02-03 11:15:01.498027"	"2020-02-03 11:15:02.681041"	70	7.18443358333333
"S200203"	"Conflict_Resolution"	"LEFT"	"LEFT"	652.652999999873	1016.6666687	n/a	n/a	n/a	n/a	"True"	n/a	n/a	"2020-02-03 11:15:03.716464"	"2020-02-03 11:15:04.578557"	71	7.18443358333333
"S200203"	"Conflict_Resolution"	"LEFT"	"LEFT"	587.201800000003	850.0000017	n/a	n/a	n/a	n/a	"True"	n/a	n/a	"2020-02-03 11:15:05.445920"	"2020-02-03 11:15:06.241368"	72	7.18443358333333
"S200203"	"Conflict_Resolution"	"RIGHT"	"RIGHT"	467.33479999989	1083.3333355	n/a	n/a	n/a	n/a	"False"	n/a	n/a	"2020-02-03 11:15:07.341684"	"2020-02-03 11:15:08.017135"	73	7.18443358333333
"S200203"	"Conflict_Resolution"	"LEFT"	"LEFT"	829.175099999929	1400.0000028	n/a	n/a	n/a	n/a	"True"	n/a	n/a	"2020-02-03 11:15:09.436585"	"2020-02-03 11:15:10.473075"	74	7.18443358333333
"S200203"	"Conflict_Resolution"	"RIGHT"	"RIGHT"	1066.69060000013	1466.6666696	n/a	n/a	n/a	n/a	"True"	n/a	n/a	"2020-02-03 11:15:11.958920"	"2020-02-03 11:15:13.234021"	75	7.18443358333333
"S200203"	"Conflict_Resolution"	"RIGHT"	"Time_Max_Exceeded"	1500.09369999998	583.3333345	n/a	n/a	n/a	n/a	"True"	n/a	n/a	"2020-02-03 11:15:13.836667"	"2020-02-03 11:15:15.336854"	76	7.18443358333333
"S200203"	"Conflict_Resolution"	"RIGHT"	"RIGHT"	1104.20729999987	1316.6666693	n/a	n/a	n/a	n/a	"True"	n/a	n/a	"2020-02-03 11:15:16.673655"	"2020-02-03 11:15:17.985549"	77	7.18443358333333
"S200203"	"Conflict_Resolution"	"RIGHT"	"RIGHT"	907.23109999999	633.3333346	n/a	n/a	n/a	n/a	"True"	n/a	n/a	"2020-02-03 11:15:18.638693"	"2020-02-03 11:15:19.753592"	78	7.18443358333333
"S200203"	"Conflict_Resolution"	"LEFT"	"LEFT"	836.639900000137	1000.000002	n/a	n/a	n/a	n/a	"False"	n/a	n/a	"2020-02-03 11:15:20.772408"	"2020-02-03 11:15:21.816393"	79	7.18443358333333
"S200203"	"Conflict_Resolution"	"LEFT"	"LEFT"	537.189299999909	1116.6666689	n/a	n/a	n/a	n/a	"False"	n/a	n/a	"2020-02-03 11:15:22.952777"	"2020-02-03 11:15:23.697291"	80	7.18443358333333
"S200203"	"Conflict_Resolution"	"LEFT"	"LEFT"	713.654200000065	1066.6666688	n/a	n/a	n/a	n/a	"True"	n/a	n/a	"2020-02-03 11:15:24.784157"	"2020-02-03 11:15:25.705259"	81	7.18443358333333
"S200203"	"Conflict_Resolution"	"RIGHT"	"RIGHT"	512.802200000124	1133.3333356	n/a	n/a	n/a	n/a	"False"	n/a	n/a	"2020-02-03 11:15:26.856702"	"2020-02-03 11:15:27.578770"	82	7.18443358333333
"S200203"	"Conflict_Resolution"	"LEFT"	"LEFT"	575.246399999969	716.6666681	n/a	n/a	n/a	n/a	"False"	n/a	n/a	"2020-02-03 11:15:28.314608"	"2020-02-03 11:15:29.097180"	83	7.18443358333333
"S200203"	"Conflict_Resolution"	"LEFT"	"LEFT"	615.606500000013	900.0000018	n/a	n/a	n/a	n/a	"False"	n/a	n/a	"2020-02-03 11:15:30.017497"	"2020-02-03 11:15:30.841478"	84	7.18443358333333
"S200203"	"Conflict_Resolution"	"LEFT"	"LEFT"	782.75050000002	1150.0000023	n/a	n/a	n/a	n/a	"True"	n/a	n/a	"2020-02-03 11:15:32.010957"	"2020-02-03 11:15:33.001319"	85	7.18443358333333
"S200203"	"Conflict_Resolution"	"LEFT"	"LEFT"	704.08980000002	966.6666686	n/a	n/a	n/a	n/a	"True"	n/a	n/a	"2020-02-03 11:15:33.985521"	"2020-02-03 11:15:34.897889"	86	7.18443358333333
"S200203"	"Conflict_Resolution"	"LEFT"	"LEFT"	693.866999999955	1400.0000028	n/a	n/a	n/a	n/a	"False"	n/a	n/a	"2020-02-03 11:15:36.315922"	"2020-02-03 11:15:37.217301"	87	7.18443358333333
"S200203"	"Conflict_Resolution"	"RIGHT"	"RIGHT"	501.984699999866	1383.3333361	n/a	n/a	n/a	n/a	"False"	n/a	n/a	"2020-02-03 11:15:38.619216"	"2020-02-03 11:15:39.329126"	88	7.18443358333333
"S200203"	"Conflict_Resolution"	"RIGHT"	"RIGHT"	500.217599999814	1216.6666691	n/a	n/a	n/a	n/a	"False"	n/a	n/a	"2020-02-03 11:15:40.565967"	"2020-02-03 11:15:41.273268"	89	7.18443358333333
"S200203"	"Conflict_Resolution"	"LEFT"	"LEFT"	872.305599999891	733.3333348	n/a	n/a	n/a	n/a	"True"	n/a	n/a	"2020-02-03 11:15:42.025259"	"2020-02-03 11:15:43.105169"	90	7.18443358333333
"S200203"	"Conflict_Resolution"	"RIGHT"	"RIGHT"	533.90289999993	600.0000012	n/a	n/a	n/a	n/a	"False"	n/a	n/a	"2020-02-03 11:15:43.723788"	"2020-02-03 11:15:44.465833"	91	7.18443358333333
"S200203"	"Conflict_Resolution"	"LEFT"	"LEFT"	489.496899999949	1450.0000029	n/a	n/a	n/a	n/a	"False"	n/a	n/a	"2020-02-03 11:15:45.936121"	"2020-02-03 11:15:46.632970"	92	7.18443358333333
"S200203"	"Conflict_Resolution"	"RIGHT"	"RIGHT"	794.091600000002	883.3333351	n/a	n/a	n/a	n/a	"True"	n/a	n/a	"2020-02-03 11:15:47.535815"	"2020-02-03 11:15:48.537133"	93	7.18443358333333
"S200203"	"Conflict_Resolution"	"RIGHT"	"RIGHT"	516.894299999876	1416.6666695	n/a	n/a	n/a	n/a	"False"	n/a	n/a	"2020-02-03 11:15:49.972782"	"2020-02-03 11:15:50.698406"	94	7.18443358333333
"S200203"	"Conflict_Resolution"	"LEFT"	"LEFT"	910.635100000036	766.6666682	n/a	n/a	n/a	n/a	"False"	n/a	n/a	"2020-02-03 11:15:51.483184"	"2020-02-03 11:15:52.601324"	95	7.18443358333333
"S200203"	"Conflict_Resolution"	"RIGHT"	"RIGHT"	646.760999999969	1366.6666694	n/a	n/a	n/a	n/a	"False"	n/a	n/a	"2020-02-03 11:15:53.987177"	"2020-02-03 11:15:54.841829"	96	7.18443358333333
"S200203"	"Conflict_Resolution"	"LEFT"	"LEFT"	1018.08419999998	1466.6666696	n/a	n/a	n/a	n/a	"True"	n/a	n/a	"2020-02-03 11:15:56.327568"	"2020-02-03 11:15:57.553090"	97	7.18443358333333
"S200203"	"Conflict_Resolution"	"RIGHT"	"RIGHT"	958.884800000078	533.3333344	n/a	n/a	n/a	n/a	"True"	n/a	n/a	"2020-02-03 11:15:58.106677"	"2020-02-03 11:15:59.273565"	98	7.18443358333333
"S200203"	"Conflict_Resolution"	"RIGHT"	"RIGHT"	854.41569999989	800.0000016	n/a	n/a	n/a	n/a	"True"	n/a	n/a	"2020-02-03 11:16:00.090574"	"2020-02-03 11:16:01.152954"	99	7.18443358333333
"S200203"	"Conflict_Resolution"	"LEFT"	"LEFT"	732.738100000006	1416.6666695	n/a	n/a	n/a	n/a	"True"	n/a	n/a	"2020-02-03 11:16:02.588376"	"2020-02-03 11:16:03.529775"	100	7.18443358333333
"S200203"	"Conflict_Resolution"	"RIGHT"	"RIGHT"	476.892999999791	800.0000016	n/a	n/a	n/a	n/a	"False"	n/a	n/a	"2020-02-03 11:16:04.348587"	"2020-02-03 11:16:05.034466"	101	7.18443358333333
"S200203"	"Conflict_Resolution"	"RIGHT"	"RIGHT"	874.137000000019	683.3333347	n/a	n/a	n/a	n/a	"True"	n/a	n/a	"2020-02-03 11:16:05.735593"	"2020-02-03 11:16:06.817552"	102	7.18443358333333
"S200203"	"Conflict_Resolution"	"LEFT"	"LEFT"	725.454099999979	816.6666683	n/a	n/a	n/a	n/a	"True"	n/a	n/a	"2020-02-03 11:16:07.651627"	"2020-02-03 11:16:08.586421"	103	7.18443358333333
"S200203"	"Conflict_Resolution"	"LEFT"	"LEFT"	630.963100000145	916.6666685	n/a	n/a	n/a	n/a	"True"	n/a	n/a	"2020-02-03 11:16:09.522317"	"2020-02-03 11:16:10.361085"	104	7.18443358333333
"S200203"	"Conflict_Resolution"	"LEFT"	"LEFT"	702.046599999903	583.3333345	n/a	n/a	n/a	n/a	"False"	n/a	n/a	"2020-02-03 11:16:10.963542"	"2020-02-03 11:16:11.873579"	105	7.18443358333333
"S200203"	"Conflict_Resolution"	"RIGHT"	"RIGHT"	565.033900000117	1183.3333357	n/a	n/a	n/a	n/a	"False"	n/a	n/a	"2020-02-03 11:16:13.076550"	"2020-02-03 11:16:13.848800"	106	7.18443358333333
"S200203"	"Conflict_Resolution"	"LEFT"	"LEFT"	566.770899999938	1166.666669	n/a	n/a	n/a	n/a	"False"	n/a	n/a	"2020-02-03 11:16:15.035022"	"2020-02-03 11:16:15.809180"	107	7.18443358333333
"S200203"	"Conflict_Resolution"	"LEFT"	"LEFT"	788.360099999863	866.6666684	n/a	n/a	n/a	n/a	"True"	n/a	n/a	"2020-02-03 11:16:16.692841"	"2020-02-03 11:16:17.688999"	108	7.18443358333333
"S200203"	"Conflict_Resolution"	"RIGHT"	"RIGHT"	508.407399999896	1266.6666692	n/a	n/a	n/a	n/a	"False"	n/a	n/a	"2020-02-03 11:16:18.973539"	"2020-02-03 11:16:19.690442"	109	7.18443358333333
"S200203"	"Conflict_Resolution"	"LEFT"	"LEFT"	927.23019999994	516.6666677	n/a	n/a	n/a	n/a	"False"	n/a	n/a	"2020-02-03 11:16:20.226025"	"2020-02-03 11:16:21.361786"	110	7.18443358333333
"S200203"	"Conflict_Resolution"	"LEFT"	"LEFT"	487.799799999948	916.6666685	n/a	n/a	n/a	n/a	"False"	n/a	n/a	"2020-02-03 11:16:22.297882"	"2020-02-03 11:16:22.993420"	111	7.18443358333333
"S200203"	"Conflict_Resolution"	"RIGHT"	"RIGHT"	693.577499999947	783.3333349	n/a	n/a	n/a	n/a	"True"	n/a	n/a	"2020-02-03 11:16:23.795591"	"2020-02-03 11:16:24.699377"	112	7.18443358333333
"S200203"	"Conflict_Resolution"	"LEFT"	"LEFT"	660.301600000139	1200.0000024	n/a	n/a	n/a	n/a	"True"	n/a	n/a	"2020-02-03 11:16:25.917072"	"2020-02-03 11:16:26.785485"	113	7.18443358333333
"S200203"	"Conflict_Resolution"	"LEFT"	"LEFT"	634.494899999936	666.666668	n/a	n/a	n/a	n/a	"True"	n/a	n/a	"2020-02-03 11:16:27.471296"	"2020-02-03 11:16:28.313861"	114	7.18443358333333
"S200203"	"Conflict_Resolution"	"LEFT"	"LEFT"	661.772000000155	966.6666686	n/a	n/a	n/a	n/a	"False"	n/a	n/a	"2020-02-03 11:16:29.300348"	"2020-02-03 11:16:30.169769"	115	7.18443358333333
"S200203"	"Conflict_Resolution"	"RIGHT"	"RIGHT"	498.134100000016	1466.6666696	n/a	n/a	n/a	n/a	"False"	n/a	n/a	"2020-02-03 11:16:31.655094"	"2020-02-03 11:16:32.361751"	116	7.18443358333333
"S200203"	"Conflict_Resolution"	"LEFT"	"LEFT"	904.393000000027	516.6666677	n/a	n/a	n/a	n/a	"True"	n/a	n/a	"2020-02-03 11:16:32.897546"	"2020-02-03 11:16:34.008966"	117	7.18443358333333
"S200203"	"Conflict_Resolution"	"LEFT"	"LEFT"	531.263200000012	1250.0000025	n/a	n/a	n/a	n/a	"False"	n/a	n/a	"2020-02-03 11:16:35.278117"	"2020-02-03 11:16:36.017279"	118	7.18443358333333
"S200203"	"Conflict_Resolution"	"RIGHT"	"RIGHT"	655.56760000004	533.3333344	n/a	n/a	n/a	n/a	"False"	n/a	n/a	"2020-02-03 11:16:36.570419"	"2020-02-03 11:16:37.433381"	119	7.18443358333333
"S200203"	"Conflict_Resolution"	"RIGHT"	"RIGHT"	900.514799999883	1216.6666691	n/a	n/a	n/a	n/a	"True"	n/a	n/a	"2020-02-03 11:16:38.668647"	"2020-02-03 11:16:39.777432"	120	7.18443358333333
"S200203"	"Conflict_Resolution"	"LEFT"	"LEFT"	570.749400000068	666.666668	n/a	n/a	n/a	n/a	"False"	n/a	n/a	"2020-02-03 11:16:40.463185"	"2020-02-03 11:16:41.240944"	121	7.18443358333333
"S200203"	"Conflict_Resolution"	"RIGHT"	"RIGHT"	527.510900000152	750.0000015	n/a	n/a	n/a	n/a	"False"	n/a	n/a	"2020-02-03 11:16:42.010499"	"2020-02-03 11:16:42.745290"	122	7.18443358333333
"S200203"	"Conflict_Resolution"	"RIGHT"	"RIGHT"	673.097999999982	500.000001	n/a	n/a	n/a	n/a	"True"	n/a	n/a	"2020-02-03 11:16:43.264901"	"2020-02-03 11:16:44.144946"	123	7.18443358333333
"S200203"	"Conflict_Resolution"	"LEFT"	"LEFT"	838.482099999965	783.3333349	n/a	n/a	n/a	n/a	"True"	n/a	n/a	"2020-02-03 11:16:44.946839"	"2020-02-03 11:16:45.993204"	124	7.18443358333333
"S200203"	"Conflict_Resolution"	"LEFT"	"LEFT"	618.221799999901	683.3333347	n/a	n/a	n/a	n/a	"False"	n/a	n/a	"2020-02-03 11:16:46.695330"	"2020-02-03 11:16:47.521701"	125	7.18443358333333
"S200203"	"Conflict_Resolution"	"LEFT"	"LEFT"	1222.08589999991	1350.0000027	n/a	n/a	n/a	n/a	"False"	n/a	n/a	"2020-02-03 11:16:48.891301"	"2020-02-03 11:16:50.321699"	126	7.18443358333333
"S200203"	"Conflict_Resolution"	"LEFT"	"LEFT"	699.037000000089	1250.0000025	n/a	n/a	n/a	n/a	"True"	n/a	n/a	"2020-02-03 11:16:51.590375"	"2020-02-03 11:16:52.497184"	127	7.18443358333333
"S200203"	"Conflict_Resolution"	"LEFT"	"LEFT"	896.693499999856	1316.6666693	n/a	n/a	n/a	n/a	"True"	n/a	n/a	"2020-02-03 11:16:53.832514"	"2020-02-03 11:16:54.937518"	128	7.18443358333333
"S200203"	"Conflict_Resolution"	"RIGHT"	"RIGHT"	680.907500000103	1133.3333356	n/a	n/a	n/a	n/a	"True"	n/a	n/a	"2020-02-03 11:16:56.088383"	"2020-02-03 11:16:56.976968"	129	7.18443358333333
"S200203"	"Conflict_Resolution"	"LEFT"	"LEFT"	673.92360000008	1300.0000026	n/a	n/a	n/a	n/a	"False"	n/a	n/a	"2020-02-03 11:16:58.296087"	"2020-02-03 11:16:59.178535"	130	7.18443358333333
"S200203"	"Conflict_Resolution"	"RIGHT"	"RIGHT"	749.370999999883	950.0000019	n/a	n/a	n/a	n/a	"True"	n/a	n/a	"2020-02-03 11:17:00.147825"	"2020-02-03 11:17:01.105137"	131	7.18443358333333
"S200203"	"Conflict_Resolution"	"LEFT"	"LEFT"	518.747000000076	1366.6666694	n/a	n/a	n/a	n/a	"False"	n/a	n/a	"2020-02-03 11:17:02.490543"	"2020-02-03 11:17:03.217408"	132	7.18443358333333
"S200203"	"Conflict_Resolution"	"RIGHT"	"RIGHT"	733.872499999961	1183.3333357	n/a	n/a	n/a	n/a	"True"	n/a	n/a	"2020-02-03 11:17:04.419820"	"2020-02-03 11:17:05.361656"	133	7.18443358333333
"S200203"	"Conflict_Resolution"	"LEFT"	"LEFT"	744.70620000011	900.0000018	n/a	n/a	n/a	n/a	"True"	n/a	n/a	"2020-02-03 11:17:06.280493"	"2020-02-03 11:17:07.233784"	134	7.18443358333333
"S200203"	"Conflict_Resolution"	"LEFT"	"LEFT"	583.395999999993	1466.6666696	n/a	n/a	n/a	n/a	"False"	n/a	n/a	"2020-02-03 11:17:08.721960"	"2020-02-03 11:17:09.513484"	135	7.18443358333333
"S200203"	"Conflict_Resolution"	"LEFT"	"LEFT"	881.167399999867	1500.000003	n/a	n/a	n/a	n/a	"True"	n/a	n/a	"2020-02-03 11:17:11.032509"	"2020-02-03 11:17:12.122257"	136	7.18443358333333
"S200203"	"Conflict_Resolution"	"LEFT"	"LEFT"	538.145299999996	1050.0000021	n/a	n/a	n/a	n/a	"False"	n/a	n/a	"2020-02-03 11:17:13.191681"	"2020-02-03 11:17:13.937809"	137	7.18443358333333
"S200203"	"Conflict_Resolution"	"LEFT"	"LEFT"	446.267199999966	950.0000019	n/a	n/a	n/a	n/a	"False"	n/a	n/a	"2020-02-03 11:17:14.907678"	"2020-02-03 11:17:15.560920"	138	7.18443358333333
"S200203"	"Conflict_Resolution"	"RIGHT"	"RIGHT"	556.014799999957	833.333335	n/a	n/a	n/a	n/a	"False"	n/a	n/a	"2020-02-03 11:17:16.414051"	"2020-02-03 11:17:17.177035"	139	7.18443358333333
"S200203"	"Conflict_Resolution"	"LEFT"	"LEFT"	740.840300000173	1216.6666691	n/a	n/a	n/a	n/a	"True"	n/a	n/a	"2020-02-03 11:17:18.412703"	"2020-02-03 11:17:19.361163"	140	7.18443358333333
"S200203"	"Conflict_Resolution"	"RIGHT"	"RIGHT"	709.353699999838	1000.000002	n/a	n/a	n/a	n/a	"True"	n/a	n/a	"2020-02-03 11:17:20.380193"	"2020-02-03 11:17:21.297740"	141	7.18443358333333
"S200203"	"Conflict_Resolution"	"RIGHT"	"RIGHT"	690.728799999988	650.0000013	n/a	n/a	n/a	n/a	"False"	n/a	n/a	"2020-02-03 11:17:21.966756"	"2020-02-03 11:17:22.865353"	142	7.18443358333333
"S200203"	"Conflict_Resolution"	"LEFT"	"LEFT"	540.749400000095	816.6666683	n/a	n/a	n/a	n/a	"False"	n/a	n/a	"2020-02-03 11:17:23.701346"	"2020-02-03 11:17:24.449131"	143	7.18443358333333
"S200203"	"Conflict_Resolution"	"RIGHT"	"RIGHT"	521.266900000001	900.0000018	n/a	n/a	n/a	n/a	"False"	n/a	n/a	"2020-02-03 11:17:25.367913"	"2020-02-03 11:17:26.097787"	144	7.18443358333333
"S200203"	"Conflict_Resolution"	"RIGHT"	"RIGHT"	457.631300000003	883.3333351	n/a	n/a	n/a	n/a	"False"	n/a	n/a	"2020-02-03 11:17:26.999603"	"2020-02-03 11:17:27.664960"	145	7.18443358333333
"S200203"	"Conflict_Resolution"	"LEFT"	"LEFT"	819.571100000076	616.6666679	n/a	n/a	n/a	n/a	"False"	n/a	n/a	"2020-02-03 11:17:28.301823"	"2020-02-03 11:17:29.330374"	146	7.18443358333333
"S200203"	"Conflict_Resolution"	"RIGHT"	"RIGHT"	471.219899999824	1316.6666693	n/a	n/a	n/a	n/a	"False"	n/a	n/a	"2020-02-03 11:17:30.666830"	"2020-02-03 11:17:31.345822"	147	7.18443358333333
"S200203"	"Conflict_Resolution"	"LEFT"	"LEFT"	630.858799999942	733.3333348	n/a	n/a	n/a	n/a	"False"	n/a	n/a	"2020-02-03 11:17:32.098990"	"2020-02-03 11:17:32.937199"	148	7.18443358333333
"S200203"	"Conflict_Resolution"	"RIGHT"	"RIGHT"	487.855999999965	933.3333352	n/a	n/a	n/a	n/a	"False"	n/a	n/a	"2020-02-03 11:17:33.890142"	"2020-02-03 11:17:34.585318"	149	7.18443358333333
"S200203"	"Conflict_Resolution"	"RIGHT"	"RIGHT"	1027.97120000014	1233.3333358	n/a	n/a	n/a	n/a	"True"	n/a	n/a	"2020-02-03 11:17:35.838050"	"2020-02-03 11:17:37.072992"	150	7.18443358333333
"S200203"	"Conflict_Resolution"	"RIGHT"	"RIGHT"	689.310999999861	700.0000014	n/a	n/a	n/a	n/a	"True"	n/a	n/a	"2020-02-03 11:17:37.791866"	"2020-02-03 11:17:38.689795"	151	7.18443358333333
"S200203"	"Conflict_Resolution"	"LEFT"	"LEFT"	831.905100000085	1300.0000026	n/a	n/a	n/a	n/a	"True"	n/a	n/a	"2020-02-03 11:17:40.009788"	"2020-02-03 11:17:41.051715"	152	7.18443358333333
"S200203"	"Conflict_Resolution"	"RIGHT"	"RIGHT"	532.86490000005	683.3333347	n/a	n/a	n/a	n/a	"False"	n/a	n/a	"2020-02-03 11:17:41.757048"	"2020-02-03 11:17:42.499052"	153	7.18443358333333
"S200203"	"Conflict_Resolution"	"LEFT"	"LEFT"	534.891799999968	1316.6666693	n/a	n/a	n/a	n/a	"False"	n/a	n/a	"2020-02-03 11:17:43.834492"	"2020-02-03 11:17:44.577249"	154	7.18443358333333
"S200203"	"Conflict_Resolution"	"RIGHT"	"RIGHT"	713.987800000041	1483.3333363	n/a	n/a	n/a	n/a	"True"	n/a	n/a	"2020-02-03 11:17:46.080024"	"2020-02-03 11:17:47.002637"	155	7.18443358333333
"S200203"	"Conflict_Resolution"	"LEFT"	"LEFT"	515.060800000128	866.6666684	n/a	n/a	n/a	n/a	"False"	n/a	n/a	"2020-02-03 11:17:47.886435"	"2020-02-03 11:17:48.609766"	156	7.18443358333333
"S200203"	"Conflict_Resolution"	"LEFT"	"LEFT"	548.354100000097	1216.6666691	n/a	n/a	n/a	n/a	"False"	n/a	n/a	"2020-02-03 11:17:49.844922"	"2020-02-03 11:17:50.601562"	157	7.18443358333333
"S200203"	"Conflict_Resolution"	"RIGHT"	"RIGHT"	791.46609999998	733.3333348	n/a	n/a	n/a	n/a	"True"	n/a	n/a	"2020-02-03 11:17:51.353891"	"2020-02-03 11:17:52.353480"	158	7.18443358333333
"S200203"	"Conflict_Resolution"	"RIGHT"	"RIGHT"	477.137299999868	1000.000002	n/a	n/a	n/a	n/a	"False"	n/a	n/a	"2020-02-03 11:17:53.372926"	"2020-02-03 11:17:54.057270"	159	7.18443358333333
"S200203"	"Conflict_Resolution"	"RIGHT"	"RIGHT"	697.292900000093	1083.3333355	n/a	n/a	n/a	n/a	"True"	n/a	n/a	"2020-02-03 11:17:55.160869"	"2020-02-03 11:17:56.066417"	160	7.18443358333333
"S200203"	"Processing_Speed"	"RIGHT"	"DOWN"	1154.0813	1216.6666691	n/a	n/a	n/a	n/a	n/a	n/a	n/a	"2020-02-03 10:59:32.637944"	"2020-02-03 10:59:34.010818"	1	2.74959096666667
"S200203"	"Processing_Speed"	"RIGHT"	"DOWN"	321.516300000013	1500.000003	n/a	n/a	n/a	n/a	n/a	n/a	n/a	"2020-02-03 10:59:35.518902"	"2020-02-03 10:59:36.048495"	2	2.74959096666667
"S200203"	"Processing_Speed"	"LEFT"	"DOWN"	350.207600000005	1016.6666687	n/a	n/a	n/a	n/a	n/a	n/a	n/a	"2020-02-03 10:59:37.073614"	"2020-02-03 10:59:37.632123"	3	2.74959096666667
"S200203"	"Processing_Speed"	"RIGHT"	"DOWN"	337.64290000002	733.3333348	n/a	n/a	n/a	n/a	n/a	n/a	n/a	"2020-02-03 10:59:38.374596"	"2020-02-03 10:59:38.920883"	4	2.74959096666667
"S200203"	"Processing_Speed"	"LEFT"	"DOWN"	345.310299999994	733.3333348	n/a	n/a	n/a	n/a	n/a	n/a	n/a	"2020-02-03 10:59:39.662953"	"2020-02-03 10:59:40.216075"	5	2.74959096666667
"S200203"	"Processing_Speed"	"LEFT"	"DOWN"	393.139999999988	1366.6666694	n/a	n/a	n/a	n/a	n/a	n/a	n/a	"2020-02-03 10:59:41.591163"	"2020-02-03 10:59:42.191043"	6	2.74959096666667
"S200203"	"Processing_Speed"	"RIGHT"	"DOWN"	303.0258	1050.0000021	n/a	n/a	n/a	n/a	n/a	n/a	n/a	"2020-02-03 10:59:43.249245"	"2020-02-03 10:59:43.761527"	7	2.74959096666667
"S200203"	"Processing_Speed"	"RIGHT"	"DOWN"	331.802100000004	1466.6666696	n/a	n/a	n/a	n/a	n/a	n/a	n/a	"2020-02-03 10:59:45.236378"	"2020-02-03 10:59:45.777534"	8	2.74959096666667
"S200203"	"Processing_Speed"	"LEFT"	"DOWN"	297.0708	1333.333336	n/a	n/a	n/a	n/a	n/a	n/a	n/a	"2020-02-03 10:59:47.119526"	"2020-02-03 10:59:47.623185"	9	2.74959096666667
"S200203"	"Processing_Speed"	"LEFT"	"DOWN"	415.620700000005	633.3333346	n/a	n/a	n/a	n/a	n/a	n/a	n/a	"2020-02-03 10:59:48.264626"	"2020-02-03 10:59:48.888680"	10	2.74959096666667
"S200203"	"Processing_Speed"	"RIGHT"	"DOWN"	274.716699999999	1300.0000026	n/a	n/a	n/a	n/a	n/a	n/a	n/a	"2020-02-03 10:59:50.197521"	"2020-02-03 10:59:50.679304"	11	2.74959096666667
"S200203"	"Processing_Speed"	"RIGHT"	"DOWN"	297.987699999993	1183.3333357	n/a	n/a	n/a	n/a	n/a	n/a	n/a	"2020-02-03 10:59:51.870630"	"2020-02-03 10:59:52.376727"	12	2.74959096666667
"S200203"	"Processing_Speed"	"RIGHT"	"DOWN"	377.462199999997	500.000001	n/a	n/a	n/a	n/a	n/a	n/a	n/a	"2020-02-03 10:59:52.887397"	"2020-02-03 10:59:53.472610"	13	2.74959096666667
"S200203"	"Processing_Speed"	"RIGHT"	"DOWN"	271.577900000011	783.3333349	n/a	n/a	n/a	n/a	n/a	n/a	n/a	"2020-02-03 10:59:54.264523"	"2020-02-03 10:59:54.743026"	14	2.74959096666667
"S200203"	"Processing_Speed"	"LEFT"	"DOWN"	332.784600000025	500.000001	n/a	n/a	n/a	n/a	n/a	n/a	n/a	"2020-02-03 10:59:55.251918"	"2020-02-03 10:59:55.792798"	15	2.74959096666667
"S200203"	"Processing_Speed"	"LEFT"	"DOWN"	289.996400000007	1500.000003	n/a	n/a	n/a	n/a	n/a	n/a	n/a	"2020-02-03 10:59:57.302701"	"2020-02-03 10:59:57.799960"	16	2.74959096666667
"S200203"	"Processing_Speed"	"LEFT"	"DOWN"	305.891199999991	1150.0000023	n/a	n/a	n/a	n/a	n/a	n/a	n/a	"2020-02-03 10:59:58.958042"	"2020-02-03 10:59:59.472649"	17	2.74959096666667
"S200203"	"Processing_Speed"	"RIGHT"	"DOWN"	281.764199999998	916.6666685	n/a	n/a	n/a	n/a	n/a	n/a	n/a	"2020-02-03 11:00:00.398792"	"2020-02-03 11:00:00.888177"	18	2.74959096666667
"S200203"	"Processing_Speed"	"LEFT"	"DOWN"	302.850800000016	816.6666683	n/a	n/a	n/a	n/a	n/a	n/a	n/a	"2020-02-03 11:00:01.713776"	"2020-02-03 11:00:02.225722"	19	2.74959096666667
"S200203"	"Processing_Speed"	"RIGHT"	"DOWN"	322.864799999991	883.3333351	n/a	n/a	n/a	n/a	n/a	n/a	n/a	"2020-02-03 11:00:03.117183"	"2020-02-03 11:00:03.648757"	20	2.74959096666667
"S200203"	"Processing_Speed"	"LEFT"	"DOWN"	298.308599999984	916.6666685	n/a	n/a	n/a	n/a	n/a	n/a	n/a	"2020-02-03 11:00:04.574125"	"2020-02-03 11:00:05.080625"	21	2.74959096666667
"S200203"	"Processing_Speed"	"RIGHT"	"DOWN"	306.087700000006	533.3333344	n/a	n/a	n/a	n/a	n/a	n/a	n/a	"2020-02-03 11:00:05.622194"	"2020-02-03 11:00:06.136496"	22	2.74959096666667
"S200203"	"Processing_Speed"	"LEFT"	"DOWN"	286.619400000006	1216.6666691	n/a	n/a	n/a	n/a	n/a	n/a	n/a	"2020-02-03 11:00:07.361999"	"2020-02-03 11:00:07.856010"	23	2.74959096666667
"S200203"	"Processing_Speed"	"LEFT"	"DOWN"	286.512399999992	1433.3333362	n/a	n/a	n/a	n/a	n/a	n/a	n/a	"2020-02-03 11:00:09.297614"	"2020-02-03 11:00:09.791235"	24	2.74959096666667
"S200203"	"Processing_Speed"	"LEFT"	"DOWN"	350.831099999994	1050.0000021	n/a	n/a	n/a	n/a	n/a	n/a	n/a	"2020-02-03 11:00:10.849839"	"2020-02-03 11:00:11.407985"	25	2.74959096666667
"S200203"	"Processing_Speed"	"LEFT"	"DOWN"	356.616699999989	883.3333351	n/a	n/a	n/a	n/a	n/a	n/a	n/a	"2020-02-03 11:00:12.300029"	"2020-02-03 11:00:12.864102"	26	2.74959096666667
"S200203"	"Processing_Speed"	"RIGHT"	"DOWN"	287.219700000009	1016.6666687	n/a	n/a	n/a	n/a	n/a	n/a	n/a	"2020-02-03 11:00:13.889460"	"2020-02-03 11:00:14.384836"	27	2.74959096666667
"S200203"	"Processing_Speed"	"LEFT"	"DOWN"	307.506499999988	1083.3333355	n/a	n/a	n/a	n/a	n/a	n/a	n/a	"2020-02-03 11:00:15.476542"	"2020-02-03 11:00:15.992500"	28	2.74959096666667
"S200203"	"Processing_Speed"	"LEFT"	"DOWN"	301.276099999995	850.0000017	n/a	n/a	n/a	n/a	n/a	n/a	n/a	"2020-02-03 11:00:16.851604"	"2020-02-03 11:00:17.360323"	29	2.74959096666667
"S200203"	"Processing_Speed"	"LEFT"	"DOWN"	402.412300000009	533.3333344	n/a	n/a	n/a	n/a	n/a	n/a	n/a	"2020-02-03 11:00:17.901861"	"2020-02-03 11:00:18.512232"	30	2.74959096666667
"S200203"	"Processing_Speed"	"LEFT"	"DOWN"	331.217600000002	700.0000014	n/a	n/a	n/a	n/a	n/a	n/a	n/a	"2020-02-03 11:00:19.220985"	"2020-02-03 11:00:19.760584"	31	2.74959096666667
"S200203"	"Processing_Speed"	"LEFT"	"DOWN"	336.216900000011	1183.3333357	n/a	n/a	n/a	n/a	n/a	n/a	n/a	"2020-02-03 11:00:20.952121"	"2020-02-03 11:00:21.496678"	32	2.74959096666667
"S200203"	"Processing_Speed"	"RIGHT"	"DOWN"	298.371400000008	1116.6666689	n/a	n/a	n/a	n/a	n/a	n/a	n/a	"2020-02-03 11:00:22.622273"	"2020-02-03 11:00:23.130801"	33	2.74959096666667
"S200203"	"Processing_Speed"	"LEFT"	"DOWN"	315.068700000012	600.0000012	n/a	n/a	n/a	n/a	n/a	n/a	n/a	"2020-02-03 11:00:23.740871"	"2020-02-03 11:00:24.264574"	34	2.74959096666667
"S200203"	"Processing_Speed"	"RIGHT"	"DOWN"	275.956699999995	1266.6666692	n/a	n/a	n/a	n/a	n/a	n/a	n/a	"2020-02-03 11:00:25.540966"	"2020-02-03 11:00:26.024102"	35	2.74959096666667
"S200203"	"Processing_Speed"	"LEFT"	"DOWN"	276.924500000007	1266.6666692	n/a	n/a	n/a	n/a	n/a	n/a	n/a	"2020-02-03 11:00:27.299439"	"2020-02-03 11:00:27.784220"	36	2.74959096666667
"S200203"	"Processing_Speed"	"LEFT"	"DOWN"	512.442399999998	983.3333353	n/a	n/a	n/a	n/a	n/a	n/a	n/a	"2020-02-03 11:00:28.775796"	"2020-02-03 11:00:29.496256"	37	2.74959096666667
"S200203"	"Processing_Speed"	"LEFT"	"DOWN"	291.669300000024	1300.0000026	n/a	n/a	n/a	n/a	n/a	n/a	n/a	"2020-02-03 11:00:30.805042"	"2020-02-03 11:00:31.303249"	38	2.74959096666667
"S200203"	"Processing_Speed"	"LEFT"	"DOWN"	457.937600000037	566.6666678	n/a	n/a	n/a	n/a	n/a	n/a	n/a	"2020-02-03 11:00:31.877942"	"2020-02-03 11:00:32.544160"	39	2.74959096666667
"S200203"	"Processing_Speed"	"LEFT"	"DOWN"	292.97779999996	1466.6666696	n/a	n/a	n/a	n/a	n/a	n/a	n/a	"2020-02-03 11:00:34.019736"	"2020-02-03 11:00:34.521668"	40	2.74959096666667
"S200203"	"Processing_Speed"	"RIGHT"	"DOWN"	296.041500000001	1333.333336	n/a	n/a	n/a	n/a	n/a	n/a	n/a	"2020-02-03 11:00:35.864160"	"2020-02-03 11:00:36.368094"	41	2.74959096666667
"S200203"	"Processing_Speed"	"LEFT"	"DOWN"	287.140000000022	1400.0000028	n/a	n/a	n/a	n/a	n/a	n/a	n/a	"2020-02-03 11:00:37.777169"	"2020-02-03 11:00:38.272879"	42	2.74959096666667
"S200203"	"Processing_Speed"	"RIGHT"	"DOWN"	279.688799999974	983.3333353	n/a	n/a	n/a	n/a	n/a	n/a	n/a	"2020-02-03 11:00:39.265112"	"2020-02-03 11:00:39.752474"	43	2.74959096666667
"S200203"	"Processing_Speed"	"RIGHT"	"DOWN"	351.160999999991	600.0000012	n/a	n/a	n/a	n/a	n/a	n/a	n/a	"2020-02-03 11:00:40.360877"	"2020-02-03 11:00:40.920346"	44	2.74959096666667
"S200203"	"Processing_Speed"	"RIGHT"	"DOWN"	315.512300000023	700.0000014	n/a	n/a	n/a	n/a	n/a	n/a	n/a	"2020-02-03 11:00:41.629208"	"2020-02-03 11:00:42.152809"	45	2.74959096666667
"S200203"	"Processing_Speed"	"LEFT"	"DOWN"	316.480000000013	666.666668	n/a	n/a	n/a	n/a	n/a	n/a	n/a	"2020-02-03 11:00:42.828249"	"2020-02-03 11:00:43.351964"	46	2.74959096666667
"S200203"	"Processing_Speed"	"LEFT"	"DOWN"	305.791699999986	950.0000019	n/a	n/a	n/a	n/a	n/a	n/a	n/a	"2020-02-03 11:00:44.310328"	"2020-02-03 11:00:44.824825"	47	2.74959096666667
"S200203"	"Processing_Speed"	"RIGHT"	"DOWN"	299.8963	666.666668	n/a	n/a	n/a	n/a	n/a	n/a	n/a	"2020-02-03 11:00:45.500843"	"2020-02-03 11:00:46.008499"	48	2.74959096666667
"S200203"	"Processing_Speed"	"RIGHT"	"DOWN"	294.119200000011	1433.3333362	n/a	n/a	n/a	n/a	n/a	n/a	n/a	"2020-02-03 11:00:47.450063"	"2020-02-03 11:00:47.952242"	49	2.74959096666667
"S200203"	"Processing_Speed"	"RIGHT"	"DOWN"	304.757900000027	566.6666678	n/a	n/a	n/a	n/a	n/a	n/a	n/a	"2020-02-03 11:00:48.527539"	"2020-02-03 11:00:49.040778"	50	2.74959096666667
"S200203"	"Processing_Speed"	"RIGHT"	"DOWN"	279.899299999954	1366.6666694	n/a	n/a	n/a	n/a	n/a	n/a	n/a	"2020-02-03 11:00:50.416575"	"2020-02-03 11:00:50.904869"	51	2.74959096666667
"S200203"	"Processing_Speed"	"RIGHT"	"DOWN"	268.390199999999	850.0000017	n/a	n/a	n/a	n/a	n/a	n/a	n/a	"2020-02-03 11:00:51.763601"	"2020-02-03 11:00:52.240412"	52	2.74959096666667
"S200203"	"Processing_Speed"	"RIGHT"	"DOWN"	273.305999999991	950.0000019	n/a	n/a	n/a	n/a	n/a	n/a	n/a	"2020-02-03 11:00:53.198997"	"2020-02-03 11:00:53.680826"	53	2.74959096666667
"S200203"	"Processing_Speed"	"RIGHT"	"DOWN"	295.761699999957	1400.0000028	n/a	n/a	n/a	n/a	n/a	n/a	n/a	"2020-02-03 11:00:55.089477"	"2020-02-03 11:00:55.592826"	54	2.74959096666667
"S200203"	"Processing_Speed"	"RIGHT"	"DOWN"	264.891900000009	1150.0000023	n/a	n/a	n/a	n/a	n/a	n/a	n/a	"2020-02-03 11:00:56.751486"	"2020-02-03 11:00:57.224658"	55	2.74959096666667
"S200203"	"Processing_Speed"	"LEFT"	"DOWN"	279.667500000016	783.3333349	n/a	n/a	n/a	n/a	n/a	n/a	n/a	"2020-02-03 11:00:58.016613"	"2020-02-03 11:00:58.503846"	56	2.74959096666667
"S200203"	"Processing_Speed"	"RIGHT"	"DOWN"	276.687000000038	1083.3333355	n/a	n/a	n/a	n/a	n/a	n/a	n/a	"2020-02-03 11:00:59.596060"	"2020-02-03 11:01:00.079148"	57	2.74959096666667
"S200203"	"Processing_Speed"	"LEFT"	"DOWN"	307.9745	1116.6666689	n/a	n/a	n/a	n/a	n/a	n/a	n/a	"2020-02-03 11:01:01.204348"	"2020-02-03 11:01:01.720071"	58	2.74959096666667
"S200203"	"Processing_Speed"	"RIGHT"	"DOWN"	383.257500000013	816.6666683	n/a	n/a	n/a	n/a	n/a	n/a	n/a	"2020-02-03 11:01:02.545449"	"2020-02-03 11:01:03.136608"	59	2.74959096666667
"S200203"	"Processing_Speed"	"RIGHT"	"DOWN"	286.675900000034	633.3333346	n/a	n/a	n/a	n/a	n/a	n/a	n/a	"2020-02-03 11:01:03.778062"	"2020-02-03 11:01:04.272726"	60	2.74959096666667
"S200203"	"Response_Inhibition"	"LEFT"	"LEFT"	404.506999999967	550.0000011	n/a	n/a	n/a	n/a	n/a	n/a	n/a	"2020-02-03 11:05:11.412193"	"2020-02-03 11:05:12.025433"	1	6.73648365
"S200203"	"Response_Inhibition"	"RIGHT"	"RIGHT"	317.270333899924	533.3333344	n/a	n/a	n/a	n/a	n/a	n/a	n/a	"2020-02-03 11:05:12.568546"	"2020-02-03 11:05:13.097805"	2	6.73648365
"S200203"	"Response_Inhibition"	"RIGHT"	"RIGHT"	558.072100000004	1416.6666695	n/a	n/a	n/a	n/a	n/a	n/a	n/a	"2020-02-03 11:05:14.522839"	"2020-02-03 11:05:15.288161"	3	6.73648365
"S200203"	"Response_Inhibition"	"RIGHT"	"RIGHT"	426.642799999968	533.3333344	n/a	n/a	n/a	n/a	n/a	n/a	n/a	"2020-02-03 11:05:15.829614"	"2020-02-03 11:05:16.464170"	4	6.73648365
"S200203"	"Response_Inhibition"	"RIGHT"	"RIGHT"	390.622900000039	1016.6666687	n/a	n/a	n/a	n/a	n/a	n/a	n/a	"2020-02-03 11:05:17.490471"	"2020-02-03 11:05:18.088872"	5	6.73648365
"S200203"	"Response_Inhibition"	"RIGHT"	"RIGHT"	382.658767099926	1333.333336	n/a	n/a	n/a	n/a	n/a	n/a	n/a	"2020-02-03 11:05:19.431032"	"2020-02-03 11:05:20.024598"	6	6.73648365
"S200203"	"Response_Inhibition"	"RIGHT"	"RIGHT"	625.028400000019	966.6666686	n/a	n/a	n/a	n/a	n/a	n/a	n/a	"2020-02-03 11:05:20.999825"	"2020-02-03 11:05:21.832364"	7	6.73648365
"S200203"	"Response_Inhibition"	"LEFT"	"LEFT"	366.689400000041	1033.3333354	n/a	n/a	n/a	n/a	n/a	n/a	n/a	"2020-02-03 11:05:22.873926"	"2020-02-03 11:05:23.449573"	8	6.73648365
"S200203"	"Response_Inhibition"	"RIGHT"	"RIGHT"	427.25310000003	683.3333347	n/a	n/a	n/a	n/a	n/a	n/a	n/a	"2020-02-03 11:05:24.141423"	"2020-02-03 11:05:24.777449"	9	6.73648365
"S200203"	"Response_Inhibition"	"RIGHT"	"Time_Max_Exceeded"	1500.05639999995	733.3333348	n/a	n/a	n/a	n/a	n/a	n/a	n/a	"2020-02-03 11:05:25.519115"	"2020-02-03 11:05:27.019110"	10	6.73648365
"S200203"	"Response_Inhibition"	"LEFT"	"Time_Max_Exceeded"	1500.04710010001	1266.6666692	n/a	n/a	n/a	n/a	n/a	n/a	n/a	"2020-02-03 11:05:28.295518"	"2020-02-03 11:05:29.798146"	11	6.73648365
"S200203"	"Response_Inhibition"	"LEFT"	"LEFT"	474.603867100015	1283.3333359	n/a	n/a	n/a	n/a	n/a	n/a	n/a	"2020-02-03 11:05:31.091229"	"2020-02-03 11:05:31.775964"	12	6.73648365
"S200203"	"Response_Inhibition"	"RIGHT"	"Time_Max_Exceeded"	1500.05186690002	950.0000019	n/a	n/a	n/a	n/a	n/a	n/a	n/a	"2020-02-03 11:05:32.734442"	"2020-02-03 11:05:34.238129"	13	6.73648365
"S200203"	"Response_Inhibition"	"RIGHT"	"Time_Max_Exceeded"	1500.05953339993	1383.3333361	n/a	n/a	n/a	n/a	n/a	n/a	n/a	"2020-02-03 11:05:35.629972"	"2020-02-03 11:05:37.132927"	14	6.73648365
"S200203"	"Response_Inhibition"	"LEFT"	"LEFT"	426.605300000006	1200.0000024	n/a	n/a	n/a	n/a	n/a	n/a	n/a	"2020-02-03 11:05:38.342323"	"2020-02-03 11:05:38.977379"	15	6.73648365
"S200203"	"Response_Inhibition"	"RIGHT"	"RIGHT"	659.069900000077	1266.6666692	n/a	n/a	n/a	n/a	n/a	n/a	n/a	"2020-02-03 11:05:40.253970"	"2020-02-03 11:05:41.120336"	16	6.73648365
"S200203"	"Response_Inhibition"	"LEFT"	"LEFT"	641.449699999953	1366.6666694	n/a	n/a	n/a	n/a	n/a	n/a	n/a	"2020-02-03 11:05:42.494923"	"2020-02-03 11:05:43.344007"	17	6.73648365
"S200203"	"Response_Inhibition"	"LEFT"	"LEFT"	767.488699999944	1416.6666695	n/a	n/a	n/a	n/a	n/a	n/a	n/a	"2020-02-03 11:05:44.768847"	"2020-02-03 11:05:45.744573"	18	6.73648365
"S200203"	"Response_Inhibition"	"RIGHT"	"Time_Max_Exceeded"	1500.07480060004	500.000001	n/a	n/a	n/a	n/a	n/a	n/a	n/a	"2020-02-03 11:05:46.253004"	"2020-02-03 11:05:47.755980"	19	6.73648365
"S200203"	"Response_Inhibition"	"RIGHT"	"Time_Max_Exceeded"	1500.04633400007	1233.3333358	n/a	n/a	n/a	n/a	n/a	n/a	n/a	"2020-02-03 11:05:48.999087"	"2020-02-03 11:05:50.502235"	20	6.73648365
"S200203"	"Response_Inhibition"	"RIGHT"	"RIGHT"	870.048099999963	866.6666684	n/a	n/a	n/a	n/a	n/a	n/a	n/a	"2020-02-03 11:05:51.378838"	"2020-02-03 11:05:52.455918"	21	6.73648365
"S200203"	"Response_Inhibition"	"LEFT"	"LEFT"	750.859799999944	633.3333346	n/a	n/a	n/a	n/a	n/a	n/a	n/a	"2020-02-03 11:05:53.098394"	"2020-02-03 11:05:54.056510"	22	6.73648365
"S200203"	"Response_Inhibition"	"LEFT"	"LEFT"	858.411599999954	933.3333352	n/a	n/a	n/a	n/a	n/a	n/a	n/a	"2020-02-03 11:05:54.998307"	"2020-02-03 11:05:56.065438"	23	6.73648365
"S200203"	"Response_Inhibition"	"RIGHT"	"RIGHT"	751.48989999991	783.3333349	n/a	n/a	n/a	n/a	n/a	n/a	n/a	"2020-02-03 11:05:56.857214"	"2020-02-03 11:05:57.816868"	24	6.73648365
"S200203"	"Response_Inhibition"	"RIGHT"	"Time_Max_Exceeded"	1500.04483350002	800.0000016	n/a	n/a	n/a	n/a	n/a	n/a	n/a	"2020-02-03 11:05:58.626372"	"2020-02-03 11:06:00.129552"	25	6.73648365
"S200203"	"Response_Inhibition"	"LEFT"	"LEFT"	594.773799999984	1466.6666696	n/a	n/a	n/a	n/a	n/a	n/a	n/a	"2020-02-03 11:06:01.606103"	"2020-02-03 11:06:02.409464"	26	6.73648365
"S200203"	"Response_Inhibition"	"LEFT"	"LEFT"	788.713700000017	1250.0000025	n/a	n/a	n/a	n/a	n/a	n/a	n/a	"2020-02-03 11:06:03.668396"	"2020-02-03 11:06:04.665678"	27	6.73648365
"S200203"	"Response_Inhibition"	"LEFT"	"Time_Max_Exceeded"	1500.04846719996	1100.0000022	n/a	n/a	n/a	n/a	n/a	n/a	n/a	"2020-02-03 11:06:05.776178"	"2020-02-03 11:06:07.279305"	28	6.73648365
"S200203"	"Response_Inhibition"	"LEFT"	"LEFT"	765.673300000003	866.6666684	n/a	n/a	n/a	n/a	n/a	n/a	n/a	"2020-02-03 11:06:08.155040"	"2020-02-03 11:06:09.128274"	29	6.73648365
"S200203"	"Response_Inhibition"	"RIGHT"	"RIGHT"	716.03570000002	900.0000018	n/a	n/a	n/a	n/a	n/a	n/a	n/a	"2020-02-03 11:06:10.036515"	"2020-02-03 11:06:10.960863"	30	6.73648365
"S200203"	"Response_Inhibition"	"LEFT"	"Time_Max_Exceeded"	1500.05823349996	716.6666681	n/a	n/a	n/a	n/a	n/a	n/a	n/a	"2020-02-03 11:06:11.685867"	"2020-02-03 11:06:13.189324"	31	6.73648365
"S200203"	"Response_Inhibition"	"LEFT"	"LEFT"	678.082099999983	500.000001	n/a	n/a	n/a	n/a	n/a	n/a	n/a	"2020-02-03 11:06:13.698476"	"2020-02-03 11:06:14.584499"	32	6.73648365
"S200203"	"Response_Inhibition"	"LEFT"	"LEFT"	754.757000000041	900.0000018	n/a	n/a	n/a	n/a	n/a	n/a	n/a	"2020-02-03 11:06:15.494204"	"2020-02-03 11:06:16.456318"	33	6.73648365
"S200203"	"Response_Inhibition"	"LEFT"	"LEFT"	561.354300000062	766.6666682	n/a	n/a	n/a	n/a	n/a	n/a	n/a	"2020-02-03 11:06:17.231043"	"2020-02-03 11:06:18.000834"	34	6.73648365
"S200203"	"Response_Inhibition"	"LEFT"	"LEFT"	658.236699999975	533.3333344	n/a	n/a	n/a	n/a	n/a	n/a	n/a	"2020-02-03 11:06:18.542965"	"2020-02-03 11:06:19.408671"	35	6.73648365
"S200203"	"Response_Inhibition"	"LEFT"	"LEFT"	613.701999999989	1050.0000021	n/a	n/a	n/a	n/a	n/a	n/a	n/a	"2020-02-03 11:06:20.466730"	"2020-02-03 11:06:21.289664"	36	6.73648365
"S200203"	"Response_Inhibition"	"RIGHT"	"RIGHT"	701.649900000007	833.333335	n/a	n/a	n/a	n/a	n/a	n/a	n/a	"2020-02-03 11:06:22.131292"	"2020-02-03 11:06:23.040631"	37	6.73648365
"S200203"	"Response_Inhibition"	"RIGHT"	"RIGHT"	671.843700000068	566.6666678	n/a	n/a	n/a	n/a	n/a	n/a	n/a	"2020-02-03 11:06:23.616781"	"2020-02-03 11:06:24.496884"	38	6.73648365
"S200203"	"Response_Inhibition"	"RIGHT"	"RIGHT"	853.771800000004	1433.3333362	n/a	n/a	n/a	n/a	n/a	n/a	n/a	"2020-02-03 11:06:25.938842"	"2020-02-03 11:06:27.000808"	39	6.73648365
"S200203"	"Response_Inhibition"	"LEFT"	"LEFT"	692.925500000001	1066.6666688	n/a	n/a	n/a	n/a	n/a	n/a	n/a	"2020-02-03 11:06:28.075580"	"2020-02-03 11:06:28.976910"	40	6.73648365
"S200203"	"Response_Inhibition"	"RIGHT"	"RIGHT"	957.823899999994	1033.3333354	n/a	n/a	n/a	n/a	n/a	n/a	n/a	"2020-02-03 11:06:30.018612"	"2020-02-03 11:06:31.184616"	41	6.73648365
"S200203"	"Response_Inhibition"	"RIGHT"	"RIGHT"	925.100000000043	1466.6666696	n/a	n/a	n/a	n/a	n/a	n/a	n/a	"2020-02-03 11:06:32.659399"	"2020-02-03 11:06:33.792236"	42	6.73648365
"S200203"	"Response_Inhibition"	"LEFT"	"Time_Max_Exceeded"	1500.05586699994	1383.3333361	n/a	n/a	n/a	n/a	n/a	n/a	n/a	"2020-02-03 11:06:35.184289"	"2020-02-03 11:06:36.686765"	43	6.73648365
"S200203"	"Response_Inhibition"	"LEFT"	"LEFT"	739.02099999998	1133.3333356	n/a	n/a	n/a	n/a	n/a	n/a	n/a	"2020-02-03 11:06:37.829458"	"2020-02-03 11:06:38.777584"	44	6.73648365
"S200203"	"Response_Inhibition"	"RIGHT"	"RIGHT"	919.291000000044	583.3333345	n/a	n/a	n/a	n/a	n/a	n/a	n/a	"2020-02-03 11:06:39.369573"	"2020-02-03 11:06:40.496297"	45	6.73648365
"S200203"	"Response_Inhibition"	"LEFT"	"LEFT"	660.695000000032	1483.3333363	n/a	n/a	n/a	n/a	n/a	n/a	n/a	"2020-02-03 11:06:41.987990"	"2020-02-03 11:06:42.856264"	46	6.73648365
"S200203"	"Response_Inhibition"	"LEFT"	"LEFT"	858.686899999952	1333.333336	n/a	n/a	n/a	n/a	n/a	n/a	n/a	"2020-02-03 11:06:44.197828"	"2020-02-03 11:06:45.264716"	47	6.73648365
"S200203"	"Response_Inhibition"	"RIGHT"	"Time_Max_Exceeded"	1500.07943390002	766.6666682	n/a	n/a	n/a	n/a	n/a	n/a	n/a	"2020-02-03 11:06:46.039299"	"2020-02-03 11:06:47.542955"	48	6.73648365
"S200203"	"Response_Inhibition"	"LEFT"	"LEFT"	571.727200000055	516.6666677	n/a	n/a	n/a	n/a	n/a	n/a	n/a	"2020-02-03 11:06:48.069553"	"2020-02-03 11:06:48.848644"	49	6.73648365
"S200203"	"Response_Inhibition"	"RIGHT"	"RIGHT"	676.246300000003	883.3333351	n/a	n/a	n/a	n/a	n/a	n/a	n/a	"2020-02-03 11:06:49.740719"	"2020-02-03 11:06:50.624197"	50	6.73648365
"S200203"	"Response_Inhibition"	"LEFT"	"LEFT"	632.02160000003	1400.0000028	n/a	n/a	n/a	n/a	n/a	n/a	n/a	"2020-02-03 11:06:52.033264"	"2020-02-03 11:06:52.872247"	51	6.73648365
"S200203"	"Response_Inhibition"	"LEFT"	"Time_Max_Exceeded"	1500.05803370001	1316.6666693	n/a	n/a	n/a	n/a	n/a	n/a	n/a	"2020-02-03 11:06:54.197790"	"2020-02-03 11:06:55.700562"	52	6.73648365
"S200203"	"Response_Inhibition"	"RIGHT"	"RIGHT"	760.14889999999	1266.6666692	n/a	n/a	n/a	n/a	n/a	n/a	n/a	"2020-02-03 11:06:56.976967"	"2020-02-03 11:06:57.944183"	53	6.73648365
"S200203"	"Response_Inhibition"	"LEFT"	"LEFT"	778.197699999964	750.0000015	n/a	n/a	n/a	n/a	n/a	n/a	n/a	"2020-02-03 11:06:58.702811"	"2020-02-03 11:06:59.688299"	54	6.73648365
"S200203"	"Response_Inhibition"	"RIGHT"	"RIGHT"	708.818800000017	683.3333347	n/a	n/a	n/a	n/a	n/a	n/a	n/a	"2020-02-03 11:07:00.380098"	"2020-02-03 11:07:01.296794"	55	6.73648365
"S200203"	"Response_Inhibition"	"RIGHT"	"RIGHT"	599.021099999959	616.6666679	n/a	n/a	n/a	n/a	n/a	n/a	n/a	"2020-02-03 11:07:01.921919"	"2020-02-03 11:07:02.727916"	56	6.73648365
"S200203"	"Response_Inhibition"	"RIGHT"	"Time_Max_Exceeded"	1500.05270019995	1100.0000022	n/a	n/a	n/a	n/a	n/a	n/a	n/a	"2020-02-03 11:07:03.836152"	"2020-02-03 11:07:05.339344"	57	6.73648365
"S200203"	"Response_Inhibition"	"LEFT"	"Time_Max_Exceeded"	1500.0506336	900.0000018	n/a	n/a	n/a	n/a	n/a	n/a	n/a	"2020-02-03 11:07:06.248746"	"2020-02-03 11:07:07.751910"	58	6.73648365
"S200203"	"Response_Inhibition"	"RIGHT"	"RIGHT"	689.464100000009	1150.0000023	n/a	n/a	n/a	n/a	n/a	n/a	n/a	"2020-02-03 11:07:08.911495"	"2020-02-03 11:07:09.809499"	59	6.73648365
"S200203"	"Response_Inhibition"	"RIGHT"	"RIGHT"	721.765799999957	933.3333352	n/a	n/a	n/a	n/a	n/a	n/a	n/a	"2020-02-03 11:07:10.750987"	"2020-02-03 11:07:11.680375"	60	6.73648365
"S200203"	"Response_Inhibition"	"RIGHT"	"RIGHT"	661.654300000009	1466.6666696	n/a	n/a	n/a	n/a	n/a	n/a	n/a	"2020-02-03 11:07:13.155482"	"2020-02-03 11:07:14.025364"	61	6.73648365
"S200203"	"Response_Inhibition"	"RIGHT"	"RIGHT"	612.770699999942	850.0000017	n/a	n/a	n/a	n/a	n/a	n/a	n/a	"2020-02-03 11:07:14.883802"	"2020-02-03 11:07:15.705400"	62	6.73648365
"S200203"	"Response_Inhibition"	"LEFT"	"Time_Max_Exceeded"	1500.05230039995	1150.0000023	n/a	n/a	n/a	n/a	n/a	n/a	n/a	"2020-02-03 11:07:16.863565"	"2020-02-03 11:07:18.367377"	63	6.73648365
"S200203"	"Response_Inhibition"	"LEFT"	"LEFT"	771.561700000007	733.3333348	n/a	n/a	n/a	n/a	n/a	n/a	n/a	"2020-02-03 11:07:19.109118"	"2020-02-03 11:07:20.088856"	64	6.73648365
"S200203"	"Response_Inhibition"	"LEFT"	"LEFT"	704.96049999997	1366.6666694	n/a	n/a	n/a	n/a	n/a	n/a	n/a	"2020-02-03 11:07:21.464022"	"2020-02-03 11:07:22.376382"	65	6.73648365
"S200203"	"Response_Inhibition"	"RIGHT"	"RIGHT"	610.911399999964	1116.6666689	n/a	n/a	n/a	n/a	n/a	n/a	n/a	"2020-02-03 11:07:23.501630"	"2020-02-03 11:07:24.320246"	66	6.73648365
"S200203"	"Response_Inhibition"	"LEFT"	"LEFT"	681.538299999943	966.6666686	n/a	n/a	n/a	n/a	n/a	n/a	n/a	"2020-02-03 11:07:25.295509"	"2020-02-03 11:07:26.184818"	67	6.73648365
"S200203"	"Response_Inhibition"	"LEFT"	"LEFT"	678.492000000006	633.3333346	n/a	n/a	n/a	n/a	n/a	n/a	n/a	"2020-02-03 11:07:26.826300"	"2020-02-03 11:07:27.712914"	68	6.73648365
"S200203"	"Response_Inhibition"	"RIGHT"	"RIGHT"	779.216899999938	1500.000003	n/a	n/a	n/a	n/a	n/a	n/a	n/a	"2020-02-03 11:07:29.221923"	"2020-02-03 11:07:30.209358"	69	6.73648365
"S200203"	"Response_Inhibition"	"RIGHT"	"RIGHT"	840.075599999977	1366.6666694	n/a	n/a	n/a	n/a	n/a	n/a	n/a	"2020-02-03 11:07:31.584759"	"2020-02-03 11:07:32.633805"	70	6.73648365
"S200203"	"Response_Inhibition"	"RIGHT"	"RIGHT"	836.727399999972	650.0000013	n/a	n/a	n/a	n/a	n/a	n/a	n/a	"2020-02-03 11:07:33.291866"	"2020-02-03 11:07:34.336847"	71	6.73648365
"S200203"	"Response_Inhibition"	"LEFT"	"LEFT"	1055.83390000004	800.0000016	n/a	n/a	n/a	n/a	n/a	n/a	n/a	"2020-02-03 11:07:35.145173"	"2020-02-03 11:07:36.409470"	72	6.73648365
"S200203"	"Response_Inhibition"	"LEFT"	"Time_Max_Exceeded"	1500.04593389994	533.3333344	n/a	n/a	n/a	n/a	n/a	n/a	n/a	"2020-02-03 11:07:36.952354"	"2020-02-03 11:07:38.455233"	73	6.73648365
"S200203"	"Response_Inhibition"	"LEFT"	"Time_Max_Exceeded"	1500.05266690009	1050.0000021	n/a	n/a	n/a	n/a	n/a	n/a	n/a	"2020-02-03 11:07:39.514326"	"2020-02-03 11:07:41.017703"	74	6.73648365
"S200203"	"Response_Inhibition"	"LEFT"	"LEFT"	656.279600000062	950.0000019	n/a	n/a	n/a	n/a	n/a	n/a	n/a	"2020-02-03 11:07:41.976940"	"2020-02-03 11:07:42.841624"	75	6.73648365
"S200203"	"Response_Inhibition"	"LEFT"	"LEFT"	627.780400000006	1083.3333355	n/a	n/a	n/a	n/a	n/a	n/a	n/a	"2020-02-03 11:07:43.933638"	"2020-02-03 11:07:44.769694"	76	6.73648365
"S200203"	"Response_Inhibition"	"RIGHT"	"RIGHT"	1021.45530000007	633.3333346	n/a	n/a	n/a	n/a	n/a	n/a	n/a	"2020-02-03 11:07:45.411830"	"2020-02-03 11:07:46.640387"	77	6.73648365
"S200203"	"Response_Inhibition"	"RIGHT"	"Time_Max_Exceeded"	1500.05816669993	1450.0000029	n/a	n/a	n/a	n/a	n/a	n/a	n/a	"2020-02-03 11:07:48.098693"	"2020-02-03 11:07:49.601833"	78	6.73648365
"S200203"	"Response_Inhibition"	"RIGHT"	"Time_Max_Exceeded"	1500.05176719996	666.666668	n/a	n/a	n/a	n/a	n/a	n/a	n/a	"2020-02-03 11:07:50.278160"	"2020-02-03 11:07:51.781394"	79	6.73648365
"S200203"	"Response_Inhibition"	"LEFT"	"LEFT"	618.63320000009	583.3333345	n/a	n/a	n/a	n/a	n/a	n/a	n/a	"2020-02-03 11:07:52.374564"	"2020-02-03 11:07:53.199934"	80	6.73648365
"S200203"	"Response_Inhibition"	"LEFT"	"LEFT"	588.389200000051	1500.000003	n/a	n/a	n/a	n/a	n/a	n/a	n/a	"2020-02-03 11:07:54.708557"	"2020-02-03 11:07:55.504401"	81	6.73648365
"S200203"	"Response_Inhibition"	"LEFT"	"Time_Max_Exceeded"	1500.05860060003	783.3333349	n/a	n/a	n/a	n/a	n/a	n/a	n/a	"2020-02-03 11:07:56.296308"	"2020-02-03 11:07:57.799579"	82	6.73648365
"S200203"	"Response_Inhibition"	"RIGHT"	"RIGHT"	796.101999999905	1316.6666693	n/a	n/a	n/a	n/a	n/a	n/a	n/a	"2020-02-03 11:07:59.124335"	"2020-02-03 11:08:00.128895"	83	6.73648365
"S200203"	"Response_Inhibition"	"RIGHT"	"Time_Max_Exceeded"	1500.05043360007	900.0000018	n/a	n/a	n/a	n/a	n/a	n/a	n/a	"2020-02-03 11:08:01.038808"	"2020-02-03 11:08:02.541381"	84	6.73648365
"S200203"	"Response_Inhibition"	"LEFT"	"Time_Max_Exceeded"	1500.05546679999	733.3333348	n/a	n/a	n/a	n/a	n/a	n/a	n/a	"2020-02-03 11:08:03.284396"	"2020-02-03 11:08:04.787597"	85	6.73648365
"S200203"	"Response_Inhibition"	"RIGHT"	"Time_Max_Exceeded"	1500.05256700005	1166.666669	n/a	n/a	n/a	n/a	n/a	n/a	n/a	"2020-02-03 11:08:05.963528"	"2020-02-03 11:08:07.466181"	86	6.73648365
"S200203"	"Response_Inhibition"	"LEFT"	"LEFT"	721.171300000037	1300.0000026	n/a	n/a	n/a	n/a	n/a	n/a	n/a	"2020-02-03 11:08:08.776059"	"2020-02-03 11:08:09.704826"	87	6.73648365
"S200203"	"Response_Inhibition"	"LEFT"	"LEFT"	667.573800000014	683.3333347	n/a	n/a	n/a	n/a	n/a	n/a	n/a	"2020-02-03 11:08:10.397169"	"2020-02-03 11:08:11.273599"	88	6.73648365
"S200203"	"Response_Inhibition"	"RIGHT"	"RIGHT"	793.705100000011	1133.3333356	n/a	n/a	n/a	n/a	n/a	n/a	n/a	"2020-02-03 11:08:12.415769"	"2020-02-03 11:08:13.416960"	89	6.73648365
"S200203"	"Response_Inhibition"	"LEFT"	"LEFT"	675.354299999981	700.0000014	n/a	n/a	n/a	n/a	n/a	n/a	n/a	"2020-02-03 11:08:14.125806"	"2020-02-03 11:08:15.009160"	90	6.73648365
"S200203"	"Response_Inhibition"	"LEFT"	"Time_Max_Exceeded"	1500.05550039999	650.0000013	n/a	n/a	n/a	n/a	n/a	n/a	n/a	"2020-02-03 11:08:15.667307"	"2020-02-03 11:08:17.170526"	91	6.73648365
"S200203"	"Response_Inhibition"	"RIGHT"	"RIGHT"	854.959099999974	750.0000015	n/a	n/a	n/a	n/a	n/a	n/a	n/a	"2020-02-03 11:08:17.930319"	"2020-02-03 11:08:18.992747"	92	6.73648365
"S200203"	"Response_Inhibition"	"RIGHT"	"RIGHT"	694.845400000077	1216.6666691	n/a	n/a	n/a	n/a	n/a	n/a	n/a	"2020-02-03 11:08:20.218199"	"2020-02-03 11:08:21.120132"	93	6.73648365
"S200203"	"Response_Inhibition"	"LEFT"	"Time_Max_Exceeded"	1500.06656730004	850.0000017	n/a	n/a	n/a	n/a	n/a	n/a	n/a	"2020-02-03 11:08:21.979018"	"2020-02-03 11:08:23.482227"	94	6.73648365
"S200203"	"Response_Inhibition"	"LEFT"	"Time_Max_Exceeded"	1500.07270020001	600.0000012	n/a	n/a	n/a	n/a	n/a	n/a	n/a	"2020-02-03 11:08:24.091346"	"2020-02-03 11:08:25.595170"	95	6.73648365
"S200203"	"Response_Inhibition"	"RIGHT"	"Time_Max_Exceeded"	1500.0455671	600.0000012	n/a	n/a	n/a	n/a	n/a	n/a	n/a	"2020-02-03 11:08:26.203271"	"2020-02-03 11:08:27.707050"	96	6.73648365
"S200203"	"Response_Inhibition"	"LEFT"	"Time_Max_Exceeded"	1500.04823380001	983.3333353	n/a	n/a	n/a	n/a	n/a	n/a	n/a	"2020-02-03 11:08:28.700199"	"2020-02-03 11:08:30.203764"	97	6.73648365
"S200203"	"Response_Inhibition"	"LEFT"	"LEFT"	596.404499999949	1000.000002	n/a	n/a	n/a	n/a	n/a	n/a	n/a	"2020-02-03 11:08:31.212117"	"2020-02-03 11:08:32.016794"	98	6.73648365
"S200203"	"Response_Inhibition"	"LEFT"	"Time_Max_Exceeded"	1500.05810059998	566.6666678	n/a	n/a	n/a	n/a	n/a	n/a	n/a	"2020-02-03 11:08:32.592248"	"2020-02-03 11:08:34.095282"	99	6.73648365
"S200203"	"Response_Inhibition"	"LEFT"	"LEFT"	675.040200000012	1150.0000023	n/a	n/a	n/a	n/a	n/a	n/a	n/a	"2020-02-03 11:08:35.253489"	"2020-02-03 11:08:36.136265"	100	6.73648365
"S200203"	"Response_Inhibition"	"LEFT"	"LEFT"	718.692499999975	1433.3333362	n/a	n/a	n/a	n/a	n/a	n/a	n/a	"2020-02-03 11:08:37.577793"	"2020-02-03 11:08:38.504862"	101	6.73648365
"S200203"	"Response_Inhibition"	"LEFT"	"Time_Max_Exceeded"	1500.06633350002	1016.6666687	n/a	n/a	n/a	n/a	n/a	n/a	n/a	"2020-02-03 11:08:39.530779"	"2020-02-03 11:08:41.034476"	102	6.73648365
"S200203"	"Response_Inhibition"	"LEFT"	"Time_Max_Exceeded"	1500.05163379998	1216.6666691	n/a	n/a	n/a	n/a	n/a	n/a	n/a	"2020-02-03 11:08:42.259893"	"2020-02-03 11:08:43.762646"	103	6.73648365
"S200203"	"Response_Inhibition"	"LEFT"	"LEFT"	711.806899999942	1316.6666693	n/a	n/a	n/a	n/a	n/a	n/a	n/a	"2020-02-03 11:08:45.089448"	"2020-02-03 11:08:46.008035"	104	6.73648365
"S200203"	"Response_Inhibition"	"RIGHT"	"RIGHT"	836.231300000009	1083.3333355	n/a	n/a	n/a	n/a	n/a	n/a	n/a	"2020-02-03 11:08:47.100991"	"2020-02-03 11:08:48.144845"	105	6.73648365
"S200203"	"Response_Inhibition"	"RIGHT"	"RIGHT"	703.277599999979	1400.0000028	n/a	n/a	n/a	n/a	n/a	n/a	n/a	"2020-02-03 11:08:49.553975"	"2020-02-03 11:08:50.464845"	106	6.73648365
"S200203"	"Response_Inhibition"	"LEFT"	"LEFT"	544.161099999997	1183.3333357	n/a	n/a	n/a	n/a	n/a	n/a	n/a	"2020-02-03 11:08:51.656714"	"2020-02-03 11:08:52.409701"	107	6.73648365
"S200203"	"Response_Inhibition"	"LEFT"	"Time_Max_Exceeded"	1500.07970050001	666.666668	n/a	n/a	n/a	n/a	n/a	n/a	n/a	"2020-02-03 11:08:53.085090"	"2020-02-03 11:08:54.589126"	108	6.73648365
"S200203"	"Response_Inhibition"	"RIGHT"	"RIGHT"	371.924333999997	716.6666681	n/a	n/a	n/a	n/a	n/a	n/a	n/a	"2020-02-03 11:08:55.313765"	"2020-02-03 11:08:55.897467"	109	6.73648365
"S200203"	"Response_Inhibition"	"LEFT"	"LEFT"	941.175899999962	850.0000017	n/a	n/a	n/a	n/a	n/a	n/a	n/a	"2020-02-03 11:08:56.756032"	"2020-02-03 11:08:57.905707"	110	6.73648365
"S200203"	"Response_Inhibition"	"RIGHT"	"Time_Max_Exceeded"	1500.05120030005	1483.3333363	n/a	n/a	n/a	n/a	n/a	n/a	n/a	"2020-02-03 11:08:59.397699"	"2020-02-03 11:09:00.900441"	111	6.73648365
"S200203"	"Response_Inhibition"	"RIGHT"	"RIGHT"	690.448299999957	1216.6666691	n/a	n/a	n/a	n/a	n/a	n/a	n/a	"2020-02-03 11:09:02.126028"	"2020-02-03 11:09:03.024674"	112	6.73648365
"S200203"	"Response_Inhibition"	"LEFT"	"Time_Max_Exceeded"	1500.05180009998	1350.0000027	n/a	n/a	n/a	n/a	n/a	n/a	n/a	"2020-02-03 11:09:04.386087"	"2020-02-03 11:09:05.889342"	113	6.73648365
"S200203"	"Response_Inhibition"	"RIGHT"	"RIGHT"	801.167700000065	733.3333348	n/a	n/a	n/a	n/a	n/a	n/a	n/a	"2020-02-03 11:09:06.632199"	"2020-02-03 11:09:07.641074"	114	6.73648365
"S200203"	"Response_Inhibition"	"RIGHT"	"RIGHT"	723.434600000019	700.0000014	n/a	n/a	n/a	n/a	n/a	n/a	n/a	"2020-02-03 11:09:08.349988"	"2020-02-03 11:09:09.281904"	115	6.73648365
"S200203"	"Response_Inhibition"	"LEFT"	"LEFT"	741.55959999996	1233.3333358	n/a	n/a	n/a	n/a	n/a	n/a	n/a	"2020-02-03 11:09:10.523451"	"2020-02-03 11:09:11.473480"	116	6.73648365
"S200203"	"Response_Inhibition"	"LEFT"	"Time_Max_Exceeded"	1500.0536005	1166.666669	n/a	n/a	n/a	n/a	n/a	n/a	n/a	"2020-02-03 11:09:12.648705"	"2020-02-03 11:09:14.152165"	117	6.73648365
"S200203"	"Response_Inhibition"	"RIGHT"	"RIGHT"	832.148899999993	983.3333353	n/a	n/a	n/a	n/a	n/a	n/a	n/a	"2020-02-03 11:09:15.145157"	"2020-02-03 11:09:16.185507"	118	6.73648365
"S200203"	"Response_Inhibition"	"RIGHT"	"RIGHT"	548.548699999969	1066.6666688	n/a	n/a	n/a	n/a	n/a	n/a	n/a	"2020-02-03 11:09:17.260313"	"2020-02-03 11:09:18.017864"	119	6.73648365
"S200203"	"Response_Inhibition"	"LEFT"	"LEFT"	849.94729999994	1116.6666689	n/a	n/a	n/a	n/a	n/a	n/a	n/a	"2020-02-03 11:09:19.143365"	"2020-02-03 11:09:20.201445"	120	6.73648365
"S200203"	"Response_Inhibition"	"LEFT"	"LEFT"	959.167199999911	1000.000002	n/a	n/a	n/a	n/a	n/a	n/a	n/a	"2020-02-03 11:09:21.209695"	"2020-02-03 11:09:22.377298"	121	6.73648365
"S200203"	"Response_Inhibition"	"RIGHT"	"RIGHT"	766.918300000043	1000.000002	n/a	n/a	n/a	n/a	n/a	n/a	n/a	"2020-02-03 11:09:23.386339"	"2020-02-03 11:09:24.361789"	122	6.73648365
"S200203"	"Response_Inhibition"	"RIGHT"	"RIGHT"	606.183900000019	816.6666683	n/a	n/a	n/a	n/a	n/a	n/a	n/a	"2020-02-03 11:09:25.186729"	"2020-02-03 11:09:26.000192"	123	6.73648365
"S200203"	"Response_Inhibition"	"LEFT"	"LEFT"	631.696799999986	833.333335	n/a	n/a	n/a	n/a	n/a	n/a	n/a	"2020-02-03 11:09:26.841684"	"2020-02-03 11:09:27.681005"	124	6.73648365
"S200203"	"Response_Inhibition"	"LEFT"	"LEFT"	650.938999999994	916.6666685	n/a	n/a	n/a	n/a	n/a	n/a	n/a	"2020-02-03 11:09:28.605769"	"2020-02-03 11:09:29.464217"	125	6.73648365
"S200203"	"Response_Inhibition"	"RIGHT"	"RIGHT"	785.066499999971	783.3333349	n/a	n/a	n/a	n/a	n/a	n/a	n/a	"2020-02-03 11:09:30.256110"	"2020-02-03 11:09:31.248869"	126	6.73648365
"S200203"	"Response_Inhibition"	"LEFT"	"LEFT"	661.239600000044	1266.6666692	n/a	n/a	n/a	n/a	n/a	n/a	n/a	"2020-02-03 11:09:32.523656"	"2020-02-03 11:09:33.393625"	127	6.73648365
"S200203"	"Response_Inhibition"	"RIGHT"	"RIGHT"	594.944700000042	1300.0000026	n/a	n/a	n/a	n/a	n/a	n/a	n/a	"2020-02-03 11:09:34.701677"	"2020-02-03 11:09:35.504325"	128	6.73648365
"S200203"	"Response_Inhibition"	"RIGHT"	"Time_Max_Exceeded"	1500.04490030006	850.0000017	n/a	n/a	n/a	n/a	n/a	n/a	n/a	"2020-02-03 11:09:36.363551"	"2020-02-03 11:09:37.867113"	129	6.73648365
"S200203"	"Response_Inhibition"	"LEFT"	"Time_Max_Exceeded"	1500.08789999993	950.0000019	n/a	n/a	n/a	n/a	n/a	n/a	n/a	"2020-02-03 11:09:38.826367"	"2020-02-03 11:09:40.326926"	130	6.73648365
"S200203"	"Response_Inhibition"	"RIGHT"	"Time_Max_Exceeded"	1500.07446689999	1283.3333359	n/a	n/a	n/a	n/a	n/a	n/a	n/a	"2020-02-03 11:09:41.619668"	"2020-02-03 11:09:43.123768"	131	6.73648365
"S200203"	"Response_Inhibition"	"LEFT"	"Time_Max_Exceeded"	1500.05773360007	1450.0000029	n/a	n/a	n/a	n/a	n/a	n/a	n/a	"2020-02-03 11:09:44.581935"	"2020-02-03 11:09:46.085505"	132	6.73648365
"S200203"	"Response_Inhibition"	"RIGHT"	"RIGHT"	480.267700000013	1250.0000025	n/a	n/a	n/a	n/a	n/a	n/a	n/a	"2020-02-03 11:09:47.345200"	"2020-02-03 11:09:48.036945"	133	6.73648365
"S200203"	"Response_Inhibition"	"RIGHT"	"RIGHT"	564.75649999993	950.0000019	n/a	n/a	n/a	n/a	n/a	n/a	n/a	"2020-02-03 11:09:48.996449"	"2020-02-03 11:09:49.769885"	134	6.73648365
"S200203"	"Response_Inhibition"	"LEFT"	"LEFT"	558.149500000013	616.6666679	n/a	n/a	n/a	n/a	n/a	n/a	n/a	"2020-02-03 11:09:50.394785"	"2020-02-03 11:09:51.161799"	135	6.73648365
"S200203"	"Response_Inhibition"	"RIGHT"	"RIGHT"	724.709100000041	1050.0000021	n/a	n/a	n/a	n/a	n/a	n/a	n/a	"2020-02-03 11:09:52.220174"	"2020-02-03 11:09:53.153217"	136	6.73648365
"S200203"	"Response_Inhibition"	"RIGHT"	"RIGHT"	704.131200000006	583.3333345	n/a	n/a	n/a	n/a	n/a	n/a	n/a	"2020-02-03 11:09:53.744758"	"2020-02-03 11:09:54.656196"	137	6.73648365
"S200203"	"Response_Inhibition"	"LEFT"	"LEFT"	656.186500000103	816.6666683	n/a	n/a	n/a	n/a	n/a	n/a	n/a	"2020-02-03 11:09:55.480801"	"2020-02-03 11:09:56.345430"	138	6.73648365
"S200203"	"Response_Inhibition"	"LEFT"	"Time_Max_Exceeded"	1500.05446670006	1466.6666696	n/a	n/a	n/a	n/a	n/a	n/a	n/a	"2020-02-03 11:09:57.820736"	"2020-02-03 11:09:59.323575"	139	6.73648365
"S200203"	"Response_Inhibition"	"RIGHT"	"Time_Max_Exceeded"	1500.07286679992	1416.6666695	n/a	n/a	n/a	n/a	n/a	n/a	n/a	"2020-02-03 11:10:00.750209"	"2020-02-03 11:10:02.253034"	140	6.73648365
"S200203"	"Response_Inhibition"	"LEFT"	"LEFT"	555.313299999966	783.3333349	n/a	n/a	n/a	n/a	n/a	n/a	n/a	"2020-02-03 11:10:03.045557"	"2020-02-03 11:10:03.808229"	141	6.73648365
"S200203"	"Response_Inhibition"	"RIGHT"	"RIGHT"	618.641899999943	550.0000011	n/a	n/a	n/a	n/a	n/a	n/a	n/a	"2020-02-03 11:10:04.366309"	"2020-02-03 11:10:05.193885"	142	6.73648365
"S200203"	"Response_Inhibition"	"LEFT"	"LEFT"	418.837499999995	1100.0000022	n/a	n/a	n/a	n/a	n/a	n/a	n/a	"2020-02-03 11:10:06.302558"	"2020-02-03 11:10:06.929155"	143	6.73648365
"S200203"	"Response_Inhibition"	"RIGHT"	"Time_Max_Exceeded"	1500.05210009999	1050.0000021	n/a	n/a	n/a	n/a	n/a	n/a	n/a	"2020-02-03 11:10:07.988392"	"2020-02-03 11:10:09.491614"	144	6.73648365
"S200203"	"Response_Inhibition"	"LEFT"	"LEFT"	540.696099999991	583.3333345	n/a	n/a	n/a	n/a	n/a	n/a	n/a	"2020-02-03 11:10:10.084601"	"2020-02-03 11:10:10.832979"	145	6.73648365
"S200203"	"Response_Inhibition"	"RIGHT"	"RIGHT"	625.900399999978	1350.0000027	n/a	n/a	n/a	n/a	n/a	n/a	n/a	"2020-02-03 11:10:12.191773"	"2020-02-03 11:10:13.025544"	146	6.73648365
"S200203"	"Response_Inhibition"	"RIGHT"	"RIGHT"	623.628899999972	1183.3333357	n/a	n/a	n/a	n/a	n/a	n/a	n/a	"2020-02-03 11:10:14.216924"	"2020-02-03 11:10:15.048987"	147	6.73648365
"S200203"	"Response_Inhibition"	"RIGHT"	"Time_Max_Exceeded"	1500.06430039992	633.3333346	n/a	n/a	n/a	n/a	n/a	n/a	n/a	"2020-02-03 11:10:15.690445"	"2020-02-03 11:10:17.194500"	148	6.73648365
"S200203"	"Response_Inhibition"	"RIGHT"	"Time_Max_Exceeded"	1500.06596729991	1000.000002	n/a	n/a	n/a	n/a	n/a	n/a	n/a	"2020-02-03 11:10:18.203858"	"2020-02-03 11:10:19.707357"	149	6.73648365
"S200203"	"Response_Inhibition"	"RIGHT"	"Time_Max_Exceeded"	1500.04883369999	1100.0000022	n/a	n/a	n/a	n/a	n/a	n/a	n/a	"2020-02-03 11:10:20.816852"	"2020-02-03 11:10:22.319780"	150	6.73648365
"S200203"	"Response_Inhibition"	"RIGHT"	"Time_Max_Exceeded"	1500.05313339996	1200.0000024	n/a	n/a	n/a	n/a	n/a	n/a	n/a	"2020-02-03 11:10:23.529352"	"2020-02-03 11:10:25.031956"	151	6.73648365
"S200203"	"Response_Inhibition"	"RIGHT"	"Time_Max_Exceeded"	1500.05446699997	1316.6666693	n/a	n/a	n/a	n/a	n/a	n/a	n/a	"2020-02-03 11:10:26.358361"	"2020-02-03 11:10:27.862140"	152	6.73648365
"S200203"	"Response_Inhibition"	"LEFT"	"Time_Max_Exceeded"	1500.05150049993	883.3333351	n/a	n/a	n/a	n/a	n/a	n/a	n/a	"2020-02-03 11:10:28.753589"	"2020-02-03 11:10:30.257140"	153	6.73648365
"S200203"	"Response_Inhibition"	"LEFT"	"LEFT"	675.169200000028	683.3333347	n/a	n/a	n/a	n/a	n/a	n/a	n/a	"2020-02-03 11:10:30.949973"	"2020-02-03 11:10:31.832072"	154	6.73648365
"S200203"	"Response_Inhibition"	"LEFT"	"LEFT"	815.229600000066	1216.6666691	n/a	n/a	n/a	n/a	n/a	n/a	n/a	"2020-02-03 11:10:33.057555"	"2020-02-03 11:10:34.081739"	155	6.73648365
"S200203"	"Response_Inhibition"	"RIGHT"	"RIGHT"	946.609999999964	516.6666677	n/a	n/a	n/a	n/a	n/a	n/a	n/a	"2020-02-03 11:10:34.606501"	"2020-02-03 11:10:35.761230"	156	6.73648365
"S200203"	"Response_Inhibition"	"LEFT"	"LEFT"	718.436799999949	1416.6666695	n/a	n/a	n/a	n/a	n/a	n/a	n/a	"2020-02-03 11:10:37.186589"	"2020-02-03 11:10:38.112850"	157	6.73648365
"S200203"	"Response_Inhibition"	"RIGHT"	"RIGHT"	774.784400000044	1150.0000023	n/a	n/a	n/a	n/a	n/a	n/a	n/a	"2020-02-03 11:10:39.274787"	"2020-02-03 11:10:40.257671"	158	6.73648365
"S200203"	"Response_Inhibition"	"RIGHT"	"RIGHT"	648.332600000003	1366.6666694	n/a	n/a	n/a	n/a	n/a	n/a	n/a	"2020-02-03 11:10:41.632604"	"2020-02-03 11:10:42.488323"	159	6.73648365
"S200203"	"Response_Inhibition"	"RIGHT"	"Time_Max_Exceeded"	1500.08173340003	916.6666685	n/a	n/a	n/a	n/a	n/a	n/a	n/a	"2020-02-03 11:10:43.413485"	"2020-02-03 11:10:44.918567"	160	6.73648365
"S200203"	"Response_Selection"	"RIGHT"	"RIGHT"	398.276199999998	1400.0000028	"RIGHT"	-1294.135	n/a	n/a	n/a	n/a	n/a	"2020-02-03 11:01:56.946235"	"2020-02-03 11:01:57.552611"	1	2.9083495
"S200203"	"Response_Selection"	"LEFT"	"LEFT"	303.381999999999	800.0000016	""	n/a	n/a	n/a	n/a	n/a	n/a	"2020-02-03 11:01:58.360838"	"2020-02-03 11:01:58.872489"	2	2.9083495
"S200203"	"Response_Selection"	"LEFT"	"LEFT"	424.267999999984	750.0000015	""	n/a	n/a	n/a	n/a	n/a	n/a	"2020-02-03 11:01:59.632316"	"2020-02-03 11:02:00.264643"	3	2.9083495
"S200203"	"Response_Selection"	"LEFT"	"LEFT"	366.01619999999	633.3333346	""	n/a	n/a	n/a	n/a	n/a	n/a	"2020-02-03 11:02:00.906501"	"2020-02-03 11:02:01.479970"	4	2.9083495
"S200203"	"Response_Selection"	"LEFT"	"LEFT"	385.386700000026	966.6666686	""	n/a	n/a	n/a	n/a	n/a	n/a	"2020-02-03 11:02:02.455570"	"2020-02-03 11:02:03.047984"	5	2.9083495
"S200203"	"Response_Selection"	"LEFT"	"LEFT"	482.377199999974	533.3333344	""	n/a	n/a	n/a	n/a	n/a	n/a	"2020-02-03 11:02:03.590211"	"2020-02-03 11:02:04.280477"	6	2.9083495
"S200203"	"Response_Selection"	"RIGHT"	"RIGHT"	312.155300000029	783.3333349	""	n/a	n/a	n/a	n/a	n/a	n/a	"2020-02-03 11:02:05.072391"	"2020-02-03 11:02:05.592672"	7	2.9083495
"S200203"	"Response_Selection"	"LEFT"	"LEFT"	304.930600000034	1350.0000027	""	n/a	n/a	n/a	n/a	n/a	n/a	"2020-02-03 11:02:06.951345"	"2020-02-03 11:02:07.464132"	8	2.9083495
"S200203"	"Response_Selection"	"RIGHT"	"RIGHT"	361.106199999995	583.3333345	""	n/a	n/a	n/a	n/a	n/a	n/a	"2020-02-03 11:02:08.055711"	"2020-02-03 11:02:08.623415"	9	2.9083495
"S200203"	"Response_Selection"	"LEFT"	"LEFT"	337.079500000016	783.3333349	""	n/a	n/a	n/a	n/a	n/a	n/a	"2020-02-03 11:02:09.415516"	"2020-02-03 11:02:09.960543"	10	2.9083495
"S200203"	"Response_Selection"	"RIGHT"	"RIGHT"	371.459700000003	500.000001	""	n/a	n/a	n/a	n/a	n/a	n/a	"2020-02-03 11:02:10.468582"	"2020-02-03 11:02:11.048860"	11	2.9083495
"S200203"	"Response_Selection"	"LEFT"	"LEFT"	331.795299999953	883.3333351	""	n/a	n/a	n/a	n/a	n/a	n/a	"2020-02-03 11:02:11.941084"	"2020-02-03 11:02:12.480245"	12	2.9083495
"S200203"	"Response_Selection"	"RIGHT"	"RIGHT"	287.214699999993	1416.6666695	""	n/a	n/a	n/a	n/a	n/a	n/a	"2020-02-03 11:02:13.905674"	"2020-02-03 11:02:14.400381"	13	2.9083495
"S200203"	"Response_Selection"	"LEFT"	"LEFT"	296.943699999986	1166.666669	""	n/a	n/a	n/a	n/a	n/a	n/a	"2020-02-03 11:02:15.575968"	"2020-02-03 11:02:16.080630"	14	2.9083495
"S200203"	"Response_Selection"	"LEFT"	"LEFT"	374.737999999979	1016.6666687	""	n/a	n/a	n/a	n/a	n/a	n/a	"2020-02-03 11:02:17.106410"	"2020-02-03 11:02:17.688111"	15	2.9083495
"S200203"	"Response_Selection"	"LEFT"	"LEFT"	324.93889999995	1466.6666696	""	n/a	n/a	n/a	n/a	n/a	n/a	"2020-02-03 11:02:19.163417"	"2020-02-03 11:02:19.695999"	16	2.9083495
"S200203"	"Response_Selection"	"RIGHT"	"RIGHT"	300.928999999996	1250.0000025	""	n/a	n/a	n/a	n/a	n/a	n/a	"2020-02-03 11:02:20.955740"	"2020-02-03 11:02:21.464397"	17	2.9083495
"S200203"	"Response_Selection"	"RIGHT"	"RIGHT"	356.216099999983	1083.3333355	""	n/a	n/a	n/a	n/a	n/a	n/a	"2020-02-03 11:02:22.556514"	"2020-02-03 11:02:23.120284"	18	2.9083495
"S200203"	"Response_Selection"	"RIGHT"	"RIGHT"	309.174699999971	1266.6666692	""	n/a	n/a	n/a	n/a	n/a	n/a	"2020-02-03 11:02:24.395367"	"2020-02-03 11:02:24.912557"	19	2.9083495
"S200203"	"Response_Selection"	"LEFT"	"LEFT"	339.242899999988	700.0000014	""	n/a	n/a	n/a	n/a	n/a	n/a	"2020-02-03 11:02:25.621630"	"2020-02-03 11:02:26.168792"	20	2.9083495
"S200203"	"Response_Selection"	"LEFT"	"LEFT"	357.818199999997	1033.3333354	""	n/a	n/a	n/a	n/a	n/a	n/a	"2020-02-03 11:02:27.210608"	"2020-02-03 11:02:27.776744"	21	2.9083495
"S200203"	"Response_Selection"	"RIGHT"	"RIGHT"	315.948999999989	1066.6666688	""	n/a	n/a	n/a	n/a	n/a	n/a	"2020-02-03 11:02:28.852982"	"2020-02-03 11:02:29.376288"	22	2.9083495
"S200203"	"Response_Selection"	"RIGHT"	"RIGHT"	369.359399999951	933.3333352	""	n/a	n/a	n/a	n/a	n/a	n/a	"2020-02-03 11:02:30.319058"	"2020-02-03 11:02:30.896462"	23	2.9083495
"S200203"	"Response_Selection"	"RIGHT"	"RIGHT"	317.892400000005	1216.6666691	""	n/a	n/a	n/a	n/a	n/a	n/a	"2020-02-03 11:02:32.122982"	"2020-02-03 11:02:32.648380"	24	2.9083495
"S200203"	"Response_Selection"	"RIGHT"	"RIGHT"	295.449800000029	1200.0000024	""	n/a	n/a	n/a	n/a	n/a	n/a	"2020-02-03 11:02:33.857253"	"2020-02-03 11:02:34.360035"	25	2.9083495
"S200203"	"Response_Selection"	"LEFT"	"LEFT"	316.027500000018	1300.0000026	""	n/a	n/a	n/a	n/a	n/a	n/a	"2020-02-03 11:02:35.668763"	"2020-02-03 11:02:36.191968"	26	2.9083495
"S200203"	"Response_Selection"	"LEFT"	"LEFT"	658.087399999999	550.0000011	""	n/a	n/a	n/a	n/a	n/a	n/a	"2020-02-03 11:02:36.750476"	"2020-02-03 11:02:37.615963"	27	2.9083495
"S200203"	"Response_Selection"	"LEFT"	"LEFT"	376.776800000016	983.3333353	""	n/a	n/a	n/a	n/a	n/a	n/a	"2020-02-03 11:02:38.607622"	"2020-02-03 11:02:39.193449"	28	2.9083495
"S200203"	"Response_Selection"	"LEFT"	"LEFT"	418.479600000012	683.3333347	""	n/a	n/a	n/a	n/a	n/a	n/a	"2020-02-03 11:02:39.886229"	"2020-02-03 11:02:40.512578"	29	2.9083495
"S200203"	"Response_Selection"	"RIGHT"	"RIGHT"	331.894900000009	883.3333351	""	n/a	n/a	n/a	n/a	n/a	n/a	"2020-02-03 11:02:41.405101"	"2020-02-03 11:02:41.943339"	30	2.9083495
"S200203"	"Response_Selection"	"RIGHT"	"RIGHT"	330.278299999975	1166.666669	""	n/a	n/a	n/a	n/a	n/a	n/a	"2020-02-03 11:02:43.118708"	"2020-02-03 11:02:43.656261"	31	2.9083495
"S200203"	"Response_Selection"	"LEFT"	"LEFT"	405.159400000002	866.6666684	""	n/a	n/a	n/a	n/a	n/a	n/a	"2020-02-03 11:02:44.531531"	"2020-02-03 11:02:45.144078"	32	2.9083495
"S200203"	"Response_Selection"	"LEFT"	"LEFT"	342.074300000036	833.333335	""	n/a	n/a	n/a	n/a	n/a	n/a	"2020-02-03 11:02:45.986797"	"2020-02-03 11:02:46.537051"	33	2.9083495
"S200203"	"Response_Selection"	"RIGHT"	"RIGHT"	289.942100000019	916.6666685	""	n/a	n/a	n/a	n/a	n/a	n/a	"2020-02-03 11:02:47.462650"	"2020-02-03 11:02:47.959937"	34	2.9083495
"S200203"	"Response_Selection"	"LEFT"	"LEFT"	335.904699999958	1200.0000024	""	n/a	n/a	n/a	n/a	n/a	n/a	"2020-02-03 11:02:49.168686"	"2020-02-03 11:02:49.713880"	35	2.9083495
"S200203"	"Response_Selection"	"RIGHT"	"RIGHT"	274.461999999971	1500.000003	""	n/a	n/a	n/a	n/a	n/a	n/a	"2020-02-03 11:02:51.222179"	"2020-02-03 11:02:51.704613"	36	2.9083495
"S200203"	"Response_Selection"	"LEFT"	"LEFT"	351.631499999996	583.3333345	""	n/a	n/a	n/a	n/a	n/a	n/a	"2020-02-03 11:02:52.296644"	"2020-02-03 11:02:52.856114"	37	2.9083495
"S200203"	"Response_Selection"	"RIGHT"	"RIGHT"	299.650799999995	1316.6666693	""	n/a	n/a	n/a	n/a	n/a	n/a	"2020-02-03 11:02:54.181653"	"2020-02-03 11:02:54.688968"	38	2.9083495
"S200203"	"Response_Selection"	"LEFT"	"LEFT"	313.997099999995	933.3333352	""	n/a	n/a	n/a	n/a	n/a	n/a	"2020-02-03 11:02:55.630886"	"2020-02-03 11:02:56.152108"	39	2.9083495
"S200203"	"Response_Selection"	"LEFT"	"LEFT"	350.852900000007	1216.6666691	""	n/a	n/a	n/a	n/a	n/a	n/a	"2020-02-03 11:02:57.378056"	"2020-02-03 11:02:57.936171"	40	2.9083495
"S200203"	"Response_Selection"	"RIGHT"	"RIGHT"	322.408099999961	533.3333344	""	n/a	n/a	n/a	n/a	n/a	n/a	"2020-02-03 11:02:58.477725"	"2020-02-03 11:02:59.008259"	41	2.9083495
"S200203"	"Response_Selection"	"RIGHT"	"RIGHT"	349.625000000003	633.3333346	""	n/a	n/a	n/a	n/a	n/a	n/a	"2020-02-03 11:02:59.650816"	"2020-02-03 11:03:00.211871"	42	2.9083495
"S200203"	"Response_Selection"	"RIGHT"	"RIGHT"	317.594100000008	750.0000015	""	n/a	n/a	n/a	n/a	n/a	n/a	"2020-02-03 11:03:00.970549"	"2020-02-03 11:03:01.496766"	43	2.9083495
"S200203"	"Response_Selection"	"LEFT"	"LEFT"	331.588399999987	500.000001	""	n/a	n/a	n/a	n/a	n/a	n/a	"2020-02-03 11:03:02.004980"	"2020-02-03 11:03:02.544881"	44	2.9083495
"S200203"	"Response_Selection"	"RIGHT"	"RIGHT"	305.663200000026	1133.3333356	""	n/a	n/a	n/a	n/a	n/a	n/a	"2020-02-03 11:03:03.686794"	"2020-02-03 11:03:04.200413"	45	2.9083495
"S200203"	"Response_Selection"	"LEFT"	"LEFT"	315.099000000032	1316.6666693	""	n/a	n/a	n/a	n/a	n/a	n/a	"2020-02-03 11:03:05.525556"	"2020-02-03 11:03:06.049165"	46	2.9083495
"S200203"	"Response_Selection"	"RIGHT"	"RIGHT"	292.498399999999	866.6666684	""	n/a	n/a	n/a	n/a	n/a	n/a	"2020-02-03 11:03:06.924305"	"2020-02-03 11:03:07.424735"	47	2.9083495
"S200203"	"Response_Selection"	"LEFT"	"LEFT"	327.09269999998	1400.0000028	""	n/a	n/a	n/a	n/a	n/a	n/a	"2020-02-03 11:03:08.833263"	"2020-02-03 11:03:09.368431"	48	2.9083495
"S200203"	"Response_Selection"	"RIGHT"	"RIGHT"	267.483699999957	1300.0000026	""	n/a	n/a	n/a	n/a	n/a	n/a	"2020-02-03 11:03:10.677345"	"2020-02-03 11:03:11.152222"	49	2.9083495
"S200203"	"Response_Selection"	"LEFT"	"LEFT"	281.822099999999	1116.6666689	""	n/a	n/a	n/a	n/a	n/a	n/a	"2020-02-03 11:03:12.278684"	"2020-02-03 11:03:12.768457"	50	2.9083495
"S200203"	"Response_Selection"	"RIGHT"	"RIGHT"	312.1893	983.3333353	""	n/a	n/a	n/a	n/a	n/a	n/a	"2020-02-03 11:03:13.760678"	"2020-02-03 11:03:14.280352"	51	2.9083495
"S200203"	"Response_Selection"	"RIGHT"	"RIGHT"	358.532300000036	1033.3333354	""	n/a	n/a	n/a	n/a	n/a	n/a	"2020-02-03 11:03:15.322316"	"2020-02-03 11:03:15.888519"	52	2.9083495
"S200203"	"Response_Selection"	"RIGHT"	"RIGHT"	289.639200000011	1350.0000027	""	n/a	n/a	n/a	n/a	n/a	n/a	"2020-02-03 11:03:17.246522"	"2020-02-03 11:03:17.744362"	53	2.9083495
"S200203"	"Response_Selection"	"LEFT"	"LEFT"	360.328900000013	600.0000012	""	n/a	n/a	n/a	n/a	n/a	n/a	"2020-02-03 11:03:18.351738"	"2020-02-03 11:03:18.920265"	54	2.9083495
"S200203"	"Response_Selection"	"LEFT"	"LEFT"	321.3212	1366.6666694	""	n/a	n/a	n/a	n/a	n/a	n/a	"2020-02-03 11:03:20.295022"	"2020-02-03 11:03:20.824131"	55	2.9083495
"S200203"	"Response_Selection"	"LEFT"	"LEFT"	469.876900000031	650.0000013	""	n/a	n/a	n/a	n/a	n/a	n/a	"2020-02-03 11:03:21.483223"	"2020-02-03 11:03:22.161379"	56	2.9083495
"S200203"	"Response_Selection"	"LEFT"	"LEFT"	325.902599999949	1416.6666695	""	n/a	n/a	n/a	n/a	n/a	n/a	"2020-02-03 11:03:23.587034"	"2020-02-03 11:03:24.120571"	57	2.9083495
"S200203"	"Response_Selection"	"LEFT"	"LEFT"	338.73269999998	916.6666685	""	n/a	n/a	n/a	n/a	n/a	n/a	"2020-02-03 11:03:25.045854"	"2020-02-03 11:03:25.593380"	58	2.9083495
"S200203"	"Response_Selection"	"RIGHT"	"RIGHT"	310.200399999985	600.0000012	""	n/a	n/a	n/a	n/a	n/a	n/a	"2020-02-03 11:03:26.202624"	"2020-02-03 11:03:26.720398"	59	2.9083495
"S200203"	"Response_Selection"	"RIGHT"	"RIGHT"	310.710499999971	833.333335	""	n/a	n/a	n/a	n/a	n/a	n/a	"2020-02-03 11:03:27.561787"	"2020-02-03 11:03:28.080113"	60	2.9083495
"S200203"	"Response_Selection"	"LEFT"	"LEFT"	307.840599999963	1500.000003	""	n/a	n/a	n/a	n/a	n/a	n/a	"2020-02-03 11:03:29.588445"	"2020-02-03 11:03:30.104172"	61	2.9083495
"S200203"	"Response_Selection"	"RIGHT"	"RIGHT"	299.132299999997	1116.6666689	""	n/a	n/a	n/a	n/a	n/a	n/a	"2020-02-03 11:03:31.229717"	"2020-02-03 11:03:31.735981"	62	2.9083495
"S200203"	"Response_Selection"	"RIGHT"	"RIGHT"	421.490399999982	1466.6666696	""	n/a	n/a	n/a	n/a	n/a	n/a	"2020-02-03 11:03:33.210933"	"2020-02-03 11:03:33.841822"	63	2.9083495
"S200203"	"Response_Selection"	"LEFT"	"LEFT"	291.146900000001	1083.3333355	""	n/a	n/a	n/a	n/a	n/a	n/a	"2020-02-03 11:03:34.933646"	"2020-02-03 11:03:35.433610"	64	2.9083495
"S200203"	"Response_Selection"	"LEFT"	"LEFT"	337.124899999992	1133.3333356	""	n/a	n/a	n/a	n/a	n/a	n/a	"2020-02-03 11:03:36.574967"	"2020-02-03 11:03:37.121541"	65	2.9083495
"S200203"	"Response_Selection"	"RIGHT"	"RIGHT"	343.50790000002	1366.6666694	""	n/a	n/a	n/a	n/a	n/a	n/a	"2020-02-03 11:03:38.497003"	"2020-02-03 11:03:39.048359"	66	2.9083495
"S200203"	"Response_Selection"	"LEFT"	"LEFT"	310.240000000022	1250.0000025	""	n/a	n/a	n/a	n/a	n/a	n/a	"2020-02-03 11:03:40.306371"	"2020-02-03 11:03:40.823278"	67	2.9083495
"S200203"	"Response_Selection"	"LEFT"	"LEFT"	467.370099999982	733.3333348	""	n/a	n/a	n/a	n/a	n/a	n/a	"2020-02-03 11:03:41.564860"	"2020-02-03 11:03:42.240162"	68	2.9083495
"S200203"	"Response_Selection"	"RIGHT"	"RIGHT"	335.337999999979	1016.6666687	""	n/a	n/a	n/a	n/a	n/a	n/a	"2020-02-03 11:03:43.265618"	"2020-02-03 11:03:43.808479"	69	2.9083495
"S200203"	"Response_Selection"	"RIGHT"	"RIGHT"	457.440899999995	550.0000011	""	n/a	n/a	n/a	n/a	n/a	n/a	"2020-02-03 11:03:44.367544"	"2020-02-03 11:03:45.032223"	70	2.9083495
"S200203"	"Response_Selection"	"RIGHT"	"RIGHT"	349.959000000013	1450.0000029	""	n/a	n/a	n/a	n/a	n/a	n/a	"2020-02-03 11:03:46.490242"	"2020-02-03 11:03:47.048751"	71	2.9083495
"S200203"	"Response_Selection"	"RIGHT"	"RIGHT"	401.273000000003	966.6666686	""	n/a	n/a	n/a	n/a	n/a	n/a	"2020-02-03 11:03:48.023797"	"2020-02-03 11:03:48.633616"	72	2.9083495
"S200203"	"Response_Selection"	"LEFT"	"LEFT"	363.544600000012	1066.6666688	""	n/a	n/a	n/a	n/a	n/a	n/a	"2020-02-03 11:03:49.709286"	"2020-02-03 11:03:50.280574"	73	2.9083495
"S200203"	"Response_Selection"	"LEFT"	"LEFT"	300.505899999962	1266.6666692	""	n/a	n/a	n/a	n/a	n/a	n/a	"2020-02-03 11:03:51.556426"	"2020-02-03 11:03:52.064234"	74	2.9083495
"S200203"	"Response_Selection"	"RIGHT"	"RIGHT"	506.494000000032	733.3333348	""	n/a	n/a	n/a	n/a	n/a	n/a	"2020-02-03 11:03:52.805819"	"2020-02-03 11:03:53.520669"	75	2.9083495
"S200203"	"Response_Selection"	"RIGHT"	"RIGHT"	341.240700000014	650.0000013	""	n/a	n/a	n/a	n/a	n/a	n/a	"2020-02-03 11:03:54.179261"	"2020-02-03 11:03:54.728084"	76	2.9083495
"S200203"	"Response_Selection"	"LEFT"	"LEFT"	326.057600000013	1450.0000029	""	n/a	n/a	n/a	n/a	n/a	n/a	"2020-02-03 11:03:56.186754"	"2020-02-03 11:03:56.720784"	77	2.9083495
"S200203"	"Response_Selection"	"RIGHT"	"RIGHT"	319.326100000012	800.0000016	""	n/a	n/a	n/a	n/a	n/a	n/a	"2020-02-03 11:03:57.529415"	"2020-02-03 11:03:58.056012"	78	2.9083495
"S200203"	"Response_Selection"	"RIGHT"	"RIGHT"	362.995400000045	700.0000014	""	n/a	n/a	n/a	n/a	n/a	n/a	"2020-02-03 11:03:58.765678"	"2020-02-03 11:03:59.337161"	79	2.9083495
"S200203"	"Response_Selection"	"RIGHT"	"RIGHT"	427.686600000015	683.3333347	""	n/a	n/a	n/a	n/a	n/a	n/a	"2020-02-03 11:04:00.029685"	"2020-02-03 11:04:00.664224"	80	2.9083495
