index	Trial_Type	Participant_ID	Trial_Probability	Question_Position_Prediction_Correct	Question_Position_Prediction_Agent	Question_Position_Comparison_Self	Question_Position_Comparison_Irrelevant	Trial_Stake	Trial_Stake_Jitter	Trial_Type_Jitter	Trial_Result_Jitter	Balance_Update_Jitter	Question_Comparison_Condition	Question_Comparison_Type	Question_Comparison_Question	Question_Comparison_Label	Question_Comparison_Item	Question_Comparison_Proportion_Yes	Question_Factual_Condition	Question_Factual_Item	Question_Factual_Question	Question_Factual_Label	Question_Factual_Proportion_DontKnow	Question_Factual_Type	Answer_Prediction_Agent	Answer_Prediction_Agent_RT	Answer_Prediction_Correct	Answer_Prediction_Correct_RT	Answer_Irrelevant	Answer_Irrelevant_RT	Answer_Self	Answer_Self_RT	Trial_Balance	Trial_Balance_Effect	Trial_Condition	Trial_ProbableSide	Prediction_Choice	Prediction_Result	Prediction_RT	Trial_Order	Trial_Datetime
124	Computer	S201223b	0.6666666666666666	2	1	2	1	0.1	1000.000002	1283.3333359	2500.000005	1650.0000033	Major	Wrong_doings	50	You have helped with household chores	C1_20	1.0	Hard	I1_8	50	Astatine is the rarest element in the Earth's crust	0.944444444444444	No	LEFT	585.2325999999977	RIGHT	328.46130000001494	LEFT	1200.5459000000087	RIGHT	1047.7156999999977	10.0	0.1	Probable_Truth	LEFT	LEFT	1	895.3384984111516	0	2020-12-23 14:20:19.563400
48	Self	S201223b	0.5	1	2	1	2	0.6	1350.0000027	1000.000002	2350.0000047	1933.3333372	Major	Good_deeds	58	You have stolen something	C1_53	0.0	Easy	I2_28	43	Obama is the USA president now	0.0	No	RIGHT	304.31319999999573	RIGHT	522.8860999999938	RIGHT	990.9834999999988	LEFT	869.0180000000112	10.6	0.6	Probable_Truth	RIGHT	LEFT	3	879.2702000000077	1	2020-12-23 14:20:42.347871
0	Self	S201223b	0.5	1	2	1	2	0.7	1000.000002	1066.6666688	2500.000005	2500.000005	Minor	Wrong_doings	12	You have let a homeless man into your house	C2_47	0.0	Hard	I1_21	45	The Moon orbits around the Earth	0.777777777777778	Yes	RIGHT	616.4845000000128	RIGHT	556.5439000000083	RIGHT	854.5541999999955	LEFT	1893.5578999999905	11.3	0.7	Probable_Truth	LEFT	RIGHT	5	1013.3735	2	2020-12-23 14:21:06.924397
13	Self	S201223b	0.5	2	1	2	1	0.6	1283.3333359	1283.3333359	1500.000003	2500.000005	Major	Wrong_doings	17	You have gossiped about your best friend	C1_17	0.55	Easy	I1_23	1	Some owl species hunt fish	0.0	No	RIGHT	796.7020000000105	LEFT	503.8488000000143	LEFT	1766.6032999999857	LEFT	1079.7131999999865	10.7	0.6	Probable_Lie	RIGHT	RIGHT	1	828.5266999999976	3	2020-12-23 14:21:31.036240
16	Self	S201223b	0.6666666666666666	1	2	1	2	0.4	1500.000003	1216.6666691	1500.000003	2216.6666711000003	Minor	Wrong_doings	60	You have used heroin	C1_42	0.2	Hard	I1_37	11	February has 30 days	0.888888888888889	No	RIGHT	359.1569000000163	RIGHT	451.17360000000417	LEFT	927.7194000000007	LEFT	1047.7563999999973	11.1	0.4	Probable_Lie	LEFT	LEFT	4	772.6887000000033	4	2020-12-23 14:21:53.604225
31	Self	S201223b	0.6666666666666666	2	1	2	1	0.5	1000.000002	1350.0000027	1783.3333369	1500.000003	Minor	Wrong_doings	57	You have illegally stayed in a country	C2_10	0.0	Easy	I2_60	60	Malay is one of the races in Singapore	0.666666666666667	No	RIGHT	962.7895999999794	LEFT	680.6382000000042	RIGHT	1326.6364000000124	LEFT	1216.5152000000037	10.6	0.5	Probable_Lie	RIGHT	RIGHT	2	513.3963000000108	5	2020-12-23 14:22:16.507552
140	Computer	S201223b	0.8333333333333334	2	1	2	1	0.1	1433.3333362	1216.6666691	2350.0000047	2350.0000047	Major	Good_deeds	33	You have pretended to be busy to avoid a social situation	C2_53	0.95	Hard	I2_6	25	Saturn's rings are between 30 and 300 feet thick	0.0	No	LEFT	518.4291999999573	RIGHT	367.1095000000264	RIGHT	1930.947300000014	LEFT	1135.6858999999986	10.6	0.1	Probable_Truth	RIGHT	LEFT	1	761.0541708371379	6	2020-12-23 14:22:41.147341
138	Computer	S201223b	0.8333333333333334	2	1	1	2	0.2	1350.0000027	1350.0000027	2500.000005	1650.0000033	Minor	Wrong_doings	30	You have violated a traffic law	C1_49	1.0	Hard	I1_44	6	A dog has four legs	0.0	No	LEFT	821.7767000000435	LEFT	654.9763000000439	RIGHT	983.7815999999862	LEFT	992.125499999986	10.6	0.2	Probable_Lie	RIGHT	RIGHT	1	607.7040501669537	7	2020-12-23 14:23:04.620032
4	Self	S201223b	0.5	1	2	2	1	0.8	1350.0000027	1350.0000027	2350.0000047	1933.3333372	Minor	Wrong_doings	28	You have failed to keep promises	C1_33	0.0	Easy	I1_46	33	There are 20 bones in the human skull	0.764705882352941	No	RIGHT	326.54409999997824	LEFT	899.5271000000002	RIGHT	1428.6981999999853	LEFT	1231.5877999999998	9.8	0.8	Probable_Lie	LEFT	LEFT	6	860.2594999999837	8	2020-12-23 14:23:28.923781
64	Self	S201223b	0.6666666666666666	1	2	1	2	0.1	1150.0000023	1066.6666688	2500.000005	1500.000003	Major	Good_deeds	16	You have switched off appliances when not in use	C2_16	0.05	Hard	I2_52	40	Christmas Day is in March	0.833333333333333	Yes	RIGHT	312.0746999999824	RIGHT	677.4757999999679	LEFT	896.3415000000055	RIGHT	1646.815800000013	9.9	0.1	Probable_Lie	LEFT	LEFT	3	578.2867000000351	9	2020-12-23 14:23:51.820680
17	Self	S201223b	0.6666666666666666	1	2	1	2	0.7	1216.6666691	1350.0000027	1783.3333369	1500.000003	Major	Good_deeds	1	You have sheltered others from disasters	C2_1	0.0	Easy	I2_30	58	A triangle has three sides	0.0	No	RIGHT	328.5827000000268	RIGHT	570.3743000000259	RIGHT	1104.0952999999831	RIGHT	1845.252600000037	10.599999999999998	0.7	Probable_Truth	RIGHT	RIGHT	6	472.39249999995536	10	2020-12-23 14:24:14.564260
63	Self	S201223b	0.5	2	1	2	1	0.1	1350.0000027	1000.000002	1933.3333372	1500.000003	Major	Good_deeds	46	You have started an NGO using your savings	C1_15	0.05	Hard	I2_39	19	There is typically 0.6 grams of mercury in glass thermometer	0.111111111111111	Yes	RIGHT	508.5373000000004	LEFT	504.70969999997806	RIGHT	1932.3972000000251	LEFT	2479.2894000000274	10.499999999999998	0.1	Probable_Lie	LEFT	RIGHT	2	960.7652999999914	11	2020-12-23 14:24:39.307961
67	Self	S201223b	0.6666666666666666	1	2	1	2	0.2	1000.000002	1433.3333362	2216.6666711000003	2500.000005	Minor	Good_deeds	14	You have organized a violent protest	C2_56	0.0	Hard	I1_29	16	Earth's atmosphere extends up to 10,000km into space	0.0	No	RIGHT	440.3558999999859	RIGHT	448.61850000000913	RIGHT	999.4628000000034	LEFT	1549.4188999999778	10.699999999999998	0.2	Probable_Truth	RIGHT	RIGHT	5	648.9839999999845	12	2020-12-23 14:25:03.115987
56	Self	S201223b	0.5	2	1	1	2	0.4	1066.6666688	1433.3333362	1500.000003	2350.0000047	Minor	Good_deeds	15	You have drunk alcohol when you were underage	C2_34	0.55	Easy	I1_39	39	The Amazon forest covers an area of 1 billion acres	0.0	Yes	RIGHT	891.5038000000095	LEFT	631.7486000000372	RIGHT	1119.1503999999668	LEFT	1675.767599999972	10.299999999999995	0.4	Probable_Lie	RIGHT	RIGHT	2	1091.9135000000324	13	2020-12-23 14:25:27.451517
98	Computer	S201223b	0.5	1	2	1	2	0.2	1150.0000023	1350.0000027	1650.0000033	2066.6666708	Major	Good_deeds	36	You have been convicted in court	C2_38	0.95	Easy	I2_45	44	Feijoa is a type of grape	0.0555555555555556	No	LEFT	358.9572000000203	LEFT	442.4204000000032	LEFT	1399.5039000000131	LEFT	1115.6856000000062	10.299999999999995	0.2	Probable_Lie	RIGHT	RIGHT	2	747.1755141969534	14	2020-12-23 14:25:50.307995
12	Self	S201223b	0.5	2	1	2	1	0.8	1433.3333362	1216.6666691	2066.6666708	1650.0000033	Minor	Good_deeds	43	You have rescued others from a catastrophe	C2_8	0.25	Easy	I1_40	40	Penguin can fly with their wings	0.611111111111111	Yes	RIGHT	725.5690999999729	RIGHT	216.8679000000111	LEFT	1073.353499999996	RIGHT	1464.4423999999958	11.099999999999998	0.8	Probable_Truth	LEFT	RIGHT	6	1373.044400000026	15	2020-12-23 14:26:14.099960
75	Self	S201223b	0.6666666666666666	2	1	1	2	0.8	1150.0000023	1150.0000023	1650.0000033	2500.000005	Major	Wrong_doings	26	You have stopped using products tested on animals	C1_37	0.05	Hard	I1_31	55	There are 7 days in a week	0.0	No	RIGHT	831.700699999999	LEFT	639.1433000000006	RIGHT	712.2920999998996	RIGHT	2517.94330000007	10.299999999999995	0.8	Probable_Lie	LEFT	LEFT	6	715.8506000000102	16	2020-12-23 14:26:38.539689
7	Self	S201223b	0.5	1	2	2	1	0.5	1283.3333359	1216.6666691	1500.000003	1500.000003	Minor	Wrong_doings	38	You have followed instructions	C2_29	0.0	Easy	I1_4	21	The Earth is round	0.888888888888889	Yes	RIGHT	248.2986999999639	RIGHT	709.8488000000316	RIGHT	608.1803999999238	RIGHT	920.8684000000176	10.799999999999995	0.5	Probable_Truth	RIGHT	RIGHT	6	1436.170700000048	17	2020-12-23 14:27:00.533038
119	Computer	S201223b	0.6666666666666666	1	2	2	1	0.5	1350.0000027	1000.000002	1650.0000033	1783.3333369	Major	Wrong_doings	38	You have cheated on a test	C2_11	0.95	Hard	I1_27	27	Fishes can swim in water	0.833333333333333	Yes	LEFT	433.01710000002913	RIGHT	648.1249999999363	RIGHT	778.9324000000306	LEFT	1071.0798999999724	10.799999999999995	0.5	Probable_Truth	LEFT	LEFT	1	994.7324684655996	18	2020-12-23 14:27:22.812306
45	Self	S201223b	0.8333333333333334	2	1	2	1	0.6	1350.0000027	1066.6666688	2066.6666708	1500.000003	Minor	Good_deeds	49	You have said thank you when you have received help	C2_24	1.0	Easy	I2_8	54	Mozambique is the world's poorest country	0.0555555555555556	Yes	RIGHT	437.6274999999623	RIGHT	271.7655999999806	LEFT	2102.466800000002	RIGHT	1376.5083000000686	11.399999999999997	0.6	Probable_Truth	LEFT	LEFT	1	823.4180999999126	19	2020-12-23 14:27:46.381047
69	Self	S201223b	0.6666666666666666	1	2	2	1	0.8	1216.6666691	1283.3333359	1933.3333372	1783.3333369	Minor	Wrong_doings	20	You have cursed at your loved ones	C1_29	0.9	Easy	I1_2	21	It is night time now	0.944444444444444	No	RIGHT	264.2981999999847	RIGHT	356.2897999998995	LEFT	1058.5373999999774	LEFT	1040.0035000000116	12.199999999999998	0.8	Probable_Lie	LEFT	LEFT	3	692.1558000000232	20	2020-12-23 14:28:08.580196
111	Computer	S201223b	0.5	2	1	2	1	0.4	1500.000003	1150.0000023	1933.3333372	1500.000003	Minor	Wrong_doings	40	You have sorted your trash into recycling bin	C1_9	1.0	Hard	I2_34	56	"Statue of Liberty is 151 feet tall"	0.0	No	LEFT	583.4598999999798	RIGHT	296.8392000000222	RIGHT	1374.512799999934	RIGHT	1103.5498999999618	12.199999999999998	0.4	Probable_Truth	LEFT	RIGHT	6	759.1898364608468	21	2020-12-23 14:28:31.355545
130	Computer	S201223b	0.8333333333333334	1	2	1	2	0.2	1433.3333362	1433.3333362	1783.3333369	1783.3333369	Minor	Good_deeds	31	You have volunteered every week for many years	C1_34	0.65	Hard	I2_48	31	The hyoid bone is the only jointless bone	0.833333333333333	No	LEFT	272.6971000000731	LEFT	606.7663000000039	RIGHT	2095.4327000000603	RIGHT	2155.7278000000224	12.199999999999998	0.2	Probable_Truth	LEFT	RIGHT	5	977.9031523343048	22	2020-12-23 14:28:56.470218
134	Computer	S201223b	0.8333333333333334	1	2	2	1	0.6	1350.0000027	1066.6666688	1650.0000033	1650.0000033	Minor	Wrong_doings	39	You have kidnapped someone	C1_39	0.0	Easy	I1_35	36	It is 20th Century now	0.0	Yes	LEFT	296.9739000000118	RIGHT	565.018699999996	RIGHT	1784.124599999927	LEFT	1104.4180000000097	12.199999999999998	0.6	Probable_Truth	RIGHT	LEFT	1	790.7855258051246	23	2020-12-23 14:29:19.292264
101	Computer	S201223b	0.5	1	2	2	1	0.8	1350.0000027	1216.6666691	2500.000005	2216.6666711000003	Major	Good_deeds	47	You have borrowed things and never returned	C1_4	0.8	Hard	I1_33	46	The Franco-Prussian War occurred in the 19th century	0.0	Yes	LEFT	815.7518000000437	LEFT	1051.6708000000108	LEFT	1617.1044999999822	LEFT	1504.0448999999398	12.199999999999998	0.8	Probable_Lie	LEFT	LEFT	4	807.1312540013598	24	2020-12-23 14:29:44.932123
32	Self	S201223b	0.8333333333333334	1	2	1	2	0.4	1500.000003	1000.000002	1933.3333372	2350.0000047	Major	Good_deeds	9	You have thrown your trash into the bin	C1_8	1.0	Hard	I1_12	48	Fibers in oranges can be used to make fabric	0.611111111111111	No	RIGHT	327.8228000000354	RIGHT	852.583500000037	LEFT	2126.939800000059	RIGHT	1474.254799999926	12.599999999999998	0.4	Probable_Lie	LEFT	LEFT	4	747.6130000000012	25	2020-12-23 14:30:09.819702
8	Self	S201223b	0.5	2	1	1	2	0.1	1500.000003	1350.0000027	2350.0000047	2066.6666708	Minor	Good_deeds	57	You have bribed someone to improve a grade	C2_2	0.0	Hard	I1_60	23	The Eiffel Tower is in Paris	0.888888888888889	Yes	RIGHT	827.9631999999992	RIGHT	336.6618000000017	RIGHT	823.6297000000832	LEFT	1951.6898999999055	12.699999999999998	0.1	Probable_Truth	RIGHT	LEFT	3	957.055799999921	26	2020-12-23 14:30:34.555518
11	Self	S201223b	0.5	2	1	1	2	0.3	1150.0000023	1433.3333362	2500.000005	1783.3333369	Major	Good_deeds	52	You have engaged in underage smoking	C1_57	0.05	Easy	I2_1	34	Acoustic Kitty refers to cat with implants	0.833333333333333	No	RIGHT	956.6598999999768	LEFT	232.46019999999132	RIGHT	1718.4813999999733	LEFT	1259.1168000000152	12.399999999999997	0.3	Probable_Lie	LEFT	LEFT	6	931.2095000000228	27	2020-12-23 14:30:59.092239
83	Self	S201223b	0.8333333333333334	1	2	1	2	0.4	1500.000003	1433.3333362	2216.6666711000003	1933.3333372	Minor	Wrong_doings	46	You have claimed doing things that you never did	C2_46	0.05	Easy	I2_23	15	The sun rises at night	0.0	Yes	RIGHT	304.4941000000563	RIGHT	390.83240000002206	LEFT	1071.4849999999387	LEFT	1613.7048000000505	12.799999999999995	0.4	Probable_Truth	LEFT	LEFT	1	627.0638999999392	28	2020-12-23 14:31:22.755459
103	Computer	S201223b	0.5	1	2	2	1	0.1	1066.6666688	1150.0000023	2350.0000047	2350.0000047	Minor	Wrong_doings	38	You have followed instructions	C2_29	0.0	Easy	I1_4	21	The Earth is round	0.888888888888889	Yes	LEFT	248.74399999998784	RIGHT	991.1144000000148	RIGHT	795.0289999999995	RIGHT	720.0556000000233	12.799999999999995	0.1	Probable_Truth	RIGHT	RIGHT	6	838.093699707629	29	2020-12-23 14:31:45.827410
95	Self	S201223b	0.8333333333333334	2	1	2	1	0.8	1350.0000027	1216.6666691	2216.6666711000003	1500.000003	Major	Good_deeds	59	You have eaten something in the MRT train	C1_28	0.0	Easy	I2_43	28	The first Olympic Games was held in the 5th century B.C	0.0	No	RIGHT	1016.1988999999494	LEFT	224.1954999999507	RIGHT	2437.07500000005	LEFT	1287.7957999999126	11.999999999999996	0.8	Probable_Lie	RIGHT	RIGHT	1	512.1661000000586	30	2020-12-23 14:32:10.163682
137	Computer	S201223b	0.8333333333333334	2	1	1	2	0.5	1500.000003	1500.000003	1500.000003	1933.3333372	Major	Good_deeds	13	You have been sued	C2_33	0.75	Easy	I1_54	10	Pyramid of Giza is 468 feet tall	0.777777777777778	No	LEFT	644.6822999999995	RIGHT	296.17659999996704	RIGHT	966.3635000000568	LEFT	869.0704000000551	11.999999999999996	0.5	Probable_Truth	RIGHT	RIGHT	2	698.6276300683037	31	2020-12-23 14:32:32.643669
132	Computer	S201223b	0.8333333333333334	1	2	2	1	0.3	1500.000003	1350.0000027	1500.000003	1500.000003	Minor	Wrong_doings	23	You have watched an M18 movie when you were underage	C2_39	0.0	Easy	I2_31	35	Teddy Roosevelt was the youngest US President	0.0	No	LEFT	248.35129999996752	RIGHT	698.7517000000025	RIGHT	1515.3958999999304	LEFT	1143.205299999977	11.999999999999996	0.3	Probable_Truth	LEFT	LEFT	1	514.539893770593	32	2020-12-23 14:32:55.188117
40	Self	S201223b	0.8333333333333334	2	1	1	2	0.7	1066.6666688	1216.6666691	2350.0000047	1650.0000033	Major	Good_deeds	5	You have lost everything just to help others	C1_48	0.0	Hard	I2_25	5	The current century is 21st	0.666666666666667	No	RIGHT	442.37120000002506	RIGHT	272.9176999999936	RIGHT	1055.739600000038	LEFT	2566.9317000000547	12.699999999999996	0.7	Probable_Truth	RIGHT	RIGHT	3	505.1413999999568	33	2020-12-23 14:33:18.892324
54	Self	S201223b	0.5	1	2	2	1	0.2	1500.000003	1283.3333359	2066.6666708	2500.000005	Major	Good_deeds	60	You have sold illegal drugs	C1_11	0.65	Easy	I1_14	45	Algeria is Africa's second largest country	0.666666666666667	No	RIGHT	271.84569999997166	RIGHT	491.69689999996535	LEFT	2229.59979999996	LEFT	871.830100000011	12.899999999999997	0.2	Probable_Truth	LEFT	RIGHT	4	1177.7947000000495	34	2020-12-23 14:33:43.859446
52	Self	S201223b	0.5	1	2	2	1	0.7	1433.3333362	1216.6666691	1500.000003	1500.000003	Major	Good_deeds	45	You have confessed to your mistake	C2_7	0.95	Easy	I2_12	13	Hot chocolate was created by the Mayan culture	0.0	Yes	RIGHT	529.1059999999561	RIGHT	572.6435000000265	RIGHT	1941.9809000000896	RIGHT	1247.1510000000308	13.599999999999994	0.7	Probable_Truth	LEFT	LEFT	3	1011.3450000000056	35	2020-12-23 14:34:07.387520
85	Self	S201223b	0.8333333333333334	1	2	2	1	0.3	1283.3333359	1150.0000023	1650.0000033	1500.000003	Major	Wrong_doings	22	You have cursed at others	C1_27	0.05	Hard	I1_58	58	Arabi is the oldest surviving breed of horse	1.0	No	RIGHT	224.3608999999651	LEFT	710.2677999999969	RIGHT	2006.7306999999344	LEFT	984.1697000000522	13.299999999999994	0.3	Probable_Lie	RIGHT	RIGHT	1	607.5152000000799	36	2020-12-23 14:34:30.076249
3	Self	S201223b	0.5	1	2	1	2	0.6	1150.0000023	1000.000002	1933.3333372	2066.6666708	Major	Wrong_doings	4	You have started a movement to support a cause	C2_28	0.95	Hard	I2_49	54	Singapore is in Africa	0.0555555555555556	Yes	RIGHT	232.3028000000704	LEFT	1051.2969999999768	LEFT	896.1563000000297	LEFT	2127.555799999982	12.699999999999994	0.6	Probable_Lie	LEFT	LEFT	5	828.0379000000266	37	2020-12-23 14:34:53.931881
6	Self	S201223b	0.5	1	2	2	1	0.1	1433.3333362	1150.0000023	1650.0000033	1650.0000033	Major	Good_deeds	33	You have complimented others for good work	C1_36	0.0	Hard	I2_44	4	Last day of the year is 30th December	0.944444444444444	No	RIGHT	216.1311999998361	LEFT	1053.641999999968	LEFT	1830.5268999999955	RIGHT	1191.9449000001805	12.599999999999994	0.1	Probable_Lie	LEFT	RIGHT	1	763.263199999983	38	2020-12-23 14:35:17.443552
55	Self	S201223b	0.5	1	2	2	1	0.3	1000.000002	1350.0000027	2216.6666711000003	1783.3333369	Minor	Wrong_doings	53	You have taken responsibility for your actions	C1_60	1.0	Hard	I1_43	12	Brazil is in South America	0.0555555555555556	Yes	RIGHT	536.4912000000004	RIGHT	688.1559999999354	RIGHT	1129.8658000000614	RIGHT	871.5512000001127	12.899999999999997	0.3	Probable_Truth	RIGHT	RIGHT	4	1009.3793000000916	39	2020-12-23 14:35:40.603747
57	Self	S201223b	0.5	2	1	1	2	0.6	1500.000003	1500.000003	2500.000005	2216.6666711000003	Minor	Wrong_doings	19	You have helped your parents when asked to	C2_19	0.85	Hard	I2_17	39	Beer is an alcoholic drink	0.833333333333333	Yes	RIGHT	333.08119999992414	RIGHT	320.6846000000496	RIGHT	1096.5888000000632	RIGHT	2063.544699999966	13.499999999999996	0.6	Probable_Truth	LEFT	RIGHT	4	959.862899999962	40	2020-12-23 14:36:05.667620
30	Self	S201223b	0.6666666666666666	2	1	2	1	0.1	1500.000003	1433.3333362	1650.0000033	2066.6666708	Minor	Good_deeds	40	You have engaged in arson	C1_3	0.05	Easy	I2_59	25	Milwaukee Art Museum is located in California	0.0	No	RIGHT	1015.0006999999732	LEFT	360.90999999987616	RIGHT	1799.0151999999853	LEFT	1087.5892000001386	13.399999999999997	0.1	Probable_Lie	RIGHT	RIGHT	1	690.4976000000715	41	2020-12-23 14:36:29.843925
24	Self	S201223b	0.6666666666666666	2	1	1	2	0.6	1283.3333359	1500.000003	2500.000005	2500.000005	Minor	Wrong_doings	3	You have told someone's secret to others	C2_27	0.0	Easy	I2_24	8	Septicemia is a lung infection condition	0.0555555555555556	Yes	RIGHT	277.22749999998086	RIGHT	272.3971000000347	LEFT	1775.228199999901	LEFT	1660.747399999991	13.999999999999996	0.6	Probable_Truth	LEFT	LEFT	2	649.3044999999711	42	2020-12-23 14:36:54.835553
35	Self	S201223b	0.8333333333333334	1	2	1	2	0.5	1066.6666688	1350.0000027	2216.6666711000003	2216.6666711000003	Minor	Good_deeds	19	You have shown your appreciation to your teachers	C1_19	0.9	Easy	I2_36	5	Marijuana is legal in Singapore	0.0	Yes	RIGHT	368.2742000000872	RIGHT	344.36809999988327	LEFT	1040.2134000000842	RIGHT	1576.014399999849	14.499999999999996	0.5	Probable_Truth	LEFT	LEFT	1	541.4535999998407	43	2020-12-23 14:37:18.131588
18	Self	S201223b	0.6666666666666666	1	2	1	2	0.6	1283.3333359	1500.000003	1650.0000033	1783.3333369	Major	Good_deeds	1	You have provided shelter for stray animals	C1_1	1.0	Easy	I2_35	13	Lehman Brothers went bankrupt on 20th September	0.888888888888889	No	RIGHT	695.5841999999848	RIGHT	519.5255999999517	RIGHT	2400.2535999998145	RIGHT	1345.21309999991	15.099999999999994	0.6	Probable_Truth	LEFT	LEFT	1	752.525599999899	44	2020-12-23 14:37:42.635403
123	Computer	S201223b	0.6666666666666666	2	1	1	2	0.4	1283.3333359	1350.0000027	2216.6666711000003	2066.6666708	Major	Good_deeds	10	You have helped others to pick up their belongings	C1_40	0.05	Hard	I1_50	22	There are 30 hours in a day	0.0	Yes	LEFT	764.6967000000586	LEFT	527.8940999999122	LEFT	1136.0420999999403	RIGHT	2284.700100000009	15.099999999999994	0.4	Probable_Lie	RIGHT	RIGHT	1	957.2033902395148	45	2020-12-23 14:38:07.788167
53	Self	S201223b	0.5	1	2	2	1	0.1	1150.0000023	1500.000003	1650.0000033	1650.0000033	Minor	Wrong_doings	7	You have bought cigarettes for a minor	C2_30	0.0	Hard	I1_45	14	Polish is 20th most spoken language in the World	0.888888888888889	Yes	RIGHT	512.0510000001559	RIGHT	493.3768999999302	LEFT	1815.8553000000663	LEFT	1672.1202999999605	15.199999999999994	0.1	Probable_Truth	RIGHT	LEFT	3	798.311700000113	46	2020-12-23 14:38:31.604256
38	Self	S201223b	0.8333333333333334	1	2	2	1	0.3	1433.3333362	1216.6666691	2350.0000047	2500.000005	Minor	Wrong_doings	39	You have kidnapped someone	C1_39	0.0	Easy	I1_35	36	It is 20th Century now	0.0	Yes	RIGHT	608.5891000000174	RIGHT	683.5820999999669	LEFT	1120.6483999999364	LEFT	799.9504000001707	15.499999999999996	0.3	Probable_Truth	LEFT	LEFT	1	772.2516999999698	47	2020-12-23 14:38:55.659571
139	Computer	S201223b	0.8333333333333334	2	1	1	2	0.4	1150.0000023	1066.6666688	1650.0000033	2500.000005	Major	Wrong_doings	48	You have blackmailed others for money	C2_13	0.0	Easy	I1_5	44	French is Singapore's official language	0.833333333333333	Yes	LEFT	433.8055999999142	RIGHT	664.0459999998711	LEFT	967.2937000000276	LEFT	1013.9016999999058	15.499999999999996	0.4	Probable_Truth	RIGHT	RIGHT	4	902.0045919731872	48	2020-12-23 14:40:44.571710
121	Computer	S201223b	0.6666666666666666	2	1	1	2	0.5	1433.3333362	1150.0000023	1500.000003	1500.000003	Major	Good_deeds	27	You have made someone cry	C2_50	1.0	Easy	I2_22	24	The Seine river is 50 feet above sea level	0.944444444444444	Yes	LEFT	394.5154000000457	RIGHT	256.06340000013006	RIGHT	1687.262099999998	LEFT	934.3152999999802	15.499999999999996	0.5	Probable_Truth	RIGHT	LEFT	2	609.260986765199	49	2020-12-23 14:41:06.611516
125	Computer	S201223b	0.6666666666666666	2	1	2	1	0.2	1066.6666688	1000.000002	2350.0000047	2500.000005	Minor	Good_deeds	20	You have adopted a zero-waste lifestyle	C2_57	0.95	Hard	I1_57	59	Vegetarians can eat vegetable products	0.888888888888889	Yes	LEFT	400.511300000062	RIGHT	288.10539999994944	RIGHT	1838.7500999999704	RIGHT	1672.0620999999485	15.499999999999996	0.2	Probable_Truth	RIGHT	RIGHT	3	693.8851902810763	50	2020-12-23 14:41:30.995872
49	Self	S201223b	0.5	1	2	1	2	0.8	1216.6666691	1150.0000023	1933.3333372	2216.6666711000003	Minor	Wrong_doings	30	You have fabricated facts about yourself	C2_45	0.05	Easy	I2_13	3	Red is a color	0.888888888888889	Yes	RIGHT	104.03279999991356	LEFT	948.890399999982	RIGHT	1409.192399999938	LEFT	1489.5787000000382	14.699999999999994	0.8	Probable_Lie	LEFT	RIGHT	3	1083.3712999999534	51	2020-12-23 14:41:55.116257
43	Self	S201223b	0.8333333333333334	2	1	1	2	0.5	1283.3333359	1283.3333359	1783.3333369	2500.000005	Major	Wrong_doings	48	You have blackmailed others for money	C2_13	0.0	Easy	I1_5	44	French is Singapore's official language	0.833333333333333	Yes	RIGHT	1016.3029999998798	RIGHT	256.2305999999808	LEFT	831.5735999999561	LEFT	1031.1429000000771	15.199999999999994	0.5	Probable_Truth	LEFT	LEFT	1	400.8467999999539	52	2020-12-23 14:42:18.076285
86	Self	S201223b	0.8333333333333334	1	2	2	1	0.7	1433.3333362	1216.6666691	1933.3333372	2216.6666711000003	Minor	Good_deeds	17	You have given up your seat in the MRT	C1_44	0.85	Easy	I2_38	41	Carnivore refers to meat-eater	0.0	Yes	RIGHT	256.8407000001116	RIGHT	307.3737000001984	RIGHT	1744.324499999948	RIGHT	1128.312600000072	15.899999999999991	0.7	Probable_Truth	RIGHT	RIGHT	4	541.991299999836	53	2020-12-23 14:42:41.427781
129	Computer	S201223b	0.8333333333333334	1	2	1	2	0.1	1283.3333359	1000.000002	1933.3333372	1933.3333372	Major	Wrong_doings	34	You have signed up as a bone marrow donor	C2_31	0.1	Hard	I1_42	42	Africa is the continent with the least rainfall	0.611111111111111	No	LEFT	192.56399999994755	LEFT	682.7281000000767	RIGHT	2591.634599999906	LEFT	2003.112000000101	15.899999999999991	0.1	Probable_Lie	LEFT	RIGHT	1	608.7659905653427	54	2020-12-23 14:43:06.219645
97	Computer	S201223b	0.5	1	2	1	2	0.6	1283.3333359	1500.000003	2216.6666711000003	2500.000005	Minor	Good_deeds	29	You have bribed a police officer	C1_12	0.85	Easy	I2_54	49	The first Grammy awards was held in 1959	0.0	No	RIGHT	128.660200000013	RIGHT	441.9917999998688	RIGHT	2519.652599999972	LEFT	1077.3821000000223	16.499999999999993	0.6	Probable_Truth	RIGHT	RIGHT	6	723.1618862292612	55	2020-12-23 14:43:31.172277
77	Self	S201223b	0.6666666666666666	2	1	2	1	0.1	1433.3333362	1433.3333362	2216.6666711000003	1783.3333369	Major	Wrong_doings	23	You have engaged in drink-driving	C2_26	1.0	Easy	I2_4	50	Cernan was the second last man to walk on the Moon	0.777777777777778	Yes	RIGHT	1448.3671999998933	RIGHT	632.6238999999987	LEFT	2874.3046999998114	LEFT	1039.4733000000542	16.599999999999994	0.1	Probable_Truth	RIGHT	RIGHT	3	1357.618900000034	56	2020-12-23 14:43:57.963660
59	Self	S201223b	0.5	2	1	1	2	0.3	1000.000002	1350.0000027	2350.0000047	2500.000005	Major	Wrong_doings	51	You have taken part in violent demonstration	C2_54	1.0	Easy	I2_42	17	Nomophobia is the fear of being without a phone or computer	0.722222222222222	No	RIGHT	1235.0368000002163	RIGHT	304.67079999993985	LEFT	1863.9459999999417	LEFT	1403.7909999999556	16.899999999999995	0.3	Probable_Truth	LEFT	LEFT	1	824.578400000064	57	2020-12-23 14:44:23.370319
94	Self	S201223b	0.8333333333333334	2	1	2	1	0.7	1500.000003	1433.3333362	1500.000003	2500.000005	Minor	Wrong_doings	25	You have donated a pay cheque to charity	C2_14	0.0	Hard	I2_2	38	Mexico's National Day is September 16	0.888888888888889	Yes	RIGHT	628.7711999998464	RIGHT	247.91019999997843	LEFT	2340.723399999888	LEFT	1702.514699999938	17.599999999999994	0.7	Probable_Lie	LEFT	LEFT	2	859.9750999999287	58	2020-12-23 14:44:48.659455
25	Self	S201223b	0.6666666666666666	2	1	1	2	0.7	1216.6666691	1283.3333359	2216.6666711000003	2216.6666711000003	Major	Good_deeds	27	You have made someone cry	C2_50	1.0	Easy	I2_22	24	The Seine river is 50 feet above sea level	0.944444444444444	Yes	RIGHT	633.182300000044	RIGHT	231.740999999829	RIGHT	1167.370400000209	LEFT	1025.4187000000456	18.299999999999997	0.7	Probable_Truth	RIGHT	RIGHT	4	625.6313000001228	59	2020-12-23 14:45:11.852007
44	Self	S201223b	0.8333333333333334	2	1	2	1	0.3	1433.3333362	1150.0000023	1500.000003	2066.6666708	Major	Good_deeds	33	You have pretended to be busy to avoid a social situation	C2_53	0.95	Hard	I2_6	25	Saturn's rings are between 30 and 300 feet thick	0.0	No	RIGHT	326.03900000003705	RIGHT	247.83350000006976	RIGHT	1334.2772999999395	LEFT	1327.8479000000516	18.599999999999994	0.3	Probable_Truth	RIGHT	RIGHT	2	590.1994000000741	60	2020-12-23 14:45:34.404215
19	Self	S201223b	0.6666666666666666	1	2	1	2	0.3	1066.6666688	1283.3333359	2500.000005	2500.000005	Minor	Wrong_doings	42	You have been arrested	C2_60	0.0	Hard	I1_41	30	Airbags in cars are filled with sodium azide	0.0	Yes	RIGHT	239.81419999995524	RIGHT	364.1789000000699	LEFT	1839.252600000009	LEFT	781.0874000001604	18.899999999999995	0.3	Probable_Truth	LEFT	LEFT	2	706.7375999999967	61	2020-12-23 14:45:58.260075
15	Self	S201223b	0.5	2	1	2	1	0.5	1350.0000027	1150.0000023	1650.0000033	2350.0000047	Minor	Wrong_doings	40	You have sorted your trash into recycling bin	C1_9	1.0	Hard	I2_34	56	"Statue of Liberty is 151 feet tall"	0.0	No	RIGHT	471.3917000001402	RIGHT	239.98150000011265	RIGHT	1089.1913999998906	RIGHT	831.6595000001143	19.399999999999995	0.5	Probable_Truth	RIGHT	LEFT	3	978.6309999999504	62	2020-12-23 14:46:20.948106
96	Computer	S201223b	0.5	1	2	1	2	0.4	1433.3333362	1283.3333359	2066.6666708	1783.3333369	Minor	Wrong_doings	12	You have let a homeless man into your house	C2_47	0.0	Hard	I1_21	45	The Moon orbits around the Earth	0.777777777777778	Yes	LEFT	615.6363999998575	LEFT	1158.333900000116	RIGHT	711.6323000000193	LEFT	1723.8075000000208	19.399999999999995	0.4	Probable_Lie	RIGHT	LEFT	6	883.898776685545	63	2020-12-23 14:46:45.179856
28	Self	S201223b	0.6666666666666666	2	1	2	1	0.4	1350.0000027	1216.6666691	2066.6666708	1650.0000033	Major	Wrong_doings	50	You have helped with household chores	C1_20	1.0	Hard	I1_8	50	Astatine is the rarest element in the Earth's crust	0.944444444444444	No	RIGHT	469.6160999999393	RIGHT	415.8320000001368	RIGHT	2750.659099999893	RIGHT	751.3764000000265	19.799999999999997	0.4	Probable_Truth	LEFT	LEFT	1	497.2850999999992	64	2020-12-23 14:47:08.923778
91	Self	S201223b	0.8333333333333334	2	1	1	2	0.4	1216.6666691	1066.6666688	1933.3333372	2350.0000047	Minor	Wrong_doings	28	You have taken part in burglary	C2_59	1.0	Hard	I2_53	43	North Korea is more developed than South Korea	0.0	No	RIGHT	340.53270000003977	RIGHT	248.45830000003843	LEFT	1478.530899999896	LEFT	1130.8495000000676	20.199999999999992	0.4	Probable_Truth	LEFT	LEFT	1	1186.641099999861	65	2020-12-23 14:47:32.451604
72	Self	S201223b	0.6666666666666666	2	1	1	2	0.4	1000.000002	1066.6666688	2350.0000047	1500.000003	Minor	Good_deeds	37	You have used a fake name online	C1_50	0.95	Hard	I1_11	31	South East Asia is currently free from polio	0.888888888888889	Yes	RIGHT	1683.0664999999954	LEFT	527.8980999999021	RIGHT	1871.461499999896	LEFT	1605.4337000000487	19.799999999999997	0.4	Probable_Lie	LEFT	LEFT	5	485.039499999857	66	2020-12-23 14:47:57.115371
89	Self	S201223b	0.8333333333333334	2	1	1	2	0.2	1150.0000023	1150.0000023	1783.3333369	1650.0000033	Major	Wrong_doings	59	You have attended all lectures as a student	C1_16	0.2	Hard	I2_51	17	Today is a weekday	1.0	Yes	RIGHT	387.11689999991	RIGHT	280.3475000000617	RIGHT	959.7705999999562	RIGHT	1638.293400000066	19.999999999999996	0.2	Probable_Truth	RIGHT	RIGHT	2	733.4912999999688	67	2020-12-23 14:48:19.419764
128	Computer	S201223b	0.8333333333333334	1	2	1	2	0.8	1066.6666688	1216.6666691	2066.6666708	2066.6666708	Major	Good_deeds	9	You have thrown your trash into the bin	C1_8	1.0	Hard	I1_12	48	Fibers in oranges can be used to make fabric	0.611111111111111	No	LEFT	399.5044000000689	LEFT	606.1538999999811	LEFT	2367.4332000000504	RIGHT	1072.1459999999752	19.999999999999996	0.8	Probable_Truth	LEFT	RIGHT	3	970.0879698907148	68	2020-12-23 14:48:43.819385
68	Self	S201223b	0.6666666666666666	1	2	2	1	0.6	1283.3333359	1500.000003	1650.0000033	1650.0000033	Major	Good_deeds	56	You have assisted in a crime	C1_35	0.95	Easy	I2_40	36	China is a part of Asia	0.0	Yes	RIGHT	391.77059999997255	RIGHT	640.1467999999113	RIGHT	1032.465099999854	LEFT	1327.570299999934	20.599999999999994	0.6	Probable_Lie	RIGHT	RIGHT	2	616.5401000000656	69	2020-12-23 14:49:06.484825
23	Self	S201223b	0.6666666666666666	1	2	2	1	0.8	1433.3333362	1066.6666688	2216.6666711000003	2350.0000047	Major	Wrong_doings	38	You have cheated on a test	C2_11	0.95	Hard	I1_27	27	Fishes can swim in water	0.833333333333333	Yes	RIGHT	953.4066000001076	RIGHT	631.2426999998024	RIGHT	1180.399800000032	LEFT	1039.0767999999753	21.399999999999995	0.8	Probable_Truth	LEFT	LEFT	1	693.887899999936	70	2020-12-23 14:49:30.620257
58	Self	S201223b	0.5	2	1	1	2	0.8	1283.3333359	1283.3333359	2216.6666711000003	2066.6666708	Minor	Good_deeds	54	You have started a hotline for victims of bully	C1_46	0.0	Easy	I2_33	1	Cheese is an Asian staple	0.0	No	RIGHT	1671.3825000001634	LEFT	248.75509999992573	LEFT	2095.4180999999608	LEFT	1431.3320000001113	20.599999999999994	0.8	Probable_Lie	LEFT	LEFT	4	871.5730999999778	71	2020-12-23 14:49:56.363527
50	Self	S201223b	0.5	1	2	1	2	0.4	1283.3333359	1066.6666688	2500.000005	2066.6666708	Major	Good_deeds	24	You have been restricting your electricity consumption	C1_24	0.45	Hard	I1_3	28	It is snowing outside now	0.944444444444444	No	RIGHT	512.3337999998512	LEFT	1101.9946999999777	LEFT	920.1500000001488	RIGHT	2951.250699999946	20.2	0.4	Probable_Lie	RIGHT	RIGHT	2	808.8509000001523	72	2020-12-23 14:50:22.146325
131	Computer	S201223b	0.8333333333333334	1	2	1	2	0.4	1150.0000023	1150.0000023	2216.6666711000003	2500.000005	Minor	Good_deeds	19	You have shown your appreciation to your teachers	C1_19	0.9	Easy	I2_36	5	Marijuana is legal in Singapore	0.0	Yes	LEFT	855.4927000000134	LEFT	1621.230100000048	LEFT	807.3830000000726	RIGHT	1293.0558000000474	20.2	0.4	Probable_Lie	LEFT	RIGHT	1	729.6843395044023	73	2020-12-23 14:50:47.043184
26	Self	S201223b	0.6666666666666666	2	1	1	2	0.2	1150.0000023	1150.0000023	1500.000003	2350.0000047	Major	Wrong_doings	47	You have sign up to sponsor a needy child	C1_47	0.8	Hard	I1_25	57	It sometimes snows in Singapore	0.0	No	RIGHT	1235.454400000208	LEFT	743.7380999999732	LEFT	1199.941399999943	LEFT	2274.3588999999247	20.0	0.2	Probable_Lie	LEFT	LEFT	5	491.3961999998264	74	2020-12-23 14:51:11.716258
22	Self	S201223b	0.6666666666666666	1	2	2	1	0.1	1000.000002	1000.000002	2350.0000047	1650.0000033	Minor	Wrong_doings	6	You have held the door open for a stranger	C2_37	0.65	Hard	I2_11	41	Cleopatra was born in Greece	0.111111111111111	Yes	RIGHT	216.7954999999893	RIGHT	362.7638999998908	LEFT	1647.4576000000525	RIGHT	1696.36330000003	20.1	0.1	Probable_Truth	LEFT	LEFT	1	2332.5371999999334	75	2020-12-23 14:51:36.547881
120	Computer	S201223b	0.6666666666666666	2	1	1	2	0.6	1500.000003	1066.6666688	1933.3333372	1783.3333369	Minor	Wrong_doings	3	You have told someone's secret to others	C2_27	0.0	Easy	I2_24	8	Septicemia is a lung infection condition	0.0555555555555556	Yes	LEFT	906.6571999999268	RIGHT	207.98880000006648	LEFT	1671.1321999998745	LEFT	1239.785900000015	20.1	0.6	Probable_Truth	LEFT	LEFT	2	680.6181374459455	76	2020-12-23 14:52:00.115346
9	Self	S201223b	0.5	2	1	1	2	0.4	1000.000002	1066.6666688	2216.6666711000003	1933.3333372	Major	Wrong_doings	8	You have watched a pirated movie	C2_40	0.85	Easy	I2_26	24	Animals are living things	0.166666666666667	Yes	RIGHT	440.1242999997521	RIGHT	617.7913999999873	RIGHT	1000.12549999974	LEFT	1860.4173999997329	20.5	0.4	Probable_Lie	RIGHT	LEFT	5	748.5679999999775	77	2020-12-23 14:52:23.570475
90	Self	S201223b	0.8333333333333334	2	1	1	2	0.1	1066.6666688	1000.000002	2350.0000047	1933.3333372	Major	Good_deeds	14	You have given way to the handicapped	C1_31	1.0	Easy	I1_32	51	R. Amundsen discovered the South Pole	1.0	Yes	RIGHT	454.7695999999633	RIGHT	239.72469999989696	LEFT	2417.0713999997133	RIGHT	868.0912999998327	20.6	0.1	Probable_Truth	RIGHT	RIGHT	5	804.5247000000018	78	2020-12-23 14:52:47.283386
27	Self	S201223b	0.6666666666666666	2	1	1	2	0.3	1066.6666688	1000.000002	2350.0000047	1783.3333369	Major	Good_deeds	10	You have helped others to pick up their belongings	C1_40	0.05	Hard	I1_50	22	There are 30 hours in a day	0.0	Yes	RIGHT	522.1875000002001	RIGHT	567.6524000000427	LEFT	807.9375000002074	RIGHT	2705.7380999999623	20.9	0.3	Probable_Truth	LEFT	LEFT	2	629.5168999999987	79	2020-12-23 14:53:11.291528
76	Self	S201223b	0.6666666666666666	2	1	2	1	0.7	1283.3333359	1216.6666691	1783.3333369	2350.0000047	Minor	Wrong_doings	48	You have said sorry when you were rude	C1_13	0.65	Easy	I1_52	4	Singapore has four seasons	0.0	No	LEFT	1384.6388000001753	RIGHT	1240.7499000000826	LEFT	1283.6495999999895	RIGHT	1239.8057000000335	20.9	0.7	Probable_Lie	RIGHT	RIGHT	1	574.3750000001455	80	2020-12-23 14:53:36.219928
1	Self	S201223b	0.5	1	2	1	2	0.3	1216.6666691	1433.3333362	1783.3333369	2216.6666711000003	Minor	Good_deeds	29	You have bribed a police officer	C1_12	0.85	Easy	I2_54	49	The first Grammy awards was held in 1959	0.0	No	RIGHT	249.377000000095	RIGHT	530.7474999999613	RIGHT	1087.717800000064	LEFT	1792.0495999997	21.2	0.3	Probable_Lie	RIGHT	RIGHT	1	799.901299999874	81	2020-12-23 14:53:59.900278
51	Self	S201223b	0.5	1	2	1	2	0.5	1066.6666688	1433.3333362	1783.3333369	2350.0000047	Minor	Wrong_doings	11	You have been donating all your excess food to a food bank	C2_58	0.5	Hard	I2_18	18	Dutch is the 6th Europe's most widely spoken language	0.0	No	RIGHT	247.87749999995867	RIGHT	1537.3147999998764	RIGHT	1534.9280000000365	RIGHT	3075.4252000001543	21.7	0.5	Probable_Truth	LEFT	LEFT	3	721.2819000001218	82	2020-12-23 14:54:26.228265
47	Self	S201223b	0.8333333333333334	2	1	2	1	0.2	1000.000002	1500.000003	1933.3333372	1933.3333372	Minor	Wrong_doings	53	You have helped a friend in need	C1_5	0.0	Easy	I1_10	3	The human's inner ear is larger than a pencil eraser	0.944444444444444	Yes	RIGHT	347.74170000036975	RIGHT	296.552199999951	RIGHT	2702.370200000132	RIGHT	1542.6408000002994	21.9	0.2	Probable_Truth	RIGHT	RIGHT	2	378.5348999999769	83	2020-12-23 14:54:50.434970
142	Computer	S201223b	0.8333333333333334	2	1	2	1	0.7	1283.3333359	1000.000002	1933.3333372	2066.6666708	Minor	Wrong_doings	24	You have stopped using plastics completely	C1_30	0.0	Hard	I2_3	8	There are 9 rings in the Olympic flag	0.0	Yes	RIGHT	557.366699999875	RIGHT	351.6316999998708	LEFT	1223.962100000335	LEFT	2080.6523000001107	22.6	0.7	Probable_Lie	RIGHT	LEFT	2	720.0794631032682	84	2020-12-23 14:55:14.220202
60	Self	S201223b	0.5	2	1	2	1	0.5	1150.0000023	1216.6666691	1650.0000033	1783.3333369	Minor	Wrong_doings	18	You have intentionally let others cut in line	C1_51	0.0	Hard	I1_53	53	Summer is hotter than winter	0.0	Yes	RIGHT	976.6507999997884	RIGHT	447.57650000019567	RIGHT	1907.5146000000127	LEFT	2056.537599999956	23.1	0.5	Probable_Truth	RIGHT	RIGHT	6	704.6694000000571	85	2020-12-23 14:55:38.684097
136	Computer	S201223b	0.8333333333333334	2	1	1	2	0.8	1000.000002	1433.3333362	2066.6666708	1500.000003	Major	Good_deeds	5	You have lost everything just to help others	C1_48	0.0	Hard	I2_25	5	The current century is 21st	0.666666666666667	No	RIGHT	485.7974000001377	RIGHT	241.08509999996383	RIGHT	831.9478000003073	LEFT	1757.189599999947	23.9	0.8	Probable_Truth	LEFT	LEFT	1	819.9236285068059	86	2020-12-23 14:56:01.386885
100	Computer	S201223b	0.5	1	2	2	1	0.7	1000.000002	1433.3333362	1500.000003	1500.000003	Minor	Wrong_doings	28	You have failed to keep promises	C1_33	0.0	Easy	I1_46	33	There are 20 bones in the human skull	0.764705882352941	No	LEFT	807.9606000001149	LEFT	1623.9040000000386	RIGHT	1108.4268000004158	LEFT	1237.5864000000547	23.9	0.7	Probable_Lie	LEFT	LEFT	4	820.3888135645964	87	2020-12-23 14:56:24.987897
66	Self	S201223b	0.6666666666666666	1	2	1	2	0.4	1350.0000027	1350.0000027	2350.0000047	2350.0000047	Major	Wrong_doings	29	You have volunteered for a disaster-related humanitarian mission	C1_58	0.7	Hard	I2_16	29	Most plants emit oxygen in the day	0.666666666666667	No	RIGHT	336.86600000010003	RIGHT	362.23900000004505	RIGHT	1640.2572000001785	LEFT	1971.217400000114	24.3	0.4	Probable_Truth	LEFT	LEFT	2	619.0308000000186	88	2020-12-23 14:56:49.892057
117	Computer	S201223b	0.6666666666666666	1	2	2	1	0.2	1216.6666691	1283.3333359	2216.6666711000003	2350.0000047	Major	Good_deeds	37	You have lied to your parents	C1_6	0.15	Easy	I1_13	35	There are 6 million animal species on Earth	0.0	Yes	LEFT	688.5486999999557	LEFT	759.9144999999226	LEFT	2050.5339999999705	LEFT	920.2204000002894	24.3	0.2	Probable_Lie	RIGHT	LEFT	6	742.3765067830254	89	2020-12-23 14:57:14.699583
116	Computer	S201223b	0.6666666666666666	1	2	2	1	0.4	1000.000002	1150.0000023	2500.000005	1650.0000033	Minor	Good_deeds	11	You have queued to enter the MRT train	C1_38	1.0	Easy	I2_58	37	There are 10 continents in the World	0.722222222222222	No	RIGHT	584.1875999999502	RIGHT	526.0542999999416	LEFT	1103.8403999996262	RIGHT	1328.2985000000735	24.7	0.4	Probable_Truth	RIGHT	RIGHT	3	893.1324511152161	90	2020-12-23 14:57:38.011545
71	Self	S201223b	0.6666666666666666	1	2	2	1	0.7	1066.6666688	1150.0000023	2066.6666708	1933.3333372	Major	Wrong_doings	35	You have coveted things that belong to others	C2_35	0.0	Hard	I1_47	2	Mageirocophobia is a fear of deathly disease	0.666666666666667	Yes	RIGHT	239.82200000000373	RIGHT	950.391899999886	RIGHT	1844.296400000076	LEFT	2007.524799999828	25.399999999999995	0.7	Probable_Truth	LEFT	LEFT	1	589.4794999999249	91	2020-12-23 14:58:02.435587
105	Computer	S201223b	0.5	2	1	1	2	0.2	1000.000002	1433.3333362	2500.000005	1783.3333369	Major	Wrong_doings	8	You have watched a pirated movie	C2_40	0.85	Easy	I2_26	24	Animals are living things	0.166666666666667	Yes	LEFT	767.0130999999856	RIGHT	248.47769999996672	RIGHT	744.1669999998339	LEFT	714.1689000000042	25.399999999999995	0.2	Probable_Truth	RIGHT	RIGHT	4	610.1229296467632	92	2020-12-23 14:58:24.811600
80	Self	S201223b	0.8333333333333334	1	2	1	2	0.1	1350.0000027	1500.000003	1783.3333369	2066.6666708	Major	Wrong_doings	27	You have taken months off to volunteer	C2_36	0.0	Hard	I1_9	48	Singapore ranked 8th in World's smallest countries	0.888888888888889	No	RIGHT	248.24750000016135	RIGHT	433.0024999999296	RIGHT	2087.713899999926	LEFT	1686.6961000000629	25.5	0.1	Probable_Truth	RIGHT	RIGHT	5	443.9022000001387	93	2020-12-23 14:58:48.988254
127	Computer	S201223b	0.6666666666666666	2	1	2	1	0.7	1350.0000027	1216.6666691	1783.3333369	2350.0000047	Minor	Wrong_doings	57	You have illegally stayed in a country	C2_10	0.0	Easy	I2_60	60	Malay is one of the races in Singapore	0.666666666666667	No	LEFT	458.31660000021657	LEFT	439.8982000002434	RIGHT	817.6519999997254	LEFT	879.482100000132	25.5	0.7	Probable_Lie	RIGHT	LEFT	6	997.4812001323266	94	2020-12-23 14:59:11.860194
106	Computer	S201223b	0.5	2	1	1	2	0.1	1066.6666688	1500.000003	1783.3333369	2500.000005	Major	Wrong_doings	2	You have a non-judgmental attitude towards everyone	C1_43	0.05	Hard	I2_56	26	Kangaroos live in Africa	0.0555555555555556	No	LEFT	1886.2847999998849	LEFT	894.6648000001005	LEFT	1040.04040000018	RIGHT	2160.2351000001363	25.5	0.1	Probable_Truth	LEFT	LEFT	2	947.5527312173	95	2020-12-23 14:59:38.220151
118	Computer	S201223b	0.6666666666666666	1	2	2	1	0.7	1066.6666688	1433.3333362	1783.3333369	2500.000005	Minor	Wrong_doings	6	You have held the door open for a stranger	C2_37	0.65	Hard	I2_11	41	Cleopatra was born in Greece	0.111111111111111	Yes	LEFT	504.0546999998696	LEFT	939.9751000000832	LEFT	1142.2324999998636	RIGHT	927.3340999998254	25.5	0.7	Probable_Lie	LEFT	RIGHT	2	714.0620542483239	96	2020-12-23 15:04:43.787868
29	Self	S201223b	0.6666666666666666	2	1	2	1	0.8	1433.3333362	1066.6666688	1933.3333372	1933.3333372	Minor	Good_deeds	20	You have adopted a zero-waste lifestyle	C2_57	0.95	Hard	I1_57	59	Vegetarians can eat vegetable products	0.888888888888889	Yes	RIGHT	316.31719999995767	RIGHT	224.6433000000252	RIGHT	1268.7230999999883	RIGHT	1032.016499999827	26.3	0.8	Probable_Truth	LEFT	LEFT	1	663.0620000000818	97	2020-12-23 15:05:06.234814
113	Computer	S201223b	0.6666666666666666	1	2	1	2	0.6	1433.3333362	1066.6666688	2066.6666708	1500.000003	Major	Good_deeds	1	You have sheltered others from disasters	C2_1	0.0	Easy	I2_30	58	A triangle has three sides	0.0	No	LEFT	295.62829999986207	LEFT	560.6090999999651	RIGHT	768.3033000002979	RIGHT	2213.367500000004	26.3	0.6	Probable_Lie	LEFT	LEFT	6	577.4442786216123	98	2020-12-23 15:05:29.292026
62	Self	S201223b	0.5	2	1	2	1	0.7	1216.6666691	1150.0000023	1783.3333369	1650.0000033	Major	Good_deeds	34	You have downloaded pirated movies	C1_7	0.7	Easy	I1_19	42	Today is Sunday	0.777777777777778	No	RIGHT	506.6600000000108	RIGHT	160.02449999996315	LEFT	1006.44820000025	LEFT	920.1474000001326	27.0	0.7	Probable_Lie	RIGHT	RIGHT	1	797.2906999998486	99	2020-12-23 15:05:51.059558
93	Self	S201223b	0.8333333333333334	2	1	2	1	0.6	1000.000002	1500.000003	1650.0000033	2066.6666708	Major	Wrong_doings	42	You have returned your trays in food courts	C1_59	0.2	Hard	I1_17	53	The Earth turns the closest to the sun in May	0.0555555555555556	Yes	RIGHT	575.7088999998814	RIGHT	288.1759000001693	RIGHT	1904.6281000000815	RIGHT	1551.0881999998674	27.6	0.6	Probable_Lie	LEFT	LEFT	3	723.2477999996263	100	2020-12-23 15:06:14.891843
133	Computer	S201223b	0.8333333333333334	1	2	2	1	0.5	1216.6666691	1283.3333359	2500.000005	2216.6666711000003	Major	Wrong_doings	8	You have bought cocaine	C2_9	0.15	Hard	I2_5	12	Singapore is a country	0.0	Yes	RIGHT	8.544899999833433	RIGHT	429.61279999963153	RIGHT	1169.911399999819	LEFT	768.3876999999484	28.1	0.5	Probable_Truth	LEFT	LEFT	1	695.8054178002016	101	2020-12-23 15:06:37.755736
14	Self	S201223b	0.5	2	1	2	1	0.2	1066.6666688	1500.000003	1783.3333369	2216.6666711000003	Minor	Good_deeds	9	You have offered a listening ear to a friend	C2_52	1.0	Hard	I1_24	60	The hardest bone in human body is the jawbone	0.722222222222222	Yes	RIGHT	281.8440000000919	RIGHT	176.5770000001794	RIGHT	2096.276499999931	RIGHT	1383.4732000000258	28.3	0.2	Probable_Truth	RIGHT	RIGHT	5	480.5188999998791	102	2020-12-23 15:07:01.324091
104	Computer	S201223b	0.5	2	1	1	2	0.8	1350.0000027	1216.6666691	1500.000003	2350.0000047	Minor	Good_deeds	57	You have bribed someone to improve a grade	C2_2	0.0	Hard	I1_60	23	The Eiffel Tower is in Paris	0.888888888888889	Yes	LEFT	356.30089999995107	LEFT	280.0235999998222	RIGHT	694.9905000001309	LEFT	1235.2866000001086	28.3	0.8	Probable_Lie	LEFT	LEFT	4	682.734525516647	103	2020-12-23 15:07:23.564227
21	Self	S201223b	0.6666666666666666	1	2	2	1	0.5	1150.0000023	1150.0000023	1933.3333372	1933.3333372	Major	Good_deeds	37	You have lied to your parents	C1_6	0.15	Easy	I1_13	35	There are 6 million animal species on Earth	0.0	Yes	RIGHT	135.83069999958752	RIGHT	491.7947999997523	LEFT	1708.2657000000836	LEFT	711.9361000000026	28.8	0.5	Probable_Lie	LEFT	LEFT	5	601.8425999995998	104	2020-12-23 15:07:45.955603
143	Computer	S201223b	0.8333333333333334	2	1	2	1	0.3	1216.6666691	1150.0000023	2216.6666711000003	2216.6666711000003	Minor	Wrong_doings	53	You have helped a friend in need	C1_5	0.0	Easy	I1_10	3	The human's inner ear is larger than a pencil eraser	0.944444444444444	Yes	LEFT	440.797300000213	LEFT	160.00369999983377	LEFT	2696.3104999999814	RIGHT	743.6566999999741	28.8	0.3	Probable_Lie	RIGHT	LEFT	6	574.7352984927044	105	2020-12-23 15:08:09.938844
79	Self	S201223b	0.6666666666666666	2	1	2	1	0.3	1216.6666691	1000.000002	1933.3333372	1650.0000033	Major	Wrong_doings	13	You have extorted money from anyone	C2_3	0.1	Hard	I2_50	27	December is the last month of the year	0.0	No	RIGHT	355.95950000015364	RIGHT	279.41439999995055	RIGHT	1536.1778999999842	LEFT	710.3272000003926	29.1	0.3	Probable_Lie	LEFT	LEFT	3	846.3186000003589	106	2020-12-23 15:08:32.044034
46	Self	S201223b	0.8333333333333334	2	1	2	1	0.1	1500.000003	1000.000002	2216.6666711000003	1783.3333369	Minor	Wrong_doings	24	You have stopped using plastics completely	C1_30	0.0	Hard	I2_3	8	There are 9 rings in the Olympic flag	0.0	Yes	LEFT	768.1564999998045	LEFT	1120.300699999916	LEFT	787.7892000001339	LEFT	1511.314500000026	29.1	0.1	Probable_Lie	RIGHT	RIGHT	1	614.8556000002827	107	2020-12-23 15:08:55.922627
42	Self	S201223b	0.8333333333333334	2	1	1	2	0.4	1216.6666691	1350.0000027	2500.000005	2350.0000047	Minor	Wrong_doings	30	You have violated a traffic law	C1_49	1.0	Hard	I1_44	6	A dog has four legs	0.0	No	RIGHT	260.08879999972123	RIGHT	216.1442999999963	RIGHT	736.0272000000805	LEFT	762.3080999997001	29.5	0.4	Probable_Truth	RIGHT	RIGHT	3	624.9899999997979	108	2020-12-23 15:09:18.514432
108	Computer	S201223b	0.5	2	1	2	1	0.3	1216.6666691	1350.0000027	1650.0000033	2216.6666711000003	Minor	Good_deeds	43	You have rescued others from a catastrophe	C2_8	0.25	Easy	I1_40	40	Penguin can fly with their wings	0.611111111111111	Yes	LEFT	382.6398999999583	LEFT	159.60020000011357	LEFT	1625.0006000000212	RIGHT	1271.7372000001887	29.5	0.3	Probable_Lie	LEFT	RIGHT	2	744.6045537727186	109	2020-12-23 15:09:41.706938
74	Self	S201223b	0.6666666666666666	2	1	1	2	0.6	1350.0000027	1283.3333359	2066.6666708	2066.6666708	Minor	Good_deeds	3	You have donated blood every 6 months for many years	C2_43	0.05	Easy	I2_55	11	A caterpillar has more muscle than a human	0.722222222222222	Yes	RIGHT	308.9809000002788	RIGHT	80.43980000002193	LEFT	2230.9888999998293	LEFT	2015.7838999998603	30.1	0.6	Probable_Truth	LEFT	LEFT	2	509.8351999999977	110	2020-12-23 15:10:06.195957
82	Self	S201223b	0.8333333333333334	1	2	1	2	0.8	1150.0000023	1000.000002	2350.0000047	2500.000005	Major	Wrong_doings	44	You have risked your life to save another person's life	C2_6	0.85	Easy	I1_48	46	Statute of Liberty is in New York	0.833333333333333	Yes	RIGHT	863.8372000000345	RIGHT	617.8109999996195	RIGHT	808.1516000002011	RIGHT	2598.5310999999456	30.9	0.8	Probable_Truth	LEFT	LEFT	1	448.4827999999652	111	2020-12-23 15:10:31.107310
84	Self	S201223b	0.8333333333333334	1	2	2	1	0.5	1000.000002	1066.6666688	2500.000005	2350.0000047	Minor	Good_deeds	36	You have made counterfeit money	C2_17	0.55	Easy	I1_15	38	Slavery was abolished in Cuba in 1886	0.0	No	RIGHT	184.06000000004497	RIGHT	292.080800000349	RIGHT	2244.290799999817	LEFT	1015.588999999636	31.4	0.5	Probable_Lie	LEFT	LEFT	3	789.5069999999578	112	2020-12-23 15:10:55.123582
92	Self	S201223b	0.8333333333333334	2	1	2	1	0.3	1433.3333362	1283.3333359	2500.000005	1783.3333369	Minor	Good_deeds	16	You have faked an illness	C2_42	0.85	Easy	I1_38	2	Singapore is a poor country	0.777777777777778	No	RIGHT	364.9350999999115	RIGHT	191.57039999981865	LEFT	1057.888699999694	LEFT	855.208500000117	31.7	0.3	Probable_Truth	LEFT	LEFT	1	592.9289999999128	113	2020-12-23 15:11:17.762456
37	Self	S201223b	0.8333333333333334	1	2	2	1	0.7	1150.0000023	1066.6666688	2066.6666708	1933.3333372	Major	Wrong_doings	8	You have bought cocaine	C2_9	0.15	Hard	I2_5	12	Singapore is a country	0.0	Yes	RIGHT	24.61119999998118	RIGHT	517.2101999996812	RIGHT	740.3378000003613	LEFT	703.8259999999354	32.4	0.7	Probable_Lie	RIGHT	RIGHT	1	560.4478000000199	114	2020-12-23 15:11:39.099347
20	Self	S201223b	0.6666666666666666	1	2	2	1	0.2	1350.0000027	1433.3333362	2066.6666708	2066.6666708	Minor	Good_deeds	11	You have queued to enter the MRT train	C1_38	1.0	Easy	I2_58	37	There are 10 continents in the World	0.722222222222222	No	RIGHT	640.2564999998503	RIGHT	549.6650000000045	LEFT	742.7474000000984	RIGHT	934.930500000064	32.6	0.2	Probable_Truth	LEFT	LEFT	1	597.2498999999516	115	2020-12-23 15:12:02.060188
34	Self	S201223b	0.8333333333333334	1	2	1	2	0.2	1000.000002	1433.3333362	1500.000003	1783.3333369	Minor	Good_deeds	31	You have volunteered every week for many years	C1_34	0.65	Hard	I2_48	31	The hyoid bone is the only jointless bone	0.833333333333333	No	RIGHT	416.1854999997559	RIGHT	437.4680000000808	LEFT	2895.162199999959	RIGHT	1818.294600000172	32.800000000000004	0.2	Probable_Truth	LEFT	LEFT	1	659.4304999998712	116	2020-12-23 15:12:26.579880
107	Computer	S201223b	0.5	2	1	1	2	0.7	1283.3333359	1000.000002	2350.0000047	1933.3333372	Major	Good_deeds	52	You have engaged in underage smoking	C1_57	0.05	Easy	I2_1	34	Acoustic Kitty refers to cat with implants	0.833333333333333	No	RIGHT	219.4235000001754	RIGHT	40.26699999985794	RIGHT	1183.2721000000674	LEFT	793.7604000003375	33.50000000000001	0.7	Probable_Truth	RIGHT	LEFT	3	684.3612745969779	117	2020-12-23 15:12:48.643402
10	Self	S201223b	0.5	2	1	1	2	0.7	1216.6666691	1000.000002	1933.3333372	1500.000003	Major	Wrong_doings	2	You have a non-judgmental attitude towards everyone	C1_43	0.05	Hard	I2_56	26	Kangaroos live in Africa	0.0555555555555556	No	RIGHT	282.9279000002316	RIGHT	217.36600000031103	LEFT	766.7018000001917	RIGHT	1677.371199999925	34.20000000000001	0.7	Probable_Truth	RIGHT	LEFT	1	3315.856199999871	118	2020-12-23 15:13:13.130688
122	Computer	S201223b	0.6666666666666666	2	1	1	2	0.3	1150.0000023	1433.3333362	2066.6666708	2216.6666711000003	Major	Wrong_doings	47	You have sign up to sponsor a needy child	C1_47	0.8	Hard	I1_25	57	It sometimes snows in Singapore	0.0	No	LEFT	882.296000000224	LEFT	376.3860000003661	LEFT	815.7885000000533	LEFT	1056.211500000245	34.20000000000001	0.3	Probable_Lie	RIGHT	RIGHT	1	804.4555460838722	119	2020-12-23 15:13:36.498818
78	Self	S201223b	0.6666666666666666	2	1	2	1	0.2	1500.000003	1500.000003	2500.000005	1933.3333372	Minor	Good_deeds	43	You have deceived a loved one	C2_48	0.1	Easy	I1_6	6	There are 6000 spoken languages in the World	1.0	No	RIGHT	300.9578999999576	RIGHT	64.09369999983028	RIGHT	1829.02090000016	LEFT	1120.1514999997926	34.40000000000001	0.2	Probable_Truth	RIGHT	RIGHT	4	599.0231999999196	120	2020-12-23 15:14:00.419977
61	Self	S201223b	0.5	2	1	2	1	0.2	1433.3333362	1066.6666688	2066.6666708	1933.3333372	Major	Wrong_doings	7	You have cheated on a national exam	C2_18	0.0	Hard	I1_1	33	It takes 500 days to travel from Earth to Mars	0.944444444444444	No	RIGHT	2182.7492000002167	LEFT	25.90689999988172	RIGHT	2437.641200000144	LEFT	888.2623999998032	34.20000000000001	0.2	Probable_Lie	LEFT	LEFT	6	796.0211999998137	121	2020-12-23 15:14:25.819410
126	Computer	S201223b	0.6666666666666666	2	1	2	1	0.8	1216.6666691	1500.000003	1650.0000033	1933.3333372	Minor	Good_deeds	40	You have engaged in arson	C1_3	0.05	Easy	I2_59	25	Milwaukee Art Museum is located in California	0.0	No	RIGHT	363.0520000001525	RIGHT	88.64109999967695	RIGHT	1979.543000000376	LEFT	928.2289999996464	35.00000000000001	0.8	Probable_Truth	LEFT	LEFT	2	961.501272485157	122	2020-12-23 15:14:49.018325
114	Computer	S201223b	0.6666666666666666	1	2	1	2	0.3	1283.3333359	1216.6666691	1500.000003	1933.3333372	Major	Good_deeds	1	You have provided shelter for stray animals	C1_1	1.0	Easy	I2_35	13	Lehman Brothers went bankrupt on 20th September	0.888888888888889	No	LEFT	30.857100000048376	RIGHT	500.61219999997775	RIGHT	1175.4663000001528	RIGHT	1044.5607999999993	35.00000000000001	0.3	Probable_Truth	RIGHT	RIGHT	4	656.4993075576068	123	2020-12-23 15:15:10.922949
36	Self	S201223b	0.8333333333333334	1	2	2	1	0.1	1350.0000027	1500.000003	2500.000005	2066.6666708	Minor	Wrong_doings	23	You have watched an M18 movie when you were underage	C2_39	0.0	Easy	I2_31	35	Teddy Roosevelt was the youngest US President	0.0	No	RIGHT	63.80949999993391	RIGHT	365.0698999999804	RIGHT	1647.873200000049	LEFT	863.3975000002465	35.10000000000001	0.1	Probable_Truth	RIGHT	RIGHT	2	1619.7578999999678	124	2020-12-23 15:15:35.476084
112	Computer	S201223b	0.6666666666666666	1	2	1	2	0.8	1500.000003	1500.000003	1933.3333372	2216.6666711000003	Minor	Wrong_doings	60	You have used heroin	C1_42	0.2	Hard	I1_37	11	February has 30 days	0.888888888888889	No	RIGHT	48.728400000072725	RIGHT	442.22969999964334	LEFT	855.2253000002565	LEFT	681.7211000002317	35.900000000000006	0.8	Probable_Truth	LEFT	RIGHT	6	552.0193039291222	125	2020-12-23 15:15:57.770601
135	Computer	S201223b	0.8333333333333334	1	2	2	1	0.7	1000.000002	1500.000003	2350.0000047	2350.0000047	Major	Good_deeds	39	You have done something against your values	C2_23	1.0	Easy	I1_26	26	Beef comes from cows	0.944444444444444	Yes	LEFT	624.080099999901	LEFT	884.5707000000402	RIGHT	1268.1149999998524	LEFT	1782.7154000001428	35.900000000000006	0.7	Probable_Lie	RIGHT	LEFT	5	520.3903304793544	126	2020-12-23 15:16:22.619303
65	Self	S201223b	0.6666666666666666	1	2	1	2	0.5	1500.000003	1216.6666691	1500.000003	2066.6666708	Minor	Wrong_doings	35	You have been physically hurt to protect others	C2_20	0.45	Easy	I1_36	47	Bears have the biggest eyes among mammals	0.0555555555555556	No	RIGHT	240.3148999997029	RIGHT	245.4421000002185	LEFT	2462.090099999841	RIGHT	2869.9658000000454	36.400000000000006	0.5	Probable_Truth	RIGHT	RIGHT	3	624.916100000064	127	2020-12-23 15:16:47.924136
39	Self	S201223b	0.8333333333333334	1	2	2	1	0.8	1283.3333359	1283.3333359	1650.0000033	1500.000003	Major	Good_deeds	39	You have done something against your values	C2_23	1.0	Easy	I1_26	26	Beef comes from cows	0.944444444444444	Yes	RIGHT	216.6194000001269	RIGHT	288.61319999987245	RIGHT	677.2941999997784	LEFT	983.5692999999992	37.2	0.8	Probable_Truth	LEFT	LEFT	1	421.7523999996047	128	2020-12-23 15:17:08.803438
41	Self	S201223b	0.8333333333333334	2	1	1	2	0.8	1150.0000023	1433.3333362	1650.0000033	2216.6666711000003	Major	Good_deeds	13	You have been sued	C2_33	0.75	Easy	I1_54	10	Pyramid of Giza is 468 feet tall	0.777777777777778	No	RIGHT	998.6444000001028	LEFT	207.83669999991616	LEFT	1657.011099999636	LEFT	799.0128000001278	36.400000000000006	0.8	Probable_Lie	RIGHT	RIGHT	1	561.1598999998932	129	2020-12-23 15:17:32.050406
102	Computer	S201223b	0.5	1	2	2	1	0.3	1500.000003	1066.6666688	1933.3333372	1650.0000033	Major	Good_deeds	33	You have complimented others for good work	C1_36	0.0	Hard	I2_44	4	Last day of the year is 30th December	0.944444444444444	No	LEFT	207.17599999989037	LEFT	388.9119000000392	LEFT	1334.345100000064	RIGHT	1039.6983000000546	36.400000000000006	0.3	Probable_Lie	LEFT	RIGHT	1	554.8886949968072	130	2020-12-23 15:17:54.299304
2	Self	S201223b	0.5	1	2	1	2	0.4	1500.000003	1500.000003	2216.6666711000003	2350.0000047	Major	Good_deeds	36	You have been convicted in court	C2_38	0.95	Easy	I2_45	44	Feijoa is a type of grape	0.0555555555555556	No	LEFT	328.9432999999917	LEFT	952.8175999998894	LEFT	1344.659800000045	LEFT	700.2419000000373	36.400000000000006	0.4	Probable_Lie	LEFT	RIGHT	2	661.6408999998384	131	2020-12-23 15:18:18.427360
5	Self	S201223b	0.5	1	2	2	1	0.2	1066.6666688	1283.3333359	2066.6666708	1783.3333369	Major	Good_deeds	47	You have borrowed things and never returned	C1_4	0.8	Hard	I1_33	46	The Franco-Prussian War occurred in the 19th century	0.0	Yes	RIGHT	112.59590000008755	RIGHT	332.53689999992275	LEFT	1908.1602999999632	LEFT	2432.3065000003226	36.60000000000001	0.2	Probable_Truth	LEFT	RIGHT	4	513.5846999996829	132	2020-12-23 15:18:42.500237
141	Computer	S201223b	0.8333333333333334	2	1	2	1	0.6	1066.6666688	1283.3333359	1783.3333369	1783.3333369	Minor	Good_deeds	49	You have said thank you when you have received help	C2_24	1.0	Easy	I2_8	54	Mozambique is the world's poorest country	0.0555555555555556	Yes	RIGHT	351.94369999999253	RIGHT	49.0764000001036	LEFT	1561.44200000017	RIGHT	1040.261599999667	37.20000000000001	0.6	Probable_Truth	RIGHT	RIGHT	2	508.2546959035624	133	2020-12-23 15:19:04.491999
99	Computer	S201223b	0.5	1	2	1	2	0.5	1216.6666691	1000.000002	1783.3333369	1933.3333372	Major	Wrong_doings	4	You have started a movement to support a cause	C2_28	0.95	Hard	I2_49	54	Singapore is in Africa	0.0555555555555556	Yes	LEFT	224.99539999989796	RIGHT	388.5639000000083	LEFT	815.1198999998996	LEFT	1260.2538999999524	37.20000000000001	0.5	Probable_Truth	LEFT	RIGHT	5	908.9090243547736	134	2020-12-23 15:19:26.587982
70	Self	S201223b	0.6666666666666666	1	2	2	1	0.3	1433.3333362	1000.000002	1783.3333369	2216.6666711000003	Minor	Good_deeds	58	You have held the elevator doors for others	C1_14	0.7	Easy	I2_21	52	Afghan Hound is the first cloned cat	0.0	Yes	LEFT	943.8741000003574	LEFT	937.014199999794	LEFT	1969.643100000212	RIGHT	1326.8020999998953	37.20000000000001	0.3	Probable_Lie	RIGHT	RIGHT	2	459.266999999727	135	2020-12-23 15:19:51.236140
87	Self	S201223b	0.8333333333333334	1	2	2	1	0.6	1216.6666691	1283.3333359	1500.000003	1783.3333369	Minor	Good_deeds	6	You have kept your promises	C1_45	0.0	Hard	I2_41	23	Nanyang Technological University is in Australia	1.0	Yes	RIGHT	127.58279999980005	RIGHT	316.1221999998816	LEFT	1267.9490000000442	RIGHT	1071.6275999998288	37.80000000000001	0.6	Probable_Truth	LEFT	LEFT	1	639.3886000000748	136	2020-12-23 15:20:13.019971
110	Computer	S201223b	0.5	2	1	2	1	0.5	1150.0000023	1283.3333359	2216.6666711000003	2066.6666708	Minor	Good_deeds	9	You have offered a listening ear to a friend	C2_52	1.0	Hard	I1_24	60	The hardest bone in human body is the jawbone	0.722222222222222	Yes	LEFT	594.3250000000262	RIGHT	57.24180000015622	LEFT	1886.101000000053	RIGHT	880.565899999965	37.80000000000001	0.5	Probable_Truth	RIGHT	LEFT	1	881.0742020347828	137	2020-12-23 15:20:36.610929
33	Self	S201223b	0.8333333333333334	1	2	1	2	0.6	1216.6666691	1150.0000023	1783.3333369	1650.0000033	Major	Wrong_doings	34	You have signed up as a bone marrow donor	C2_31	0.1	Hard	I1_42	42	Africa is the continent with the least rainfall	0.611111111111111	No	RIGHT	304.18620000000374	RIGHT	265.4103999998369	RIGHT	1214.6913999999924	LEFT	1191.6853000002448	38.40000000000001	0.6	Probable_Lie	LEFT	LEFT	2	437.47910000001866	138	2020-12-23 15:20:58.402445
115	Computer	S201223b	0.6666666666666666	1	2	1	2	0.1	1150.0000023	1350.0000027	2350.0000047	2066.6666708	Minor	Wrong_doings	42	You have been arrested	C2_60	0.0	Hard	I1_41	30	Airbags in cars are filled with sodium azide	0.0	Yes	LEFT	240.2273000002424	LEFT	2486.695199999758	LEFT	1230.7074999998804	LEFT	672.4165000000539	38.40000000000001	0.1	Probable_Lie	RIGHT	LEFT	3	884.2037160830439	139	2020-12-23 15:21:23.403501
109	Computer	S201223b	0.5	2	1	2	1	0.6	1433.3333362	1066.6666688	2066.6666708	1650.0000033	Major	Wrong_doings	17	You have gossiped about your best friend	C1_17	0.55	Easy	I1_23	1	Some owl species hunt fish	0.0	No	RIGHT	355.9370000002673	RIGHT	48.60809999991034	LEFT	1328.596400000151	LEFT	1039.726999999857	39.000000000000014	0.6	Probable_Truth	RIGHT	RIGHT	5	932.6191188989236	140	2020-12-23 15:21:45.900715
73	Self	S201223b	0.6666666666666666	2	1	1	2	0.5	1066.6666688	1350.0000027	1500.000003	2216.6666711000003	Major	Good_deeds	50	You have given directions to a lost tourist	C1_23	0.7	Hard	I2_27	52	A square has 3 corners	0.0	Yes	RIGHT	316.88939999958166	RIGHT	257.3225999999522	LEFT	976.354800000081	RIGHT	1505.2805000000262	39.500000000000014	0.5	Probable_Truth	LEFT	LEFT	1	538.1729000000632	141	2020-12-23 15:22:08.202766
81	Self	S201223b	0.8333333333333334	1	2	1	2	0.2	1066.6666688	1350.0000027	2066.6666708	1650.0000033	Major	Good_deeds	45	You have participated in a scamming business	C1_22	0.95	Hard	I2_46	9	It takes 112 years to build the Pisa Tower	0.0	No	LEFT	432.97320000010586	LEFT	2899.707300000045	RIGHT	2246.965799999998	LEFT	2039.6098999999597	39.500000000000014	0.2	Probable_Lie	LEFT	RIGHT	1	1877.7577000000747	142	2020-12-23 15:22:36.411799
88	Self	S201223b	0.8333333333333334	2	1	1	2	0.5	1283.3333359	1350.0000027	2066.6666708	2216.6666711000003	Minor	Good_deeds	31	You have engaged in money laundering	C2_25	0.9	Easy	I1_28	32	Chickens lay eggs	0.0555555555555556	No	RIGHT	1247.5039000000834	RIGHT	552.9822000003151	RIGHT	855.2048999999897	LEFT	1297.0758999999816	40.000000000000014	0.5	Probable_Truth	RIGHT	RIGHT	5	707.7307999998084	143	2020-12-23 15:23:00.562653
