"Participant"	"Task"	"Stimulus_Side"	"Response"	"RT"	"ITI"	"Previous_Response"	"Previous_RT"	"Stop_Signal"	"Stop_Signal_RT"	"Conflict"	"Cue_Response"	"Cue_Response_RT"	"Trial_Onset"	"Trial_End"	"Trial_Order"	"Duration"
"S201120"	"Conflict_Resolution"	"RIGHT"	"RIGHT"	677.77179999996	1383.3333361	n/a	n/a	n/a	n/a	"True"	n/a	n/a	"2020-11-20 13:47:35.578342"	"2020-11-20 13:47:36.465551"	1	6.32562186666667
"S201120"	"Conflict_Resolution"	"LEFT"	"LEFT"	439.256800000067	916.6666685	n/a	n/a	n/a	n/a	"False"	n/a	n/a	"2020-11-20 13:47:37.401540"	"2020-11-20 13:47:38.047828"	2	6.32562186666667
"S201120"	"Conflict_Resolution"	"RIGHT"	"RIGHT"	533.589499999948	1000.000002	n/a	n/a	n/a	n/a	"True"	n/a	n/a	"2020-11-20 13:47:39.067316"	"2020-11-20 13:47:39.808629"	3	6.32562186666667
"S201120"	"Conflict_Resolution"	"LEFT"	"LEFT"	434.559700000023	1050.0000021	n/a	n/a	n/a	n/a	"False"	n/a	n/a	"2020-11-20 13:47:40.878333"	"2020-11-20 13:47:41.521199"	4	6.32562186666667
"S201120"	"Conflict_Resolution"	"RIGHT"	"RIGHT"	544.324500000016	733.3333348	n/a	n/a	n/a	n/a	"True"	n/a	n/a	"2020-11-20 13:47:42.272431"	"2020-11-20 13:47:43.025160"	5	6.32562186666667
"S201120"	"Conflict_Resolution"	"LEFT"	"LEFT"	613.847699999951	1150.0000023	n/a	n/a	n/a	n/a	"True"	n/a	n/a	"2020-11-20 13:47:44.195131"	"2020-11-20 13:47:45.015933"	6	6.32562186666667
"S201120"	"Conflict_Resolution"	"RIGHT"	"RIGHT"	409.674199999927	900.0000018	n/a	n/a	n/a	n/a	"False"	n/a	n/a	"2020-11-20 13:47:45.935098"	"2020-11-20 13:47:46.553528"	7	6.32562186666667
"S201120"	"Conflict_Resolution"	"LEFT"	"LEFT"	383.835100000056	1100.0000022	n/a	n/a	n/a	n/a	"False"	n/a	n/a	"2020-11-20 13:47:47.673083"	"2020-11-20 13:47:48.265220"	8	6.32562186666667
"S201120"	"Conflict_Resolution"	"RIGHT"	"RIGHT"	370.724399999972	1466.6666696	n/a	n/a	n/a	n/a	"False"	n/a	n/a	"2020-11-20 13:47:49.750117"	"2020-11-20 13:47:50.329133"	9	6.32562186666667
"S201120"	"Conflict_Resolution"	"LEFT"	"LEFT"	461.876599999982	1350.0000027	n/a	n/a	n/a	n/a	"True"	n/a	n/a	"2020-11-20 13:47:51.698245"	"2020-11-20 13:47:52.369480"	10	6.32562186666667
"S201120"	"Conflict_Resolution"	"RIGHT"	"RIGHT"	421.99549999998	750.0000015	n/a	n/a	n/a	n/a	"False"	n/a	n/a	"2020-11-20 13:47:53.138233"	"2020-11-20 13:47:53.769185"	11	6.32562186666667
"S201120"	"Conflict_Resolution"	"LEFT"	"LEFT"	394.988399999988	616.6666679	n/a	n/a	n/a	n/a	"False"	n/a	n/a	"2020-11-20 13:47:54.405846"	"2020-11-20 13:47:55.007855"	12	6.32562186666667
"S201120"	"Conflict_Resolution"	"LEFT"	"LEFT"	546.034899999995	1300.0000026	n/a	n/a	n/a	n/a	"True"	n/a	n/a	"2020-11-20 13:47:56.326367"	"2020-11-20 13:47:57.081175"	13	6.32562186666667
"S201120"	"Conflict_Resolution"	"LEFT"	"LEFT"	548.873300000082	583.3333345	n/a	n/a	n/a	n/a	"True"	n/a	n/a	"2020-11-20 13:47:57.684226"	"2020-11-20 13:47:58.441373"	14	6.32562186666667
"S201120"	"Conflict_Resolution"	"LEFT"	"LEFT"	499.488100000008	1416.6666695	n/a	n/a	n/a	n/a	"True"	n/a	n/a	"2020-11-20 13:47:59.877580"	"2020-11-20 13:48:00.585400"	15	6.32562186666667
"S201120"	"Conflict_Resolution"	"RIGHT"	"RIGHT"	533.565500000009	1150.0000023	n/a	n/a	n/a	n/a	"True"	n/a	n/a	"2020-11-20 13:48:01.755165"	"2020-11-20 13:48:02.497321"	16	6.32562186666667
"S201120"	"Conflict_Resolution"	"RIGHT"	"RIGHT"	401.722599999971	850.0000017	n/a	n/a	n/a	n/a	"False"	n/a	n/a	"2020-11-20 13:48:03.367103"	"2020-11-20 13:48:03.976638"	17	6.32562186666667
"S201120"	"Conflict_Resolution"	"RIGHT"	"RIGHT"	470.160000000078	550.0000011	n/a	n/a	n/a	n/a	"True"	n/a	n/a	"2020-11-20 13:48:04.546085"	"2020-11-20 13:48:05.224731"	18	6.32562186666667
"S201120"	"Conflict_Resolution"	"RIGHT"	"RIGHT"	405.046699999957	1383.3333361	n/a	n/a	n/a	n/a	"False"	n/a	n/a	"2020-11-20 13:48:06.627784"	"2020-11-20 13:48:07.241217"	19	6.32562186666667
"S201120"	"Conflict_Resolution"	"RIGHT"	"RIGHT"	378.780600000027	833.333335	n/a	n/a	n/a	n/a	"False"	n/a	n/a	"2020-11-20 13:48:08.093290"	"2020-11-20 13:48:08.679905"	20	6.32562186666667
"S201120"	"Conflict_Resolution"	"LEFT"	"LEFT"	462.218899999925	1216.6666691	n/a	n/a	n/a	n/a	"True"	n/a	n/a	"2020-11-20 13:48:09.914388"	"2020-11-20 13:48:10.583874"	21	6.32562186666667
"S201120"	"Conflict_Resolution"	"RIGHT"	"RIGHT"	414.211599999931	783.3333349	n/a	n/a	n/a	n/a	"False"	n/a	n/a	"2020-11-20 13:48:11.386863"	"2020-11-20 13:48:12.009520"	22	6.32562186666667
"S201120"	"Conflict_Resolution"	"LEFT"	"LEFT"	422.594499999946	766.6666682	n/a	n/a	n/a	n/a	"False"	n/a	n/a	"2020-11-20 13:48:12.794298"	"2020-11-20 13:48:13.424750"	23	6.32562186666667
"S201120"	"Conflict_Resolution"	"LEFT"	"LEFT"	373.400400000037	1216.6666691	n/a	n/a	n/a	n/a	"False"	n/a	n/a	"2020-11-20 13:48:14.658990"	"2020-11-20 13:48:15.240294"	24	6.32562186666667
"S201120"	"Conflict_Resolution"	"RIGHT"	"RIGHT"	383.485500000006	1133.3333356	n/a	n/a	n/a	n/a	"False"	n/a	n/a	"2020-11-20 13:48:16.393494"	"2020-11-20 13:48:16.983901"	25	6.32562186666667
"S201120"	"Conflict_Resolution"	"RIGHT"	"RIGHT"	536.155699999995	500.000001	n/a	n/a	n/a	n/a	"True"	n/a	n/a	"2020-11-20 13:48:17.504361"	"2020-11-20 13:48:18.247680"	26	6.32562186666667
"S201120"	"Conflict_Resolution"	"RIGHT"	"RIGHT"	359.789099999944	1083.3333355	n/a	n/a	n/a	n/a	"False"	n/a	n/a	"2020-11-20 13:48:19.352860"	"2020-11-20 13:48:19.921107"	27	6.32562186666667
"S201120"	"Conflict_Resolution"	"RIGHT"	"RIGHT"	358.40189999999	1150.0000023	n/a	n/a	n/a	n/a	"False"	n/a	n/a	"2020-11-20 13:48:21.090373"	"2020-11-20 13:48:21.657336"	28	6.32562186666667
"S201120"	"Conflict_Resolution"	"RIGHT"	"RIGHT"	547.935700000039	783.3333349	n/a	n/a	n/a	n/a	"True"	n/a	n/a	"2020-11-20 13:48:22.460245"	"2020-11-20 13:48:23.216050"	29	6.32562186666667
"S201120"	"Conflict_Resolution"	"RIGHT"	"RIGHT"	459.593599999948	600.0000012	n/a	n/a	n/a	n/a	"True"	n/a	n/a	"2020-11-20 13:48:23.837376"	"2020-11-20 13:48:24.503875"	30	6.32562186666667
"S201120"	"Conflict_Resolution"	"RIGHT"	"RIGHT"	443.115799999987	1050.0000021	n/a	n/a	n/a	n/a	"True"	n/a	n/a	"2020-11-20 13:48:25.573815"	"2020-11-20 13:48:26.226481"	31	6.32562186666667
"S201120"	"Conflict_Resolution"	"LEFT"	"LEFT"	426.401699999928	1200.0000024	n/a	n/a	n/a	n/a	"False"	n/a	n/a	"2020-11-20 13:48:27.446410"	"2020-11-20 13:48:28.081561"	32	6.32562186666667
"S201120"	"Conflict_Resolution"	"RIGHT"	"RIGHT"	432.670099999996	683.3333347	n/a	n/a	n/a	n/a	"False"	n/a	n/a	"2020-11-20 13:48:28.784231"	"2020-11-20 13:48:29.425512"	33	6.32562186666667
"S201120"	"Conflict_Resolution"	"LEFT"	"LEFT"	402.757100000031	850.0000017	n/a	n/a	n/a	n/a	"False"	n/a	n/a	"2020-11-20 13:48:30.293423"	"2020-11-20 13:48:30.904169"	34	6.32562186666667
"S201120"	"Conflict_Resolution"	"LEFT"	"LEFT"	561.207399999944	683.3333347	n/a	n/a	n/a	n/a	"True"	n/a	n/a	"2020-11-20 13:48:31.606930"	"2020-11-20 13:48:32.377032"	35	6.32562186666667
"S201120"	"Conflict_Resolution"	"LEFT"	"LEFT"	465.762800000107	666.666668	n/a	n/a	n/a	n/a	"True"	n/a	n/a	"2020-11-20 13:48:33.063282"	"2020-11-20 13:48:33.737325"	36	6.32562186666667
"S201120"	"Conflict_Resolution"	"RIGHT"	"RIGHT"	448.116999999911	550.0000011	n/a	n/a	n/a	n/a	"False"	n/a	n/a	"2020-11-20 13:48:34.304808"	"2020-11-20 13:48:34.961212"	37	6.32562186666667
"S201120"	"Conflict_Resolution"	"RIGHT"	"RIGHT"	372.531600000002	600.0000012	n/a	n/a	n/a	n/a	"False"	n/a	n/a	"2020-11-20 13:48:35.580356"	"2020-11-20 13:48:36.159803"	38	6.32562186666667
"S201120"	"Conflict_Resolution"	"LEFT"	"LEFT"	390.724599999999	566.6666678	n/a	n/a	n/a	n/a	"False"	n/a	n/a	"2020-11-20 13:48:36.745423"	"2020-11-20 13:48:37.343829"	39	6.32562186666667
"S201120"	"Conflict_Resolution"	"LEFT"	"LEFT"	483.867700000019	1050.0000021	n/a	n/a	n/a	n/a	"True"	n/a	n/a	"2020-11-20 13:48:38.413050"	"2020-11-20 13:48:39.104154"	40	6.32562186666667
"S201120"	"Conflict_Resolution"	"RIGHT"	"RIGHT"	515.306499999951	650.0000013	n/a	n/a	n/a	n/a	"True"	n/a	n/a	"2020-11-20 13:48:39.773369"	"2020-11-20 13:48:40.497568"	41	6.32562186666667
"S201120"	"Conflict_Resolution"	"LEFT"	"LEFT"	603.202200000055	616.6666679	n/a	n/a	n/a	n/a	"True"	n/a	n/a	"2020-11-20 13:48:41.133028"	"2020-11-20 13:48:41.945106"	42	6.32562186666667
"S201120"	"Conflict_Resolution"	"RIGHT"	"RIGHT"	456.255100000021	1483.3333363	n/a	n/a	n/a	n/a	"True"	n/a	n/a	"2020-11-20 13:48:43.448599"	"2020-11-20 13:48:44.113473"	43	6.32562186666667
"S201120"	"Conflict_Resolution"	"RIGHT"	"RIGHT"	433.749899999953	833.333335	n/a	n/a	n/a	n/a	"True"	n/a	n/a	"2020-11-20 13:48:44.966707"	"2020-11-20 13:48:45.609371"	44	6.32562186666667
"S201120"	"Conflict_Resolution"	"LEFT"	"LEFT"	345.172400000024	900.0000018	n/a	n/a	n/a	n/a	"False"	n/a	n/a	"2020-11-20 13:48:46.527302"	"2020-11-20 13:48:47.080164"	45	6.32562186666667
"S201120"	"Conflict_Resolution"	"RIGHT"	"RIGHT"	407.279400000107	950.0000019	n/a	n/a	n/a	n/a	"False"	n/a	n/a	"2020-11-20 13:48:48.049643"	"2020-11-20 13:48:48.664308"	46	6.32562186666667
"S201120"	"Conflict_Resolution"	"LEFT"	"LEFT"	411.640599999942	633.3333346	n/a	n/a	n/a	n/a	"False"	n/a	n/a	"2020-11-20 13:48:49.317440"	"2020-11-20 13:48:49.935776"	47	6.32562186666667
"S201120"	"Conflict_Resolution"	"RIGHT"	"RIGHT"	472.827299999949	1333.333336	n/a	n/a	n/a	n/a	"True"	n/a	n/a	"2020-11-20 13:48:51.287696"	"2020-11-20 13:48:51.969056"	48	6.32562186666667
"S201120"	"Conflict_Resolution"	"LEFT"	"LEFT"	403.968899999995	1016.6666687	n/a	n/a	n/a	n/a	"False"	n/a	n/a	"2020-11-20 13:48:53.004943"	"2020-11-20 13:48:53.617316"	49	6.32562186666667
"S201120"	"Conflict_Resolution"	"RIGHT"	"RIGHT"	402.077299999974	1466.6666696	n/a	n/a	n/a	n/a	"True"	n/a	n/a	"2020-11-20 13:48:55.102785"	"2020-11-20 13:48:55.711781"	50	6.32562186666667
"S201120"	"Conflict_Resolution"	"LEFT"	"LEFT"	360.994399999981	1300.0000026	n/a	n/a	n/a	n/a	"False"	n/a	n/a	"2020-11-20 13:48:57.031623"	"2020-11-20 13:48:57.601198"	51	6.32562186666667
"S201120"	"Conflict_Resolution"	"RIGHT"	"RIGHT"	413.712000000032	1366.6666694	n/a	n/a	n/a	n/a	"True"	n/a	n/a	"2020-11-20 13:48:58.986490"	"2020-11-20 13:48:59.609240"	52	6.32562186666667
"S201120"	"Conflict_Resolution"	"LEFT"	"LEFT"	593.071800000075	1250.0000025	n/a	n/a	n/a	n/a	"True"	n/a	n/a	"2020-11-20 13:49:00.879536"	"2020-11-20 13:49:01.681100"	53	6.32562186666667
"S201120"	"Conflict_Resolution"	"LEFT"	"LEFT"	491.530900000043	1416.6666695	n/a	n/a	n/a	n/a	"False"	n/a	n/a	"2020-11-20 13:49:03.116619"	"2020-11-20 13:49:03.815874"	54	6.32562186666667
"S201120"	"Conflict_Resolution"	"RIGHT"	"RIGHT"	403.773000000001	850.0000017	n/a	n/a	n/a	n/a	"True"	n/a	n/a	"2020-11-20 13:49:04.684674"	"2020-11-20 13:49:05.296883"	55	6.32562186666667
"S201120"	"Conflict_Resolution"	"LEFT"	"LEFT"	495.890900000063	1316.6666693	n/a	n/a	n/a	n/a	"True"	n/a	n/a	"2020-11-20 13:49:06.633040"	"2020-11-20 13:49:07.336926"	56	6.32562186666667
"S201120"	"Conflict_Resolution"	"LEFT"	"LEFT"	471.474100000023	733.3333348	n/a	n/a	n/a	n/a	"True"	n/a	n/a	"2020-11-20 13:49:08.089249"	"2020-11-20 13:49:08.770357"	57	6.32562186666667
"S201120"	"Conflict_Resolution"	"LEFT"	"LEFT"	468.473899999935	1166.666669	n/a	n/a	n/a	n/a	"False"	n/a	n/a	"2020-11-20 13:49:09.956433"	"2020-11-20 13:49:10.631811"	58	6.32562186666667
"S201120"	"Conflict_Resolution"	"LEFT"	"LEFT"	436.392800000021	633.3333346	n/a	n/a	n/a	n/a	"True"	n/a	n/a	"2020-11-20 13:49:11.284089"	"2020-11-20 13:49:11.928112"	59	6.32562186666667
"S201120"	"Conflict_Resolution"	"RIGHT"	"RIGHT"	436.633500000084	583.3333345	n/a	n/a	n/a	n/a	"True"	n/a	n/a	"2020-11-20 13:49:12.531882"	"2020-11-20 13:49:13.177174"	60	6.32562186666667
"S201120"	"Conflict_Resolution"	"RIGHT"	"RIGHT"	394.919800000025	1216.6666691	n/a	n/a	n/a	n/a	"False"	n/a	n/a	"2020-11-20 13:49:14.413311"	"2020-11-20 13:49:15.015707"	61	6.32562186666667
"S201120"	"Conflict_Resolution"	"RIGHT"	"RIGHT"	409.703199999967	1100.0000022	n/a	n/a	n/a	n/a	"True"	n/a	n/a	"2020-11-20 13:49:16.134632"	"2020-11-20 13:49:16.751940"	62	6.32562186666667
"S201120"	"Conflict_Resolution"	"RIGHT"	"RIGHT"	345.376299999998	1483.3333363	n/a	n/a	n/a	n/a	"False"	n/a	n/a	"2020-11-20 13:49:18.254960"	"2020-11-20 13:49:18.809508"	63	6.32562186666667
"S201120"	"Conflict_Resolution"	"RIGHT"	"RIGHT"	316.37749999993	1000.000002	n/a	n/a	n/a	n/a	"False"	n/a	n/a	"2020-11-20 13:49:19.828281"	"2020-11-20 13:49:20.351865"	64	6.32562186666667
"S201120"	"Conflict_Resolution"	"LEFT"	"LEFT"	451.497600000039	850.0000017	n/a	n/a	n/a	n/a	"True"	n/a	n/a	"2020-11-20 13:49:21.221141"	"2020-11-20 13:49:21.880522"	65	6.32562186666667
"S201120"	"Conflict_Resolution"	"LEFT"	"LEFT"	425.731500000097	666.666668	n/a	n/a	n/a	n/a	"False"	n/a	n/a	"2020-11-20 13:49:22.566441"	"2020-11-20 13:49:23.199940"	66	6.32562186666667
"S201120"	"Conflict_Resolution"	"RIGHT"	"RIGHT"	344.161699999972	1333.333336	n/a	n/a	n/a	n/a	"False"	n/a	n/a	"2020-11-20 13:49:24.552465"	"2020-11-20 13:49:25.104632"	67	6.32562186666667
"S201120"	"Conflict_Resolution"	"RIGHT"	"RIGHT"	342.226699999969	1366.6666694	n/a	n/a	n/a	n/a	"False"	n/a	n/a	"2020-11-20 13:49:26.490824"	"2020-11-20 13:49:27.040026"	68	6.32562186666667
"S201120"	"Conflict_Resolution"	"RIGHT"	"RIGHT"	388.255299999969	633.3333346	n/a	n/a	n/a	n/a	"True"	n/a	n/a	"2020-11-20 13:49:27.692006"	"2020-11-20 13:49:28.288466"	69	6.32562186666667
"S201120"	"Conflict_Resolution"	"RIGHT"	"RIGHT"	349.854800000003	983.3333353	n/a	n/a	n/a	n/a	"False"	n/a	n/a	"2020-11-20 13:49:29.290895"	"2020-11-20 13:49:29.847821"	70	6.32562186666667
"S201120"	"Conflict_Resolution"	"LEFT"	"LEFT"	313.546699999961	1500.000003	n/a	n/a	n/a	n/a	"False"	n/a	n/a	"2020-11-20 13:49:31.366623"	"2020-11-20 13:49:31.889504"	71	6.32562186666667
"S201120"	"Conflict_Resolution"	"LEFT"	"LEFT"	347.962399999915	1400.0000028	n/a	n/a	n/a	n/a	"False"	n/a	n/a	"2020-11-20 13:49:33.308923"	"2020-11-20 13:49:33.864162"	72	6.32562186666667
"S201120"	"Conflict_Resolution"	"LEFT"	"LEFT"	449.044800000024	916.6666685	n/a	n/a	n/a	n/a	"True"	n/a	n/a	"2020-11-20 13:49:34.799982"	"2020-11-20 13:49:35.455959"	73	6.32562186666667
"S201120"	"Conflict_Resolution"	"LEFT"	"LEFT"	375.132000000008	950.0000019	n/a	n/a	n/a	n/a	"False"	n/a	n/a	"2020-11-20 13:49:36.425546"	"2020-11-20 13:49:37.008679"	74	6.32562186666667
"S201120"	"Conflict_Resolution"	"LEFT"	"LEFT"	442.719899999929	1066.6666688	n/a	n/a	n/a	n/a	"True"	n/a	n/a	"2020-11-20 13:49:38.093514"	"2020-11-20 13:49:38.744610"	75	6.32562186666667
"S201120"	"Conflict_Resolution"	"LEFT"	"LEFT"	346.197600000096	1266.6666692	n/a	n/a	n/a	n/a	"False"	n/a	n/a	"2020-11-20 13:49:40.030565"	"2020-11-20 13:49:40.584296"	76	6.32562186666667
"S201120"	"Conflict_Resolution"	"RIGHT"	"RIGHT"	345.010500000058	1283.3333359	n/a	n/a	n/a	n/a	"False"	n/a	n/a	"2020-11-20 13:49:41.887493"	"2020-11-20 13:49:42.441115"	77	6.32562186666667
"S201120"	"Conflict_Resolution"	"RIGHT"	"RIGHT"	401.555300000041	1050.0000021	n/a	n/a	n/a	n/a	"False"	n/a	n/a	"2020-11-20 13:49:43.511417"	"2020-11-20 13:49:44.121442"	78	6.32562186666667
"S201120"	"Conflict_Resolution"	"RIGHT"	"RIGHT"	331.308799999988	1416.6666695	n/a	n/a	n/a	n/a	"False"	n/a	n/a	"2020-11-20 13:49:45.557766"	"2020-11-20 13:49:46.097124"	79	6.32562186666667
"S201120"	"Conflict_Resolution"	"RIGHT"	"RIGHT"	310.965399999986	933.3333352	n/a	n/a	n/a	n/a	"False"	n/a	n/a	"2020-11-20 13:49:47.049607"	"2020-11-20 13:49:47.569485"	80	6.32562186666667
"S201120"	"Conflict_Resolution"	"LEFT"	"LEFT"	492.698799999971	966.6666686	n/a	n/a	n/a	n/a	"True"	n/a	n/a	"2020-11-20 13:49:48.556056"	"2020-11-20 13:49:49.255987"	81	6.32562186666667
"S201120"	"Conflict_Resolution"	"RIGHT"	"RIGHT"	496.071000000029	1316.6666693	n/a	n/a	n/a	n/a	"True"	n/a	n/a	"2020-11-20 13:49:50.592749"	"2020-11-20 13:49:51.296122"	82	6.32562186666667
"S201120"	"Conflict_Resolution"	"RIGHT"	"RIGHT"	339.818500000092	1033.3333354	n/a	n/a	n/a	n/a	"False"	n/a	n/a	"2020-11-20 13:49:52.348325"	"2020-11-20 13:49:52.897106"	83	6.32562186666667
"S201120"	"Conflict_Resolution"	"RIGHT"	"RIGHT"	311.010899999928	533.3333344	n/a	n/a	n/a	n/a	"False"	n/a	n/a	"2020-11-20 13:49:53.449632"	"2020-11-20 13:49:53.967819"	84	6.32562186666667
"S201120"	"Conflict_Resolution"	"LEFT"	"LEFT"	327.668500000073	1350.0000027	n/a	n/a	n/a	n/a	"False"	n/a	n/a	"2020-11-20 13:49:55.336947"	"2020-11-20 13:49:55.873178"	85	6.32562186666667
"S201120"	"Conflict_Resolution"	"LEFT"	"LEFT"	420.874400000002	783.3333349	n/a	n/a	n/a	n/a	"True"	n/a	n/a	"2020-11-20 13:49:56.676111"	"2020-11-20 13:49:57.304019"	86	6.32562186666667
"S201120"	"Conflict_Resolution"	"LEFT"	"LEFT"	402.246199999922	1266.6666692	n/a	n/a	n/a	n/a	"True"	n/a	n/a	"2020-11-20 13:49:58.590747"	"2020-11-20 13:49:59.200596"	87	6.32562186666667
"S201120"	"Conflict_Resolution"	"LEFT"	"LEFT"	358.443799999918	966.6666686	n/a	n/a	n/a	n/a	"False"	n/a	n/a	"2020-11-20 13:50:00.186529"	"2020-11-20 13:50:00.753145"	88	6.32562186666667
"S201120"	"Conflict_Resolution"	"LEFT"	"LEFT"	404.464200000007	566.6666678	n/a	n/a	n/a	n/a	"True"	n/a	n/a	"2020-11-20 13:50:01.339795"	"2020-11-20 13:50:01.953151"	89	6.32562186666667
"S201120"	"Conflict_Resolution"	"RIGHT"	"RIGHT"	530.931799999962	1233.3333358	n/a	n/a	n/a	n/a	"True"	n/a	n/a	"2020-11-20 13:50:03.205476"	"2020-11-20 13:50:03.945480"	90	6.32562186666667
"S201120"	"Conflict_Resolution"	"LEFT"	"LEFT"	350.125299999945	516.6666677	n/a	n/a	n/a	n/a	"False"	n/a	n/a	"2020-11-20 13:50:04.482010"	"2020-11-20 13:50:05.040902"	91	6.32562186666667
"S201120"	"Conflict_Resolution"	"RIGHT"	"RIGHT"	424.524399999882	500.000001	n/a	n/a	n/a	n/a	"False"	n/a	n/a	"2020-11-20 13:50:05.560562"	"2020-11-20 13:50:06.191872"	92	6.32562186666667
"S201120"	"Conflict_Resolution"	"LEFT"	"LEFT"	376.881199999843	1466.6666696	n/a	n/a	n/a	n/a	"True"	n/a	n/a	"2020-11-20 13:50:07.680151"	"2020-11-20 13:50:08.265583"	93	6.32562186666667
"S201120"	"Conflict_Resolution"	"RIGHT"	"RIGHT"	398.469100000057	933.3333352	n/a	n/a	n/a	n/a	"True"	n/a	n/a	"2020-11-20 13:50:09.218399"	"2020-11-20 13:50:09.823770"	94	6.32562186666667
"S201120"	"Conflict_Resolution"	"RIGHT"	"RIGHT"	525.777699999935	800.0000016	n/a	n/a	n/a	n/a	"True"	n/a	n/a	"2020-11-20 13:50:10.642549"	"2020-11-20 13:50:11.377379"	95	6.32562186666667
"S201120"	"Conflict_Resolution"	"LEFT"	"LEFT"	360.521800000015	683.3333347	n/a	n/a	n/a	n/a	"False"	n/a	n/a	"2020-11-20 13:50:12.079648"	"2020-11-20 13:50:12.649209"	96	6.32562186666667
"S201120"	"Conflict_Resolution"	"LEFT"	"LEFT"	421.40530000006	1366.6666694	n/a	n/a	n/a	n/a	"False"	n/a	n/a	"2020-11-20 13:50:14.035507"	"2020-11-20 13:50:14.663598"	97	6.32562186666667
"S201120"	"Conflict_Resolution"	"LEFT"	"LEFT"	310.277900000074	583.3333345	n/a	n/a	n/a	n/a	"False"	n/a	n/a	"2020-11-20 13:50:15.265953"	"2020-11-20 13:50:15.785395"	98	6.32562186666667
"S201120"	"Conflict_Resolution"	"RIGHT"	"RIGHT"	325.7251	1183.3333357	n/a	n/a	n/a	n/a	"False"	n/a	n/a	"2020-11-20 13:50:16.986316"	"2020-11-20 13:50:17.519755"	99	6.32562186666667
"S201120"	"Conflict_Resolution"	"LEFT"	"LEFT"	475.842199999988	1450.0000029	n/a	n/a	n/a	n/a	"True"	n/a	n/a	"2020-11-20 13:50:18.989134"	"2020-11-20 13:50:19.673135"	100	6.32562186666667
"S201120"	"Conflict_Resolution"	"LEFT"	"LEFT"	461.488099999997	1166.666669	n/a	n/a	n/a	n/a	"True"	n/a	n/a	"2020-11-20 13:50:20.858690"	"2020-11-20 13:50:21.527978"	101	6.32562186666667
"S201120"	"Conflict_Resolution"	"RIGHT"	"RIGHT"	470.645899999909	950.0000019	n/a	n/a	n/a	n/a	"True"	n/a	n/a	"2020-11-20 13:50:22.497632"	"2020-11-20 13:50:23.176051"	102	6.32562186666667
"S201120"	"Conflict_Resolution"	"LEFT"	"LEFT"	351.036799999974	733.3333348	n/a	n/a	n/a	n/a	"False"	n/a	n/a	"2020-11-20 13:50:23.929289"	"2020-11-20 13:50:24.489470"	103	6.32562186666667
"S201120"	"Conflict_Resolution"	"LEFT"	"LEFT"	523.484599999847	1016.6666687	n/a	n/a	n/a	n/a	"True"	n/a	n/a	"2020-11-20 13:50:25.525382"	"2020-11-20 13:50:26.257424"	104	6.32562186666667
"S201120"	"Conflict_Resolution"	"LEFT"	"LEFT"	356.061700000055	1000.000002	n/a	n/a	n/a	n/a	"False"	n/a	n/a	"2020-11-20 13:50:27.276486"	"2020-11-20 13:50:27.839637"	105	6.32562186666667
"S201120"	"Conflict_Resolution"	"LEFT"	"LEFT"	336.490899999944	1150.0000023	n/a	n/a	n/a	n/a	"False"	n/a	n/a	"2020-11-20 13:50:29.008326"	"2020-11-20 13:50:29.553261"	106	6.32562186666667
"S201120"	"Conflict_Resolution"	"RIGHT"	"RIGHT"	354.285799999843	1433.3333362	n/a	n/a	n/a	n/a	"False"	n/a	n/a	"2020-11-20 13:50:31.006718"	"2020-11-20 13:50:31.569260"	107	6.32562186666667
"S201120"	"Conflict_Resolution"	"LEFT"	"LEFT"	397.020500000053	1400.0000028	n/a	n/a	n/a	n/a	"True"	n/a	n/a	"2020-11-20 13:50:32.987808"	"2020-11-20 13:50:33.593178"	108	6.32562186666667
"S201120"	"Conflict_Resolution"	"LEFT"	"LEFT"	328.027799999973	1466.6666696	n/a	n/a	n/a	n/a	"False"	n/a	n/a	"2020-11-20 13:50:35.080156"	"2020-11-20 13:50:35.617407"	109	6.32562186666667
"S201120"	"Conflict_Resolution"	"RIGHT"	"RIGHT"	409.926199999973	650.0000013	n/a	n/a	n/a	n/a	"False"	n/a	n/a	"2020-11-20 13:50:36.286386"	"2020-11-20 13:50:36.904728"	110	6.32562186666667
"S201120"	"Conflict_Resolution"	"LEFT"	"LEFT"	423.928299999943	1116.6666689	n/a	n/a	n/a	n/a	"True"	n/a	n/a	"2020-11-20 13:50:38.040178"	"2020-11-20 13:50:38.673449"	111	6.32562186666667
"S201120"	"Conflict_Resolution"	"LEFT"	"LEFT"	456.216600000062	900.0000018	n/a	n/a	n/a	n/a	"True"	n/a	n/a	"2020-11-20 13:50:39.592770"	"2020-11-20 13:50:40.255997"	112	6.32562186666667
"S201120"	"Conflict_Resolution"	"RIGHT"	"RIGHT"	453.218000000106	983.3333353	n/a	n/a	n/a	n/a	"True"	n/a	n/a	"2020-11-20 13:50:41.259794"	"2020-11-20 13:50:41.920035"	113	6.32562186666667
"S201120"	"Conflict_Resolution"	"LEFT"	"LEFT"	479.780099999971	533.3333344	n/a	n/a	n/a	n/a	"True"	n/a	n/a	"2020-11-20 13:50:42.473202"	"2020-11-20 13:50:43.161260"	114	6.32562186666667
"S201120"	"Conflict_Resolution"	"RIGHT"	"RIGHT"	425.340900000037	1266.6666692	n/a	n/a	n/a	n/a	"True"	n/a	n/a	"2020-11-20 13:50:44.447556"	"2020-11-20 13:50:45.079624"	115	6.32562186666667
"S201120"	"Conflict_Resolution"	"LEFT"	"LEFT"	409.56140000003	1100.0000022	n/a	n/a	n/a	n/a	"True"	n/a	n/a	"2020-11-20 13:50:46.198669"	"2020-11-20 13:50:46.815608"	116	6.32562186666667
"S201120"	"Conflict_Resolution"	"RIGHT"	"RIGHT"	498.088900000084	900.0000018	n/a	n/a	n/a	n/a	"True"	n/a	n/a	"2020-11-20 13:50:47.735001"	"2020-11-20 13:50:48.439943"	117	6.32562186666667
"S201120"	"Conflict_Resolution"	"RIGHT"	"RIGHT"	441.534499999989	883.3333351	n/a	n/a	n/a	n/a	"False"	n/a	n/a	"2020-11-20 13:50:49.342602"	"2020-11-20 13:50:49.992628"	118	6.32562186666667
"S201120"	"Conflict_Resolution"	"RIGHT"	"RIGHT"	341.390000000047	583.3333345	n/a	n/a	n/a	n/a	"False"	n/a	n/a	"2020-11-20 13:50:50.594999"	"2020-11-20 13:50:51.143621"	119	6.32562186666667
"S201120"	"Conflict_Resolution"	"RIGHT"	"RIGHT"	427.417599999899	1266.6666692	n/a	n/a	n/a	n/a	"False"	n/a	n/a	"2020-11-20 13:50:52.428886"	"2020-11-20 13:50:53.065323"	120	6.32562186666667
"S201120"	"Conflict_Resolution"	"RIGHT"	"RIGHT"	363.38469999987	633.3333346	n/a	n/a	n/a	n/a	"False"	n/a	n/a	"2020-11-20 13:50:53.717617"	"2020-11-20 13:50:54.288097"	121	6.32562186666667
"S201120"	"Conflict_Resolution"	"LEFT"	"LEFT"	577.902199999926	1500.000003	n/a	n/a	n/a	n/a	"True"	n/a	n/a	"2020-11-20 13:50:55.807345"	"2020-11-20 13:50:56.593019"	122	6.32562186666667
"S201120"	"Conflict_Resolution"	"RIGHT"	"RIGHT"	371.803999999884	800.0000016	n/a	n/a	n/a	n/a	"False"	n/a	n/a	"2020-11-20 13:50:57.412385"	"2020-11-20 13:50:57.993363"	123	6.32562186666667
"S201120"	"Conflict_Resolution"	"LEFT"	"LEFT"	478.322000000162	766.6666682	n/a	n/a	n/a	n/a	"True"	n/a	n/a	"2020-11-20 13:50:58.778488"	"2020-11-20 13:50:59.463612"	124	6.32562186666667
"S201120"	"Conflict_Resolution"	"LEFT"	"LEFT"	432.652099999814	1116.6666689	n/a	n/a	n/a	n/a	"False"	n/a	n/a	"2020-11-20 13:51:00.599786"	"2020-11-20 13:51:01.240839"	125	6.32562186666667
"S201120"	"Conflict_Resolution"	"LEFT"	"LEFT"	362.192899999854	1250.0000025	n/a	n/a	n/a	n/a	"False"	n/a	n/a	"2020-11-20 13:51:02.510128"	"2020-11-20 13:51:03.079742"	126	6.32562186666667
"S201120"	"Conflict_Resolution"	"RIGHT"	"RIGHT"	369.157600000108	1316.6666693	n/a	n/a	n/a	n/a	"False"	n/a	n/a	"2020-11-20 13:51:04.415109"	"2020-11-20 13:51:04.992296"	127	6.32562186666667
"S201120"	"Conflict_Resolution"	"RIGHT"	"RIGHT"	569.846300000108	883.3333351	n/a	n/a	n/a	n/a	"True"	n/a	n/a	"2020-11-20 13:51:05.894957"	"2020-11-20 13:51:06.672430"	128	6.32562186666667
"S201120"	"Conflict_Resolution"	"RIGHT"	"RIGHT"	393.058300000121	1100.0000022	n/a	n/a	n/a	n/a	"False"	n/a	n/a	"2020-11-20 13:51:07.791337"	"2020-11-20 13:51:08.393492"	129	6.32562186666667
"S201120"	"Conflict_Resolution"	"RIGHT"	"RIGHT"	460.981199999878	1183.3333357	n/a	n/a	n/a	n/a	"True"	n/a	n/a	"2020-11-20 13:51:09.595914"	"2020-11-20 13:51:10.263865"	130	6.32562186666667
"S201120"	"Conflict_Resolution"	"LEFT"	"LEFT"	374.888199999987	783.3333349	n/a	n/a	n/a	n/a	"False"	n/a	n/a	"2020-11-20 13:51:11.065867"	"2020-11-20 13:51:11.649386"	131	6.32562186666667
"S201120"	"Conflict_Resolution"	"RIGHT"	"RIGHT"	489.42030000012	750.0000015	n/a	n/a	n/a	n/a	"True"	n/a	n/a	"2020-11-20 13:51:12.423490"	"2020-11-20 13:51:13.121369"	132	6.32562186666667
"S201120"	"Conflict_Resolution"	"RIGHT"	"RIGHT"	407.519399999956	1283.3333359	n/a	n/a	n/a	n/a	"True"	n/a	n/a	"2020-11-20 13:51:14.425120"	"2020-11-20 13:51:15.040471"	133	6.32562186666667
"S201120"	"Conflict_Resolution"	"RIGHT"	"RIGHT"	433.426100000133	1083.3333355	n/a	n/a	n/a	n/a	"True"	n/a	n/a	"2020-11-20 13:51:16.143449"	"2020-11-20 13:51:16.784440"	134	6.32562186666667
"S201120"	"Conflict_Resolution"	"LEFT"	"LEFT"	384.789599999976	716.6666681	n/a	n/a	n/a	n/a	"False"	n/a	n/a	"2020-11-20 13:51:17.520019"	"2020-11-20 13:51:18.113431"	135	6.32562186666667
"S201120"	"Conflict_Resolution"	"LEFT"	"LEFT"	360.860199999934	1066.6666688	n/a	n/a	n/a	n/a	"False"	n/a	n/a	"2020-11-20 13:51:19.200013"	"2020-11-20 13:51:19.768706"	136	6.32562186666667
"S201120"	"Conflict_Resolution"	"RIGHT"	"RIGHT"	360.329399999955	700.0000014	n/a	n/a	n/a	n/a	"False"	n/a	n/a	"2020-11-20 13:51:20.487901"	"2020-11-20 13:51:21.057264"	137	6.32562186666667
"S201120"	"Conflict_Resolution"	"RIGHT"	"RIGHT"	603.342200000043	1416.6666695	n/a	n/a	n/a	n/a	"True"	n/a	n/a	"2020-11-20 13:51:22.493507"	"2020-11-20 13:51:23.305580"	138	6.32562186666667
"S201120"	"Conflict_Resolution"	"LEFT"	"LEFT"	493.596300000036	950.0000019	n/a	n/a	n/a	n/a	"True"	n/a	n/a	"2020-11-20 13:51:24.275209"	"2020-11-20 13:51:24.977309"	139	6.32562186666667
"S201120"	"Conflict_Resolution"	"LEFT"	"LEFT"	403.668100000004	816.6666683	n/a	n/a	n/a	n/a	"False"	n/a	n/a	"2020-11-20 13:51:25.813107"	"2020-11-20 13:51:26.424327"	140	6.32562186666667
"S201120"	"Conflict_Resolution"	"LEFT"	"LEFT"	378.990499999873	1450.0000029	n/a	n/a	n/a	n/a	"False"	n/a	n/a	"2020-11-20 13:51:27.893181"	"2020-11-20 13:51:28.479963"	141	6.32562186666667
"S201120"	"Conflict_Resolution"	"RIGHT"	"RIGHT"	512.900299999956	533.3333344	n/a	n/a	n/a	n/a	"True"	n/a	n/a	"2020-11-20 13:51:29.031187"	"2020-11-20 13:51:29.753445"	142	6.32562186666667
"S201120"	"Conflict_Resolution"	"LEFT"	"LEFT"	518.855799999983	716.6666681	n/a	n/a	n/a	n/a	"True"	n/a	n/a	"2020-11-20 13:51:30.489940"	"2020-11-20 13:51:31.217148"	143	6.32562186666667
"S201120"	"Conflict_Resolution"	"LEFT"	"LEFT"	499.540699999898	1200.0000024	n/a	n/a	n/a	n/a	"True"	n/a	n/a	"2020-11-20 13:51:32.437217"	"2020-11-20 13:51:33.145291"	144	6.32562186666667
"S201120"	"Conflict_Resolution"	"LEFT"	"LEFT"	475.752400000147	816.6666683	n/a	n/a	n/a	n/a	"True"	n/a	n/a	"2020-11-20 13:51:33.981135"	"2020-11-20 13:51:34.664086"	145	6.32562186666667
"S201120"	"Conflict_Resolution"	"LEFT"	"LEFT"	442.715099999987	866.6666684	n/a	n/a	n/a	n/a	"True"	n/a	n/a	"2020-11-20 13:51:35.550501"	"2020-11-20 13:51:36.201526"	146	6.32562186666667
"S201120"	"Conflict_Resolution"	"LEFT"	"LEFT"	361.201299999948	866.6666684	n/a	n/a	n/a	n/a	"False"	n/a	n/a	"2020-11-20 13:51:37.087758"	"2020-11-20 13:51:37.657308"	147	6.32562186666667
"S201120"	"Conflict_Resolution"	"LEFT"	"LEFT"	452.187800000047	1000.000002	n/a	n/a	n/a	n/a	"True"	n/a	n/a	"2020-11-20 13:51:38.676679"	"2020-11-20 13:51:39.336742"	148	6.32562186666667
"S201120"	"Conflict_Resolution"	"LEFT"	"LEFT"	351.757899999939	533.3333344	n/a	n/a	n/a	n/a	"False"	n/a	n/a	"2020-11-20 13:51:39.889031"	"2020-11-20 13:51:40.449488"	149	6.32562186666667
"S201120"	"Conflict_Resolution"	"RIGHT"	"RIGHT"	405.962399999908	733.3333348	n/a	n/a	n/a	n/a	"False"	n/a	n/a	"2020-11-20 13:51:41.202727"	"2020-11-20 13:51:41.815893"	150	6.32562186666667
"S201120"	"Conflict_Resolution"	"LEFT"	"LEFT"	376.18580000003	1316.6666693	n/a	n/a	n/a	n/a	"False"	n/a	n/a	"2020-11-20 13:51:43.152493"	"2020-11-20 13:51:43.735940"	151	6.32562186666667
"S201120"	"Conflict_Resolution"	"RIGHT"	"RIGHT"	439.954799999896	1133.3333356	n/a	n/a	n/a	n/a	"True"	n/a	n/a	"2020-11-20 13:51:44.889088"	"2020-11-20 13:51:45.535933"	152	6.32562186666667
"S201120"	"Conflict_Resolution"	"RIGHT"	"RIGHT"	473.07980000005	700.0000014	n/a	n/a	n/a	n/a	"True"	n/a	n/a	"2020-11-20 13:51:46.255843"	"2020-11-20 13:51:46.937362"	153	6.32562186666667
"S201120"	"Conflict_Resolution"	"RIGHT"	"RIGHT"	426.849899999979	1033.3333354	n/a	n/a	n/a	n/a	"True"	n/a	n/a	"2020-11-20 13:51:47.990201"	"2020-11-20 13:51:48.625164"	154	6.32562186666667
"S201120"	"Conflict_Resolution"	"LEFT"	"LEFT"	485.334299999977	1366.6666694	n/a	n/a	n/a	n/a	"True"	n/a	n/a	"2020-11-20 13:51:50.011333"	"2020-11-20 13:51:50.704070"	155	6.32562186666667
"S201120"	"Conflict_Resolution"	"RIGHT"	"RIGHT"	420.171199999913	1233.3333358	n/a	n/a	n/a	n/a	"False"	n/a	n/a	"2020-11-20 13:51:51.956871"	"2020-11-20 13:51:52.585454"	156	6.32562186666667
"S201120"	"Conflict_Resolution"	"RIGHT"	"RIGHT"	395.205499999975	1216.6666691	n/a	n/a	n/a	n/a	"True"	n/a	n/a	"2020-11-20 13:51:53.821682"	"2020-11-20 13:51:54.425324"	157	6.32562186666667
"S201120"	"Conflict_Resolution"	"LEFT"	"LEFT"	527.596599999924	516.6666677	n/a	n/a	n/a	n/a	"True"	n/a	n/a	"2020-11-20 13:51:54.961471"	"2020-11-20 13:51:55.697064"	158	6.32562186666667
"S201120"	"Conflict_Resolution"	"RIGHT"	"RIGHT"	395.014600000195	1433.3333362	n/a	n/a	n/a	n/a	"True"	n/a	n/a	"2020-11-20 13:51:57.149969"	"2020-11-20 13:51:57.752422"	159	6.32562186666667
"S201120"	"Conflict_Resolution"	"RIGHT"	"RIGHT"	416.767899999968	683.3333347	n/a	n/a	n/a	n/a	"True"	n/a	n/a	"2020-11-20 13:51:58.456115"	"2020-11-20 13:51:59.079792"	160	6.32562186666667
"S201120"	"Processing_Speed"	"LEFT"	"DOWN"	560.084899999993	633.3333346	n/a	n/a	n/a	n/a	n/a	n/a	n/a	"2020-11-20 13:35:19.768753"	"2020-11-20 13:35:20.547093"	1	1.95757291666667
"S201120"	"Processing_Speed"	"RIGHT"	"DOWN"	329.429599999997	700.0000014	n/a	n/a	n/a	n/a	n/a	n/a	n/a	"2020-11-20 13:35:21.255875"	"2020-11-20 13:35:21.793203"	2	1.95757291666667
"S201120"	"Processing_Speed"	"RIGHT"	"DOWN"	301.064099999991	1050.0000021	n/a	n/a	n/a	n/a	n/a	n/a	n/a	"2020-11-20 13:35:22.851462"	"2020-11-20 13:35:23.362354"	3	1.95757291666667
"S201120"	"Processing_Speed"	"RIGHT"	"DOWN"	327.380099999999	566.6666678	n/a	n/a	n/a	n/a	n/a	n/a	n/a	"2020-11-20 13:35:23.937432"	"2020-11-20 13:35:24.473129"	4	1.95757291666667
"S201120"	"Processing_Speed"	"LEFT"	"DOWN"	324.703900000003	666.666668	n/a	n/a	n/a	n/a	n/a	n/a	n/a	"2020-11-20 13:35:25.147808"	"2020-11-20 13:35:25.681365"	5	1.95757291666667
"S201120"	"Processing_Speed"	"RIGHT"	"DOWN"	311.313499999983	783.3333349	n/a	n/a	n/a	n/a	n/a	n/a	n/a	"2020-11-20 13:35:26.473442"	"2020-11-20 13:35:26.991845"	6	1.95757291666667
"S201120"	"Processing_Speed"	"RIGHT"	"DOWN"	312.683199999981	600.0000012	n/a	n/a	n/a	n/a	n/a	n/a	n/a	"2020-11-20 13:35:27.599966"	"2020-11-20 13:35:28.121197"	7	1.95757291666667
"S201120"	"Processing_Speed"	"LEFT"	"DOWN"	315.180499999997	1300.0000026	n/a	n/a	n/a	n/a	n/a	n/a	n/a	"2020-11-20 13:35:29.429607"	"2020-11-20 13:35:29.952926"	8	1.95757291666667
"S201120"	"Processing_Speed"	"RIGHT"	"DOWN"	283.148199999999	1500.000003	n/a	n/a	n/a	n/a	n/a	n/a	n/a	"2020-11-20 13:35:31.461186"	"2020-11-20 13:35:31.953480"	9	1.95757291666667
"S201120"	"Processing_Speed"	"RIGHT"	"DOWN"	276.178700000003	1466.6666696	n/a	n/a	n/a	n/a	n/a	n/a	n/a	"2020-11-20 13:35:33.428112"	"2020-11-20 13:35:33.911952"	10	1.95757291666667
"S201120"	"Processing_Speed"	"LEFT"	"DOWN"	235.715900000002	1500.000003	n/a	n/a	n/a	n/a	n/a	n/a	n/a	"2020-11-20 13:35:35.420980"	"2020-11-20 13:35:35.864824"	11	1.95757291666667
"S201120"	"Processing_Speed"	"RIGHT"	"DOWN"	281.587999999999	1150.0000023	n/a	n/a	n/a	n/a	n/a	n/a	n/a	"2020-11-20 13:35:37.023554"	"2020-11-20 13:35:37.512065"	12	1.95757291666667
"S201120"	"Processing_Speed"	"RIGHT"	"DOWN"	462.760200000019	633.3333346	n/a	n/a	n/a	n/a	n/a	n/a	n/a	"2020-11-20 13:35:38.153896"	"2020-11-20 13:35:38.825218"	13	1.95757291666667
"S201120"	"Processing_Speed"	"LEFT"	"DOWN"	260.4963	1466.6666696	n/a	n/a	n/a	n/a	n/a	n/a	n/a	"2020-11-20 13:35:40.300850"	"2020-11-20 13:35:40.768867"	14	1.95757291666667
"S201120"	"Processing_Speed"	"LEFT"	"DOWN"	347.608899999983	700.0000014	n/a	n/a	n/a	n/a	n/a	n/a	n/a	"2020-11-20 13:35:41.476944"	"2020-11-20 13:35:42.032433"	15	1.95757291666667
"S201120"	"Processing_Speed"	"RIGHT"	"DOWN"	250.460599999997	1116.6666689	n/a	n/a	n/a	n/a	n/a	n/a	n/a	"2020-11-20 13:35:43.158580"	"2020-11-20 13:35:43.617113"	16	1.95757291666667
"S201120"	"Processing_Speed"	"RIGHT"	"DOWN"	300.770699999987	1266.6666692	n/a	n/a	n/a	n/a	n/a	n/a	n/a	"2020-11-20 13:35:44.891894"	"2020-11-20 13:35:45.401542"	17	1.95757291666667
"S201120"	"Processing_Speed"	"RIGHT"	"DOWN"	299.280100000004	1083.3333355	n/a	n/a	n/a	n/a	n/a	n/a	n/a	"2020-11-20 13:35:46.493373"	"2020-11-20 13:35:47.000244"	18	1.95757291666667
"S201120"	"Processing_Speed"	"LEFT"	"DOWN"	283.232900000002	1116.6666689	n/a	n/a	n/a	n/a	n/a	n/a	n/a	"2020-11-20 13:35:48.125339"	"2020-11-20 13:35:48.616068"	19	1.95757291666667
"S201120"	"Processing_Speed"	"RIGHT"	"DOWN"	263.017200000007	1433.3333362	n/a	n/a	n/a	n/a	n/a	n/a	n/a	"2020-11-20 13:35:50.057934"	"2020-11-20 13:35:50.527679"	20	1.95757291666667
"S201120"	"Processing_Speed"	"LEFT"	"DOWN"	297.681299999994	1183.3333357	n/a	n/a	n/a	n/a	n/a	n/a	n/a	"2020-11-20 13:35:51.719476"	"2020-11-20 13:35:52.225115"	21	1.95757291666667
"S201120"	"Processing_Speed"	"LEFT"	"DOWN"	288.540300000022	1366.6666694	n/a	n/a	n/a	n/a	n/a	n/a	n/a	"2020-11-20 13:35:53.600475"	"2020-11-20 13:35:54.097131"	22	1.95757291666667
"S201120"	"Processing_Speed"	"RIGHT"	"DOWN"	356.105599999978	666.666668	n/a	n/a	n/a	n/a	n/a	n/a	n/a	"2020-11-20 13:35:54.772963"	"2020-11-20 13:35:55.337114"	23	1.95757291666667
"S201120"	"Processing_Speed"	"RIGHT"	"DOWN"	323.659499999991	883.3333351	n/a	n/a	n/a	n/a	n/a	n/a	n/a	"2020-11-20 13:35:56.229380"	"2020-11-20 13:35:56.762179"	24	1.95757291666667
"S201120"	"Processing_Speed"	"RIGHT"	"DOWN"	270.308	1400.0000028	n/a	n/a	n/a	n/a	n/a	n/a	n/a	"2020-11-20 13:35:58.170927"	"2020-11-20 13:35:58.650387"	25	1.95757291666667
"S201120"	"Processing_Speed"	"LEFT"	"DOWN"	261.399000000011	1216.6666691	n/a	n/a	n/a	n/a	n/a	n/a	n/a	"2020-11-20 13:35:59.875152"	"2020-11-20 13:36:00.344062"	26	1.95757291666667
"S201120"	"Processing_Speed"	"LEFT"	"DOWN"	312.861800000007	783.3333349	n/a	n/a	n/a	n/a	n/a	n/a	n/a	"2020-11-20 13:36:01.136292"	"2020-11-20 13:36:01.657119"	27	1.95757291666667
"S201120"	"Processing_Speed"	"RIGHT"	"DOWN"	237.267400000007	850.0000017	n/a	n/a	n/a	n/a	n/a	n/a	n/a	"2020-11-20 13:36:02.515872"	"2020-11-20 13:36:02.960691"	28	1.95757291666667
"S201120"	"Processing_Speed"	"LEFT"	"DOWN"	244.351800000004	1266.6666692	n/a	n/a	n/a	n/a	n/a	n/a	n/a	"2020-11-20 13:36:04.236804"	"2020-11-20 13:36:04.687812"	29	1.95757291666667
"S201120"	"Processing_Speed"	"RIGHT"	"DOWN"	243.173399999989	733.3333348	n/a	n/a	n/a	n/a	n/a	n/a	n/a	"2020-11-20 13:36:05.429695"	"2020-11-20 13:36:05.880081"	30	1.95757291666667
"S201120"	"Processing_Speed"	"RIGHT"	"DOWN"	258.585000000011	950.0000019	n/a	n/a	n/a	n/a	n/a	n/a	n/a	"2020-11-20 13:36:06.838096"	"2020-11-20 13:36:07.304796"	31	1.95757291666667
"S201120"	"Processing_Speed"	"RIGHT"	"DOWN"	267.647700000026	500.000001	n/a	n/a	n/a	n/a	n/a	n/a	n/a	"2020-11-20 13:36:07.813458"	"2020-11-20 13:36:08.289491"	32	1.95757291666667
"S201120"	"Processing_Speed"	"LEFT"	"DOWN"	265.263099999999	1333.333336	n/a	n/a	n/a	n/a	n/a	n/a	n/a	"2020-11-20 13:36:09.631830"	"2020-11-20 13:36:10.104752"	33	1.95757291666667
"S201120"	"Processing_Speed"	"LEFT"	"DOWN"	289.263599999998	1150.0000023	n/a	n/a	n/a	n/a	n/a	n/a	n/a	"2020-11-20 13:36:11.263088"	"2020-11-20 13:36:11.759760"	34	1.95757291666667
"S201120"	"Processing_Speed"	"LEFT"	"DOWN"	248.468199999991	950.0000019	n/a	n/a	n/a	n/a	n/a	n/a	n/a	"2020-11-20 13:36:12.720473"	"2020-11-20 13:36:13.176015"	35	1.95757291666667
"S201120"	"Processing_Speed"	"RIGHT"	"DOWN"	247.739300000006	816.6666683	n/a	n/a	n/a	n/a	n/a	n/a	n/a	"2020-11-20 13:36:14.000787"	"2020-11-20 13:36:14.455745"	36	1.95757291666667
"S201120"	"Processing_Speed"	"RIGHT"	"DOWN"	258.196199999986	1333.333336	n/a	n/a	n/a	n/a	n/a	n/a	n/a	"2020-11-20 13:36:15.798423"	"2020-11-20 13:36:16.265296"	37	1.95757291666667
"S201120"	"Processing_Speed"	"LEFT"	"DOWN"	278.777300000002	600.0000012	n/a	n/a	n/a	n/a	n/a	n/a	n/a	"2020-11-20 13:36:16.873612"	"2020-11-20 13:36:17.361356"	38	1.95757291666667
"S201120"	"Processing_Speed"	"LEFT"	"DOWN"	291.026500000015	500.000001	n/a	n/a	n/a	n/a	n/a	n/a	n/a	"2020-11-20 13:36:17.869513"	"2020-11-20 13:36:18.367685"	39	1.95757291666667
"S201120"	"Processing_Speed"	"LEFT"	"DOWN"	301.006599999994	883.3333351	n/a	n/a	n/a	n/a	n/a	n/a	n/a	"2020-11-20 13:36:19.259805"	"2020-11-20 13:36:19.769096"	40	1.95757291666667
"S201120"	"Processing_Speed"	"LEFT"	"DOWN"	285.654199999982	1016.6666687	n/a	n/a	n/a	n/a	n/a	n/a	n/a	"2020-11-20 13:36:20.795131"	"2020-11-20 13:36:21.288783"	41	1.95757291666667
"S201120"	"Processing_Speed"	"LEFT"	"DOWN"	272.625000000005	566.6666678	n/a	n/a	n/a	n/a	n/a	n/a	n/a	"2020-11-20 13:36:21.863868"	"2020-11-20 13:36:22.343866"	42	1.95757291666667
"S201120"	"Processing_Speed"	"RIGHT"	"DOWN"	267.827299999993	916.6666685	n/a	n/a	n/a	n/a	n/a	n/a	n/a	"2020-11-20 13:36:23.269344"	"2020-11-20 13:36:23.744671"	43	1.95757291666667
"S201120"	"Processing_Speed"	"RIGHT"	"DOWN"	272.276599999998	983.3333353	n/a	n/a	n/a	n/a	n/a	n/a	n/a	"2020-11-20 13:36:24.736665"	"2020-11-20 13:36:25.216723"	44	1.95757291666667
"S201120"	"Processing_Speed"	"RIGHT"	"DOWN"	216.920400000021	1366.6666694	n/a	n/a	n/a	n/a	n/a	n/a	n/a	"2020-11-20 13:36:26.591683"	"2020-11-20 13:36:27.017578"	45	1.95757291666667
"S201120"	"Processing_Speed"	"LEFT"	"DOWN"	243.831700000015	850.0000017	n/a	n/a	n/a	n/a	n/a	n/a	n/a	"2020-11-20 13:36:27.876677"	"2020-11-20 13:36:28.329095"	46	1.95757291666667
"S201120"	"Processing_Speed"	"LEFT"	"DOWN"	245.548600000006	1433.3333362	n/a	n/a	n/a	n/a	n/a	n/a	n/a	"2020-11-20 13:36:29.771294"	"2020-11-20 13:36:30.225234"	47	1.95757291666667
"S201120"	"Processing_Speed"	"LEFT"	"DOWN"	266.358400000001	916.6666685	n/a	n/a	n/a	n/a	n/a	n/a	n/a	"2020-11-20 13:36:31.150441"	"2020-11-20 13:36:31.624320"	48	1.95757291666667
"S201120"	"Processing_Speed"	"RIGHT"	"DOWN"	243.899499999998	1300.0000026	n/a	n/a	n/a	n/a	n/a	n/a	n/a	"2020-11-20 13:36:32.932551"	"2020-11-20 13:36:33.385443"	49	1.95757291666667
"S201120"	"Processing_Speed"	"LEFT"	"DOWN"	265.158799999995	533.3333344	n/a	n/a	n/a	n/a	n/a	n/a	n/a	"2020-11-20 13:36:33.927981"	"2020-11-20 13:36:34.400905"	50	1.95757291666667
"S201120"	"Processing_Speed"	"LEFT"	"DOWN"	288.061999999996	983.3333353	n/a	n/a	n/a	n/a	n/a	n/a	n/a	"2020-11-20 13:36:35.393087"	"2020-11-20 13:36:35.888734"	51	1.95757291666667
"S201120"	"Processing_Speed"	"LEFT"	"DOWN"	278.874099999996	816.6666683	n/a	n/a	n/a	n/a	n/a	n/a	n/a	"2020-11-20 13:36:36.713494"	"2020-11-20 13:36:37.200329"	52	1.95757291666667
"S201120"	"Processing_Speed"	"LEFT"	"DOWN"	232.27030000001	1400.0000028	n/a	n/a	n/a	n/a	n/a	n/a	n/a	"2020-11-20 13:36:38.608868"	"2020-11-20 13:36:39.047708"	53	1.95757291666667
"S201120"	"Processing_Speed"	"LEFT"	"DOWN"	246.730200000002	1050.0000021	n/a	n/a	n/a	n/a	n/a	n/a	n/a	"2020-11-20 13:36:40.106158"	"2020-11-20 13:36:40.560092"	54	1.95757291666667
"S201120"	"Processing_Speed"	"RIGHT"	"DOWN"	296.739400000007	1183.3333357	n/a	n/a	n/a	n/a	n/a	n/a	n/a	"2020-11-20 13:36:41.751976"	"2020-11-20 13:36:42.256711"	55	1.95757291666667
"S201120"	"Processing_Speed"	"LEFT"	"DOWN"	243.360199999984	1083.3333355	n/a	n/a	n/a	n/a	n/a	n/a	n/a	"2020-11-20 13:36:43.349811"	"2020-11-20 13:36:43.800944"	56	1.95757291666667
"S201120"	"Processing_Speed"	"RIGHT"	"DOWN"	266.134299999976	533.3333344	n/a	n/a	n/a	n/a	n/a	n/a	n/a	"2020-11-20 13:36:44.342503"	"2020-11-20 13:36:44.817402"	57	1.95757291666667
"S201120"	"Processing_Speed"	"LEFT"	"DOWN"	249.159599999984	733.3333348	n/a	n/a	n/a	n/a	n/a	n/a	n/a	"2020-11-20 13:36:45.560044"	"2020-11-20 13:36:46.015808"	58	1.95757291666667
"S201120"	"Processing_Speed"	"RIGHT"	"DOWN"	256.117799999998	1216.6666691	n/a	n/a	n/a	n/a	n/a	n/a	n/a	"2020-11-20 13:36:47.240999"	"2020-11-20 13:36:47.703965"	59	1.95757291666667
"S201120"	"Processing_Speed"	"RIGHT"	"DOWN"	311.621000000002	1016.6666687	n/a	n/a	n/a	n/a	n/a	n/a	n/a	"2020-11-20 13:36:48.729342"	"2020-11-20 13:36:49.247956"	60	1.95757291666667
"S201120"	"Response_Inhibition"	"LEFT"	"LEFT"	359.098900300015	1150.0000023	n/a	n/a	n/a	n/a	n/a	n/a	n/a	"2020-11-20 13:40:28.214377"	"2020-11-20 13:40:28.784704"	1	5.81897151666667
"S201120"	"Response_Inhibition"	"LEFT"	"LEFT"	452.341100000012	683.3333347	n/a	n/a	n/a	n/a	n/a	n/a	n/a	"2020-11-20 13:40:29.476278"	"2020-11-20 13:40:30.136767"	2	5.81897151666667
"S201120"	"Response_Inhibition"	"RIGHT"	"RIGHT"	309.726699999999	1050.0000021	n/a	n/a	n/a	n/a	n/a	n/a	n/a	"2020-11-20 13:40:31.194816"	"2020-11-20 13:40:31.712700"	3	5.81897151666667
"S201120"	"Response_Inhibition"	"RIGHT"	"RIGHT"	281.018267099952	1083.3333355	n/a	n/a	n/a	n/a	n/a	n/a	n/a	"2020-11-20 13:40:32.804370"	"2020-11-20 13:40:33.296132"	4	5.81897151666667
"S201120"	"Response_Inhibition"	"LEFT"	"Time_Max_Exceeded"	1500.07266679999	983.3333353	n/a	n/a	n/a	n/a	n/a	n/a	n/a	"2020-11-20 13:40:34.287694"	"2020-11-20 13:40:35.791754"	5	5.81897151666667
"S201120"	"Response_Inhibition"	"LEFT"	"LEFT"	368.681567199972	1316.6666693	n/a	n/a	n/a	n/a	n/a	n/a	n/a	"2020-11-20 13:40:37.116462"	"2020-11-20 13:40:37.695910"	6	5.81897151666667
"S201120"	"Response_Inhibition"	"RIGHT"	"RIGHT"	388.986199999977	866.6666684	n/a	n/a	n/a	n/a	n/a	n/a	n/a	"2020-11-20 13:40:38.571406"	"2020-11-20 13:40:39.168034"	7	5.81897151666667
"S201120"	"Response_Inhibition"	"LEFT"	"Time_Max_Exceeded"	1500.06379999996	1100.0000022	n/a	n/a	n/a	n/a	n/a	n/a	n/a	"2020-11-20 13:40:40.276732"	"2020-11-20 13:40:41.776300"	8	5.81897151666667
"S201120"	"Response_Inhibition"	"RIGHT"	"RIGHT"	340.913699999987	850.0000017	n/a	n/a	n/a	n/a	n/a	n/a	n/a	"2020-11-20 13:40:42.635717"	"2020-11-20 13:40:43.185278"	9	5.81897151666667
"S201120"	"Response_Inhibition"	"LEFT"	"LEFT"	334.912399999951	600.0000012	n/a	n/a	n/a	n/a	n/a	n/a	n/a	"2020-11-20 13:40:43.793405"	"2020-11-20 13:40:44.336889"	10	5.81897151666667
"S201120"	"Response_Inhibition"	"LEFT"	"Time_Max_Exceeded"	1500.05190010001	850.0000017	n/a	n/a	n/a	n/a	n/a	n/a	n/a	"2020-11-20 13:40:45.195549"	"2020-11-20 13:40:46.699530"	11	5.81897151666667
"S201120"	"Response_Inhibition"	"RIGHT"	"RIGHT"	343.438933799997	850.0000017	n/a	n/a	n/a	n/a	n/a	n/a	n/a	"2020-11-20 13:40:47.557750"	"2020-11-20 13:40:48.113282"	12	5.81897151666667
"S201120"	"Response_Inhibition"	"LEFT"	"LEFT"	425.61360000002	733.3333348	n/a	n/a	n/a	n/a	n/a	n/a	n/a	"2020-11-20 13:40:48.855466"	"2020-11-20 13:40:49.488074"	13	5.81897151666667
"S201120"	"Response_Inhibition"	"LEFT"	"LEFT"	356.042500000001	900.0000018	n/a	n/a	n/a	n/a	n/a	n/a	n/a	"2020-11-20 13:40:50.396471"	"2020-11-20 13:40:50.960601"	14	5.81897151666667
"S201120"	"Response_Inhibition"	"RIGHT"	"Time_Max_Exceeded"	1500.04800009998	1033.3333354	n/a	n/a	n/a	n/a	n/a	n/a	n/a	"2020-11-20 13:40:52.002384"	"2020-11-20 13:40:53.506206"	15	5.81897151666667
"S201120"	"Response_Inhibition"	"RIGHT"	"Time_Max_Exceeded"	1500.06750009999	533.3333344	n/a	n/a	n/a	n/a	n/a	n/a	n/a	"2020-11-20 13:40:54.048577"	"2020-11-20 13:40:55.552332"	16	5.81897151666667
"S201120"	"Response_Inhibition"	"LEFT"	"LEFT"	346.014967199992	1066.6666688	n/a	n/a	n/a	n/a	n/a	n/a	n/a	"2020-11-20 13:40:56.627877"	"2020-11-20 13:40:57.185456"	17	5.81897151666667
"S201120"	"Response_Inhibition"	"LEFT"	"Time_Max_Exceeded"	1500.05420050002	1216.6666691	n/a	n/a	n/a	n/a	n/a	n/a	n/a	"2020-11-20 13:40:58.410679"	"2020-11-20 13:40:59.913541"	18	5.81897151666667
"S201120"	"Response_Inhibition"	"LEFT"	"LEFT"	331.512499999974	1266.6666692	n/a	n/a	n/a	n/a	n/a	n/a	n/a	"2020-11-20 13:41:01.189719"	"2020-11-20 13:41:01.728640"	19	5.81897151666667
"S201120"	"Response_Inhibition"	"LEFT"	"LEFT"	365.725999999995	1033.3333354	n/a	n/a	n/a	n/a	n/a	n/a	n/a	"2020-11-20 13:41:02.771346"	"2020-11-20 13:41:03.343782"	20	5.81897151666667
"S201120"	"Response_Inhibition"	"LEFT"	"LEFT"	893.009500000005	1283.3333359	n/a	n/a	n/a	n/a	n/a	n/a	n/a	"2020-11-20 13:41:04.635417"	"2020-11-20 13:41:05.735616"	21	5.81897151666667
"S201120"	"Response_Inhibition"	"RIGHT"	"Time_Max_Exceeded"	1500.0472339	1150.0000023	n/a	n/a	n/a	n/a	n/a	n/a	n/a	"2020-11-20 13:41:06.894429"	"2020-11-20 13:41:08.397121"	22	5.81897151666667
"S201120"	"Response_Inhibition"	"LEFT"	"LEFT"	542.864000000009	1483.3333363	n/a	n/a	n/a	n/a	n/a	n/a	n/a	"2020-11-20 13:41:09.889775"	"2020-11-20 13:41:10.641541"	23	5.81897151666667
"S201120"	"Response_Inhibition"	"LEFT"	"LEFT"	594.180400000027	1316.6666693	n/a	n/a	n/a	n/a	n/a	n/a	n/a	"2020-11-20 13:41:11.966485"	"2020-11-20 13:41:12.768724"	24	5.81897151666667
"S201120"	"Response_Inhibition"	"RIGHT"	"RIGHT"	316.774299999963	1266.6666692	n/a	n/a	n/a	n/a	n/a	n/a	n/a	"2020-11-20 13:41:14.044259"	"2020-11-20 13:41:14.568806"	25	5.81897151666667
"S201120"	"Response_Inhibition"	"LEFT"	"LEFT"	431.999499999961	783.3333349	n/a	n/a	n/a	n/a	n/a	n/a	n/a	"2020-11-20 13:41:15.360796"	"2020-11-20 13:41:15.999867"	26	5.81897151666667
"S201120"	"Response_Inhibition"	"RIGHT"	"RIGHT"	352.51199999999	600.0000012	n/a	n/a	n/a	n/a	n/a	n/a	n/a	"2020-11-20 13:41:16.607810"	"2020-11-20 13:41:17.169179"	27	5.81897151666667
"S201120"	"Response_Inhibition"	"LEFT"	"LEFT"	427.159299999971	500.000001	n/a	n/a	n/a	n/a	n/a	n/a	n/a	"2020-11-20 13:41:17.677865"	"2020-11-20 13:41:18.313197"	28	5.81897151666667
"S201120"	"Response_Inhibition"	"LEFT"	"LEFT"	687.136899999985	1200.0000024	n/a	n/a	n/a	n/a	n/a	n/a	n/a	"2020-11-20 13:41:19.521428"	"2020-11-20 13:41:20.416300"	29	5.81897151666667
"S201120"	"Response_Inhibition"	"LEFT"	"LEFT"	538.8552	1133.3333356	n/a	n/a	n/a	n/a	n/a	n/a	n/a	"2020-11-20 13:41:21.557788"	"2020-11-20 13:41:22.305378"	30	5.81897151666667
"S201120"	"Response_Inhibition"	"RIGHT"	"RIGHT"	436.324200000001	1266.6666692	n/a	n/a	n/a	n/a	n/a	n/a	n/a	"2020-11-20 13:41:23.580949"	"2020-11-20 13:41:24.225304"	31	5.81897151666667
"S201120"	"Response_Inhibition"	"RIGHT"	"RIGHT"	426.455400000009	716.6666681	n/a	n/a	n/a	n/a	n/a	n/a	n/a	"2020-11-20 13:41:24.949930"	"2020-11-20 13:41:25.584752"	32	5.81897151666667
"S201120"	"Response_Inhibition"	"RIGHT"	"RIGHT"	649.046199999987	1366.6666694	n/a	n/a	n/a	n/a	n/a	n/a	n/a	"2020-11-20 13:41:26.959841"	"2020-11-20 13:41:27.815801"	33	5.81897151666667
"S201120"	"Response_Inhibition"	"LEFT"	"LEFT"	587.171300000023	716.6666681	n/a	n/a	n/a	n/a	n/a	n/a	n/a	"2020-11-20 13:41:28.541863"	"2020-11-20 13:41:29.337143"	34	5.81897151666667
"S201120"	"Response_Inhibition"	"RIGHT"	"RIGHT"	308.667000000014	1066.6666688	n/a	n/a	n/a	n/a	n/a	n/a	n/a	"2020-11-20 13:41:30.412482"	"2020-11-20 13:41:30.929924"	35	5.81897151666667
"S201120"	"Response_Inhibition"	"RIGHT"	"Time_Max_Exceeded"	1500.05643360006	1416.6666695	n/a	n/a	n/a	n/a	n/a	n/a	n/a	"2020-11-20 13:41:32.355395"	"2020-11-20 13:41:33.858656"	36	5.81897151666667
"S201120"	"Response_Inhibition"	"RIGHT"	"Time_Max_Exceeded"	1500.06136699999	700.0000014	n/a	n/a	n/a	n/a	n/a	n/a	n/a	"2020-11-20 13:41:34.568638"	"2020-11-20 13:41:36.071760"	37	5.81897151666667
"S201120"	"Response_Inhibition"	"LEFT"	"Time_Max_Exceeded"	1500.04940040003	583.3333345	n/a	n/a	n/a	n/a	n/a	n/a	n/a	"2020-11-20 13:41:36.664210"	"2020-11-20 13:41:38.167538"	38	5.81897151666667
"S201120"	"Response_Inhibition"	"RIGHT"	"RIGHT"	471.420400000056	1433.3333362	n/a	n/a	n/a	n/a	n/a	n/a	n/a	"2020-11-20 13:41:39.609237"	"2020-11-20 13:41:40.288466"	39	5.81897151666667
"S201120"	"Response_Inhibition"	"RIGHT"	"RIGHT"	441.041100000007	1166.666669	n/a	n/a	n/a	n/a	n/a	n/a	n/a	"2020-11-20 13:41:41.463562"	"2020-11-20 13:41:42.111732"	40	5.81897151666667
"S201120"	"Response_Inhibition"	"LEFT"	"LEFT"	377.302667099954	1300.0000026	n/a	n/a	n/a	n/a	n/a	n/a	n/a	"2020-11-20 13:41:43.419676"	"2020-11-20 13:41:44.007803"	41	5.81897151666667
"S201120"	"Response_Inhibition"	"RIGHT"	"RIGHT"	525.689300000067	666.666668	n/a	n/a	n/a	n/a	n/a	n/a	n/a	"2020-11-20 13:41:44.682965"	"2020-11-20 13:41:45.416447"	42	5.81897151666667
"S201120"	"Response_Inhibition"	"RIGHT"	"RIGHT"	483.929100000069	1100.0000022	n/a	n/a	n/a	n/a	n/a	n/a	n/a	"2020-11-20 13:41:46.524598"	"2020-11-20 13:41:47.215917"	43	5.81897151666667
"S201120"	"Response_Inhibition"	"RIGHT"	"Time_Max_Exceeded"	1500.05223360002	900.0000018	n/a	n/a	n/a	n/a	n/a	n/a	n/a	"2020-11-20 13:41:48.124854"	"2020-11-20 13:41:49.627528"	44	5.81897151666667
"S201120"	"Response_Inhibition"	"LEFT"	"LEFT"	624.954699999989	666.666668	n/a	n/a	n/a	n/a	n/a	n/a	n/a	"2020-11-20 13:41:50.303847"	"2020-11-20 13:41:51.136257"	45	5.81897151666667
"S201120"	"Response_Inhibition"	"LEFT"	"Time_Max_Exceeded"	1500.05836670008	1166.666669	n/a	n/a	n/a	n/a	n/a	n/a	n/a	"2020-11-20 13:41:52.311829"	"2020-11-20 13:41:53.815804"	46	5.81897151666667
"S201120"	"Response_Inhibition"	"LEFT"	"LEFT"	485.391700000037	1466.6666696	n/a	n/a	n/a	n/a	n/a	n/a	n/a	"2020-11-20 13:41:55.291587"	"2020-11-20 13:41:55.983917"	47	5.81897151666667
"S201120"	"Response_Inhibition"	"RIGHT"	"Time_Max_Exceeded"	1500.07170050003	950.0000019	n/a	n/a	n/a	n/a	n/a	n/a	n/a	"2020-11-20 13:41:56.942790"	"2020-11-20 13:41:58.446390"	48	5.81897151666667
"S201120"	"Response_Inhibition"	"RIGHT"	"Time_Max_Exceeded"	1500.07773349997	1216.6666691	n/a	n/a	n/a	n/a	n/a	n/a	n/a	"2020-11-20 13:41:59.672345"	"2020-11-20 13:42:01.176215"	49	5.81897151666667
"S201120"	"Response_Inhibition"	"LEFT"	"Time_Max_Exceeded"	1500.05243339998	916.6666685	n/a	n/a	n/a	n/a	n/a	n/a	n/a	"2020-11-20 13:42:02.100917"	"2020-11-20 13:42:03.604715"	50	5.81897151666667
"S201120"	"Response_Inhibition"	"LEFT"	"LEFT"	529.135900000028	633.3333346	n/a	n/a	n/a	n/a	n/a	n/a	n/a	"2020-11-20 13:42:04.247025"	"2020-11-20 13:42:04.984121"	51	5.81897151666667
"S201120"	"Response_Inhibition"	"RIGHT"	"Time_Max_Exceeded"	1500.05496689998	1466.6666696	n/a	n/a	n/a	n/a	n/a	n/a	n/a	"2020-11-20 13:42:06.459602"	"2020-11-20 13:42:07.962424"	52	5.81897151666667
"S201120"	"Response_Inhibition"	"RIGHT"	"RIGHT"	518.546899999933	1366.6666694	n/a	n/a	n/a	n/a	n/a	n/a	n/a	"2020-11-20 13:42:09.338052"	"2020-11-20 13:42:10.064700"	53	5.81897151666667
"S201120"	"Response_Inhibition"	"LEFT"	"Time_Max_Exceeded"	1500.05696689997	950.0000019	n/a	n/a	n/a	n/a	n/a	n/a	n/a	"2020-11-20 13:42:11.023388"	"2020-11-20 13:42:12.526613"	54	5.81897151666667
"S201120"	"Response_Inhibition"	"RIGHT"	"RIGHT"	459.152700000004	1150.0000023	n/a	n/a	n/a	n/a	n/a	n/a	n/a	"2020-11-20 13:42:13.685819"	"2020-11-20 13:42:14.353306"	55	5.81897151666667
"S201120"	"Response_Inhibition"	"RIGHT"	"RIGHT"	446.150999999986	583.3333345	n/a	n/a	n/a	n/a	n/a	n/a	n/a	"2020-11-20 13:42:14.946251"	"2020-11-20 13:42:15.600815"	56	5.81897151666667
"S201120"	"Response_Inhibition"	"RIGHT"	"RIGHT"	432.563899999991	983.3333353	n/a	n/a	n/a	n/a	n/a	n/a	n/a	"2020-11-20 13:42:16.592584"	"2020-11-20 13:42:17.231858"	57	5.81897151666667
"S201120"	"Response_Inhibition"	"RIGHT"	"RIGHT"	418.315599999914	550.0000011	n/a	n/a	n/a	n/a	n/a	n/a	n/a	"2020-11-20 13:42:17.790049"	"2020-11-20 13:42:18.417171"	58	5.81897151666667
"S201120"	"Response_Inhibition"	"LEFT"	"LEFT"	520.543500000031	1350.0000027	n/a	n/a	n/a	n/a	n/a	n/a	n/a	"2020-11-20 13:42:19.776319"	"2020-11-20 13:42:20.505663"	59	5.81897151666667
"S201120"	"Response_Inhibition"	"RIGHT"	"RIGHT"	408.55339999996	950.0000019	n/a	n/a	n/a	n/a	n/a	n/a	n/a	"2020-11-20 13:42:21.464282"	"2020-11-20 13:42:22.080055"	60	5.81897151666667
"S201120"	"Response_Inhibition"	"LEFT"	"Time_Max_Exceeded"	1500.06286699992	1233.3333358	n/a	n/a	n/a	n/a	n/a	n/a	n/a	"2020-11-20 13:42:23.321907"	"2020-11-20 13:42:24.825149"	61	5.81897151666667
"S201120"	"Response_Inhibition"	"LEFT"	"LEFT"	600.824100000068	933.3333352	n/a	n/a	n/a	n/a	n/a	n/a	n/a	"2020-11-20 13:42:25.768383"	"2020-11-20 13:42:26.577289"	62	5.81897151666667
"S201120"	"Response_Inhibition"	"LEFT"	"LEFT"	427.668799999992	1083.3333355	n/a	n/a	n/a	n/a	n/a	n/a	n/a	"2020-11-20 13:42:27.669368"	"2020-11-20 13:42:28.303943"	63	5.81897151666667
"S201120"	"Response_Inhibition"	"RIGHT"	"RIGHT"	339.233999999919	1333.333336	n/a	n/a	n/a	n/a	n/a	n/a	n/a	"2020-11-20 13:42:29.645424"	"2020-11-20 13:42:30.193127"	64	5.81897151666667
"S201120"	"Response_Inhibition"	"RIGHT"	"RIGHT"	363.27716700002	816.6666683	n/a	n/a	n/a	n/a	n/a	n/a	n/a	"2020-11-20 13:42:31.017598"	"2020-11-20 13:42:31.592067"	65	5.81897151666667
"S201120"	"Response_Inhibition"	"RIGHT"	"RIGHT"	512.17859999997	1183.3333357	n/a	n/a	n/a	n/a	n/a	n/a	n/a	"2020-11-20 13:42:32.784110"	"2020-11-20 13:42:33.505396"	66	5.81897151666667
"S201120"	"Response_Inhibition"	"RIGHT"	"RIGHT"	468.955800000003	633.3333346	n/a	n/a	n/a	n/a	n/a	n/a	n/a	"2020-11-20 13:42:34.148171"	"2020-11-20 13:42:34.825116"	67	5.81897151666667
"S201120"	"Response_Inhibition"	"LEFT"	"LEFT"	562.445900000057	516.6666677	n/a	n/a	n/a	n/a	n/a	n/a	n/a	"2020-11-20 13:42:35.350712"	"2020-11-20 13:42:36.120480"	68	5.81897151666667
"S201120"	"Response_Inhibition"	"RIGHT"	"RIGHT"	447.935400000006	1200.0000024	n/a	n/a	n/a	n/a	n/a	n/a	n/a	"2020-11-20 13:42:37.328575"	"2020-11-20 13:42:37.985517"	69	5.81897151666667
"S201120"	"Response_Inhibition"	"RIGHT"	"RIGHT"	677.64360000001	833.333335	n/a	n/a	n/a	n/a	n/a	n/a	n/a	"2020-11-20 13:42:38.826818"	"2020-11-20 13:42:39.711698"	70	5.81897151666667
"S201120"	"Response_Inhibition"	"LEFT"	"Time_Max_Exceeded"	1500.04733370005	650.0000013	n/a	n/a	n/a	n/a	n/a	n/a	n/a	"2020-11-20 13:42:40.370721"	"2020-11-20 13:42:41.874374"	71	5.81897151666667
"S201120"	"Response_Inhibition"	"RIGHT"	"Time_Max_Exceeded"	1500.05030039995	616.6666679	n/a	n/a	n/a	n/a	n/a	n/a	n/a	"2020-11-20 13:42:42.499369"	"2020-11-20 13:42:44.003076"	72	5.81897151666667
"S201120"	"Response_Inhibition"	"LEFT"	"LEFT"	535.722300000089	1333.333336	n/a	n/a	n/a	n/a	n/a	n/a	n/a	"2020-11-20 13:42:45.344822"	"2020-11-20 13:42:46.089494"	73	5.81897151666667
"S201120"	"Response_Inhibition"	"RIGHT"	"RIGHT"	553.416200000015	1116.6666689	n/a	n/a	n/a	n/a	n/a	n/a	n/a	"2020-11-20 13:42:47.215515"	"2020-11-20 13:42:47.977027"	74	5.81897151666667
"S201120"	"Response_Inhibition"	"RIGHT"	"Time_Max_Exceeded"	1500.06886689998	1133.3333356	n/a	n/a	n/a	n/a	n/a	n/a	n/a	"2020-11-20 13:42:49.118681"	"2020-11-20 13:42:50.622511"	75	5.81897151666667
"S201120"	"Response_Inhibition"	"RIGHT"	"Time_Max_Exceeded"	1500.06760020006	1500.000003	n/a	n/a	n/a	n/a	n/a	n/a	n/a	"2020-11-20 13:42:52.130739"	"2020-11-20 13:42:53.634781"	76	5.81897151666667
"S201120"	"Response_Inhibition"	"RIGHT"	"RIGHT"	593.044000000077	1316.6666693	n/a	n/a	n/a	n/a	n/a	n/a	n/a	"2020-11-20 13:42:54.959459"	"2020-11-20 13:42:55.761355"	77	5.81897151666667
"S201120"	"Response_Inhibition"	"RIGHT"	"RIGHT"	722.357600000009	1316.6666693	n/a	n/a	n/a	n/a	n/a	n/a	n/a	"2020-11-20 13:42:57.086226"	"2020-11-20 13:42:58.016208"	78	5.81897151666667
"S201120"	"Response_Inhibition"	"LEFT"	"LEFT"	535.507700000039	1416.6666695	n/a	n/a	n/a	n/a	n/a	n/a	n/a	"2020-11-20 13:42:59.441090"	"2020-11-20 13:43:00.185390"	79	5.81897151666667
"S201120"	"Response_Inhibition"	"RIGHT"	"Time_Max_Exceeded"	1500.05723379999	650.0000013	n/a	n/a	n/a	n/a	n/a	n/a	n/a	"2020-11-20 13:43:00.843816"	"2020-11-20 13:43:02.346989"	80	5.81897151666667
"S201120"	"Response_Inhibition"	"RIGHT"	"Time_Max_Exceeded"	1500.05593390003	1300.0000026	n/a	n/a	n/a	n/a	n/a	n/a	n/a	"2020-11-20 13:43:03.656905"	"2020-11-20 13:43:05.160076"	81	5.81897151666667
"S201120"	"Response_Inhibition"	"RIGHT"	"RIGHT"	843.307999999979	516.6666677	n/a	n/a	n/a	n/a	n/a	n/a	n/a	"2020-11-20 13:43:05.685683"	"2020-11-20 13:43:06.737124"	82	5.81897151666667
"S201120"	"Response_Inhibition"	"RIGHT"	"Time_Max_Exceeded"	1500.04773350005	1350.0000027	n/a	n/a	n/a	n/a	n/a	n/a	n/a	"2020-11-20 13:43:08.095771"	"2020-11-20 13:43:09.598478"	83	5.81897151666667
"S201120"	"Response_Inhibition"	"RIGHT"	"Time_Max_Exceeded"	1500.05233350006	766.6666682	n/a	n/a	n/a	n/a	n/a	n/a	n/a	"2020-11-20 13:43:10.375170"	"2020-11-20 13:43:11.878369"	84	5.81897151666667
"S201120"	"Response_Inhibition"	"RIGHT"	"Time_Max_Exceeded"	1500.05846719994	916.6666685	n/a	n/a	n/a	n/a	n/a	n/a	n/a	"2020-11-20 13:43:12.804511"	"2020-11-20 13:43:14.307958"	85	5.81897151666667
"S201120"	"Response_Inhibition"	"LEFT"	"LEFT"	614.25840000004	1150.0000023	n/a	n/a	n/a	n/a	n/a	n/a	n/a	"2020-11-20 13:43:15.466780"	"2020-11-20 13:43:16.289519"	86	5.81897151666667
"S201120"	"Response_Inhibition"	"LEFT"	"LEFT"	528.666600000065	950.0000019	n/a	n/a	n/a	n/a	n/a	n/a	n/a	"2020-11-20 13:43:17.248399"	"2020-11-20 13:43:17.985515"	87	5.81897151666667
"S201120"	"Response_Inhibition"	"RIGHT"	"Time_Max_Exceeded"	1500.05250030006	500.000001	n/a	n/a	n/a	n/a	n/a	n/a	n/a	"2020-11-20 13:43:18.494362"	"2020-11-20 13:43:19.997160"	88	5.81897151666667
"S201120"	"Response_Inhibition"	"RIGHT"	"RIGHT"	618.2728	1400.0000028	n/a	n/a	n/a	n/a	n/a	n/a	n/a	"2020-11-20 13:43:21.406921"	"2020-11-20 13:43:22.232592"	89	5.81897151666667
"S201120"	"Response_Inhibition"	"LEFT"	"LEFT"	608.933200000024	566.6666678	n/a	n/a	n/a	n/a	n/a	n/a	n/a	"2020-11-20 13:43:22.807640"	"2020-11-20 13:43:23.625159"	90	5.81897151666667
"S201120"	"Response_Inhibition"	"RIGHT"	"RIGHT"	746.735400000034	1100.0000022	n/a	n/a	n/a	n/a	n/a	n/a	n/a	"2020-11-20 13:43:24.734303"	"2020-11-20 13:43:25.689348"	91	5.81897151666667
"S201120"	"Response_Inhibition"	"LEFT"	"LEFT"	476.763600000027	850.0000017	n/a	n/a	n/a	n/a	n/a	n/a	n/a	"2020-11-20 13:43:26.547468"	"2020-11-20 13:43:27.231815"	92	5.81897151666667
"S201120"	"Response_Inhibition"	"RIGHT"	"Time_Max_Exceeded"	1500.04956709999	1383.3333361	n/a	n/a	n/a	n/a	n/a	n/a	n/a	"2020-11-20 13:43:28.624960"	"2020-11-20 13:43:30.127680"	93	5.81897151666667
"S201120"	"Response_Inhibition"	"LEFT"	"LEFT"	575.106900000037	1183.3333357	n/a	n/a	n/a	n/a	n/a	n/a	n/a	"2020-11-20 13:43:31.321426"	"2020-11-20 13:43:32.105568"	94	5.81897151666667
"S201120"	"Response_Inhibition"	"LEFT"	"Time_Max_Exceeded"	1500.04730050001	1466.6666696	n/a	n/a	n/a	n/a	n/a	n/a	n/a	"2020-11-20 13:43:33.580583"	"2020-11-20 13:43:35.084382"	95	5.81897151666667
"S201120"	"Response_Inhibition"	"RIGHT"	"RIGHT"	609.169100000031	1466.6666696	n/a	n/a	n/a	n/a	n/a	n/a	n/a	"2020-11-20 13:43:36.559212"	"2020-11-20 13:43:37.376786"	96	5.81897151666667
"S201120"	"Response_Inhibition"	"LEFT"	"LEFT"	543.453200000044	1000.000002	n/a	n/a	n/a	n/a	n/a	n/a	n/a	"2020-11-20 13:43:38.385248"	"2020-11-20 13:43:39.137147"	97	5.81897151666667
"S201120"	"Response_Inhibition"	"LEFT"	"LEFT"	468.520699999999	833.333335	n/a	n/a	n/a	n/a	n/a	n/a	n/a	"2020-11-20 13:43:39.980422"	"2020-11-20 13:43:40.656938"	98	5.81897151666667
"S201120"	"Response_Inhibition"	"RIGHT"	"RIGHT"	565.382200000045	1050.0000021	n/a	n/a	n/a	n/a	n/a	n/a	n/a	"2020-11-20 13:43:41.715173"	"2020-11-20 13:43:42.489390"	99	5.81897151666667
"S201120"	"Response_Inhibition"	"LEFT"	"Time_Max_Exceeded"	1500.04623360004	766.6666682	n/a	n/a	n/a	n/a	n/a	n/a	n/a	"2020-11-20 13:43:43.264618"	"2020-11-20 13:43:44.767913"	100	5.81897151666667
"S201120"	"Response_Inhibition"	"LEFT"	"Time_Max_Exceeded"	1500.05463369993	883.3333351	n/a	n/a	n/a	n/a	n/a	n/a	n/a	"2020-11-20 13:43:45.660158"	"2020-11-20 13:43:47.163521"	101	5.81897151666667
"S201120"	"Response_Inhibition"	"RIGHT"	"Time_Max_Exceeded"	1500.05046669996	583.3333345	n/a	n/a	n/a	n/a	n/a	n/a	n/a	"2020-11-20 13:43:47.755754"	"2020-11-20 13:43:49.259206"	102	5.81897151666667
"S201120"	"Response_Inhibition"	"RIGHT"	"RIGHT"	572.525700000028	566.6666678	n/a	n/a	n/a	n/a	n/a	n/a	n/a	"2020-11-20 13:43:49.836257"	"2020-11-20 13:43:50.616086"	103	5.81897151666667
"S201120"	"Response_Inhibition"	"RIGHT"	"RIGHT"	578.915800000004	933.3333352	n/a	n/a	n/a	n/a	n/a	n/a	n/a	"2020-11-20 13:43:51.558235"	"2020-11-20 13:43:52.345120"	104	5.81897151666667
"S201120"	"Response_Inhibition"	"LEFT"	"LEFT"	558.474400000023	1416.6666695	n/a	n/a	n/a	n/a	n/a	n/a	n/a	"2020-11-20 13:43:53.769780"	"2020-11-20 13:43:54.536374"	105	5.81897151666667
"S201120"	"Response_Inhibition"	"LEFT"	"LEFT"	597.733700000049	1250.0000025	n/a	n/a	n/a	n/a	n/a	n/a	n/a	"2020-11-20 13:43:55.795021"	"2020-11-20 13:43:56.600393"	106	5.81897151666667
"S201120"	"Response_Inhibition"	"RIGHT"	"RIGHT"	704.377300000033	783.3333349	n/a	n/a	n/a	n/a	n/a	n/a	n/a	"2020-11-20 13:43:57.392389"	"2020-11-20 13:43:58.304789"	107	5.81897151666667
"S201120"	"Response_Inhibition"	"RIGHT"	"RIGHT"	516.443200000026	1450.0000029	n/a	n/a	n/a	n/a	n/a	n/a	n/a	"2020-11-20 13:43:59.764034"	"2020-11-20 13:44:00.488964"	108	5.81897151666667
"S201120"	"Response_Inhibition"	"LEFT"	"Time_Max_Exceeded"	1500.04773379996	800.0000016	n/a	n/a	n/a	n/a	n/a	n/a	n/a	"2020-11-20 13:44:01.297421"	"2020-11-20 13:44:02.800678"	109	5.81897151666667
"S201120"	"Response_Inhibition"	"LEFT"	"LEFT"	637.559799999963	633.3333346	n/a	n/a	n/a	n/a	n/a	n/a	n/a	"2020-11-20 13:44:03.443510"	"2020-11-20 13:44:04.288617"	110	5.81897151666667
"S201120"	"Response_Inhibition"	"LEFT"	"LEFT"	500.89909999997	1266.6666692	n/a	n/a	n/a	n/a	n/a	n/a	n/a	"2020-11-20 13:44:05.563246"	"2020-11-20 13:44:06.271940"	111	5.81897151666667
"S201120"	"Response_Inhibition"	"LEFT"	"LEFT"	518.583600000056	1433.3333362	n/a	n/a	n/a	n/a	n/a	n/a	n/a	"2020-11-20 13:44:07.714060"	"2020-11-20 13:44:08.439971"	112	5.81897151666667
"S201120"	"Response_Inhibition"	"LEFT"	"Time_Max_Exceeded"	1500.05820040008	1383.3333361	n/a	n/a	n/a	n/a	n/a	n/a	n/a	"2020-11-20 13:44:09.831848"	"2020-11-20 13:44:11.334731"	113	5.81897151666667
"S201120"	"Response_Inhibition"	"RIGHT"	"RIGHT"	596.989299999905	883.3333351	n/a	n/a	n/a	n/a	n/a	n/a	n/a	"2020-11-20 13:44:12.227100"	"2020-11-20 13:44:13.033443"	114	5.81897151666667
"S201120"	"Response_Inhibition"	"LEFT"	"LEFT"	554.899199999909	900.0000018	n/a	n/a	n/a	n/a	n/a	n/a	n/a	"2020-11-20 13:44:13.941576"	"2020-11-20 13:44:14.705209"	115	5.81897151666667
"S201120"	"Response_Inhibition"	"LEFT"	"LEFT"	720.922900000005	750.0000015	n/a	n/a	n/a	n/a	n/a	n/a	n/a	"2020-11-20 13:44:15.463751"	"2020-11-20 13:44:16.392017"	116	5.81897151666667
"S201120"	"Response_Inhibition"	"LEFT"	"LEFT"	413.503499999933	866.6666684	n/a	n/a	n/a	n/a	n/a	n/a	n/a	"2020-11-20 13:44:17.267634"	"2020-11-20 13:44:17.887975"	117	5.81897151666667
"S201120"	"Response_Inhibition"	"RIGHT"	"RIGHT"	652.237700000001	900.0000018	n/a	n/a	n/a	n/a	n/a	n/a	n/a	"2020-11-20 13:44:18.796263"	"2020-11-20 13:44:19.657502"	118	5.81897151666667
"S201120"	"Response_Inhibition"	"LEFT"	"Time_Max_Exceeded"	1500.05560019997	1450.0000029	n/a	n/a	n/a	n/a	n/a	n/a	n/a	"2020-11-20 13:44:21.116065"	"2020-11-20 13:44:22.619617"	119	5.81897151666667
"S201120"	"Response_Inhibition"	"LEFT"	"LEFT"	698.496200000022	1050.0000021	n/a	n/a	n/a	n/a	n/a	n/a	n/a	"2020-11-20 13:44:23.677843"	"2020-11-20 13:44:24.583671"	120	5.81897151666667
"S201120"	"Response_Inhibition"	"LEFT"	"Time_Max_Exceeded"	1500.05083340007	1366.6666694	n/a	n/a	n/a	n/a	n/a	n/a	n/a	"2020-11-20 13:44:25.958456"	"2020-11-20 13:44:27.462518"	121	5.81897151666667
"S201120"	"Response_Inhibition"	"RIGHT"	"RIGHT"	472.180299999991	1233.3333358	n/a	n/a	n/a	n/a	n/a	n/a	n/a	"2020-11-20 13:44:28.704410"	"2020-11-20 13:44:29.385289"	122	5.81897151666667
"S201120"	"Response_Inhibition"	"RIGHT"	"RIGHT"	598.796300000004	1000.000002	n/a	n/a	n/a	n/a	n/a	n/a	n/a	"2020-11-20 13:44:30.394301"	"2020-11-20 13:44:31.199765"	123	5.81897151666667
"S201120"	"Response_Inhibition"	"LEFT"	"LEFT"	697.895900000049	966.6666686	n/a	n/a	n/a	n/a	n/a	n/a	n/a	"2020-11-20 13:44:32.174373"	"2020-11-20 13:44:33.081347"	124	5.81897151666667
"S201120"	"Response_Inhibition"	"RIGHT"	"Time_Max_Exceeded"	1500.0499002	1216.6666691	n/a	n/a	n/a	n/a	n/a	n/a	n/a	"2020-11-20 13:44:34.306045"	"2020-11-20 13:44:35.809553"	125	5.81897151666667
"S201120"	"Response_Inhibition"	"LEFT"	"Time_Max_Exceeded"	1500.05786679996	700.0000014	n/a	n/a	n/a	n/a	n/a	n/a	n/a	"2020-11-20 13:44:36.518476"	"2020-11-20 13:44:38.022332"	126	5.81897151666667
"S201120"	"Response_Inhibition"	"RIGHT"	"RIGHT"	597.182900000007	1483.3333363	n/a	n/a	n/a	n/a	n/a	n/a	n/a	"2020-11-20 13:44:39.515798"	"2020-11-20 13:44:40.320914"	127	5.81897151666667
"S201120"	"Response_Inhibition"	"RIGHT"	"RIGHT"	578.028399999994	733.3333348	n/a	n/a	n/a	n/a	n/a	n/a	n/a	"2020-11-20 13:44:41.062471"	"2020-11-20 13:44:41.849267"	128	5.81897151666667
"S201120"	"Response_Inhibition"	"LEFT"	"LEFT"	503.883200000018	783.3333349	n/a	n/a	n/a	n/a	n/a	n/a	n/a	"2020-11-20 13:44:42.640684"	"2020-11-20 13:44:43.353502"	129	5.81897151666667
"S201120"	"Response_Inhibition"	"LEFT"	"LEFT"	493.972600000006	816.6666683	n/a	n/a	n/a	n/a	n/a	n/a	n/a	"2020-11-20 13:44:44.178890"	"2020-11-20 13:44:44.880704"	130	5.81897151666667
"S201120"	"Response_Inhibition"	"LEFT"	"LEFT"	585.62029999996	533.3333344	n/a	n/a	n/a	n/a	n/a	n/a	n/a	"2020-11-20 13:44:45.423253"	"2020-11-20 13:44:46.215811"	131	5.81897151666667
"S201120"	"Response_Inhibition"	"RIGHT"	"RIGHT"	642.455199999972	750.0000015	n/a	n/a	n/a	n/a	n/a	n/a	n/a	"2020-11-20 13:44:46.974289"	"2020-11-20 13:44:47.825445"	132	5.81897151666667
"S201120"	"Response_Inhibition"	"RIGHT"	"RIGHT"	440.039700000057	966.6666686	n/a	n/a	n/a	n/a	n/a	n/a	n/a	"2020-11-20 13:44:48.800375"	"2020-11-20 13:44:49.450247"	133	5.81897151666667
"S201120"	"Response_Inhibition"	"LEFT"	"LEFT"	485.408800000073	583.3333345	n/a	n/a	n/a	n/a	n/a	n/a	n/a	"2020-11-20 13:44:50.043180"	"2020-11-20 13:44:50.736669"	134	5.81897151666667
"S201120"	"Response_Inhibition"	"LEFT"	"LEFT"	405.578399999968	1050.0000021	n/a	n/a	n/a	n/a	n/a	n/a	n/a	"2020-11-20 13:44:51.794831"	"2020-11-20 13:44:52.409186"	135	5.81897151666667
"S201120"	"Response_Inhibition"	"RIGHT"	"RIGHT"	494.001700000013	1416.6666695	n/a	n/a	n/a	n/a	n/a	n/a	n/a	"2020-11-20 13:44:53.834796"	"2020-11-20 13:44:54.536266"	136	5.81897151666667
"S201120"	"Response_Inhibition"	"LEFT"	"LEFT"	363.938599999983	1500.000003	n/a	n/a	n/a	n/a	n/a	n/a	n/a	"2020-11-20 13:44:56.044318"	"2020-11-20 13:44:56.616903"	137	5.81897151666667
"S201120"	"Response_Inhibition"	"RIGHT"	"Time_Max_Exceeded"	1500.04943370001	1283.3333359	n/a	n/a	n/a	n/a	n/a	n/a	n/a	"2020-11-20 13:44:57.908658"	"2020-11-20 13:44:59.411351"	138	5.81897151666667
"S201120"	"Response_Inhibition"	"LEFT"	"Time_Max_Exceeded"	1500.05636679991	550.0000011	n/a	n/a	n/a	n/a	n/a	n/a	n/a	"2020-11-20 13:44:59.970434"	"2020-11-20 13:45:01.473892"	139	5.81897151666667
"S201120"	"Response_Inhibition"	"LEFT"	"LEFT"	436.52540000005	1216.6666691	n/a	n/a	n/a	n/a	n/a	n/a	n/a	"2020-11-20 13:45:02.699991"	"2020-11-20 13:45:03.345274"	140	5.81897151666667
"S201120"	"Response_Inhibition"	"LEFT"	"LEFT"	440.239799999972	1366.6666694	n/a	n/a	n/a	n/a	n/a	n/a	n/a	"2020-11-20 13:45:04.720740"	"2020-11-20 13:45:05.368555"	141	5.81897151666667
"S201120"	"Response_Inhibition"	"RIGHT"	"RIGHT"	718.253300000015	633.3333346	n/a	n/a	n/a	n/a	n/a	n/a	n/a	"2020-11-20 13:45:06.010618"	"2020-11-20 13:45:06.935946"	142	5.81897151666667
"S201120"	"Response_Inhibition"	"RIGHT"	"RIGHT"	526.214199999913	1250.0000025	n/a	n/a	n/a	n/a	n/a	n/a	n/a	"2020-11-20 13:45:08.195029"	"2020-11-20 13:45:08.929220"	143	5.81897151666667
"S201120"	"Response_Inhibition"	"RIGHT"	"RIGHT"	547.402000000034	683.3333347	n/a	n/a	n/a	n/a	n/a	n/a	n/a	"2020-11-20 13:45:09.621606"	"2020-11-20 13:45:10.377104"	144	5.81897151666667
"S201120"	"Response_Inhibition"	"RIGHT"	"RIGHT"	439.166900000032	1000.000002	n/a	n/a	n/a	n/a	n/a	n/a	n/a	"2020-11-20 13:45:11.385268"	"2020-11-20 13:45:12.033276"	145	5.81897151666667
"S201120"	"Response_Inhibition"	"RIGHT"	"RIGHT"	399.414999999976	783.3333349	n/a	n/a	n/a	n/a	n/a	n/a	n/a	"2020-11-20 13:45:12.824733"	"2020-11-20 13:45:13.434909"	146	5.81897151666667
"S201120"	"Response_Inhibition"	"LEFT"	"Time_Max_Exceeded"	1500.06173359994	683.3333347	n/a	n/a	n/a	n/a	n/a	n/a	n/a	"2020-11-20 13:45:14.126798"	"2020-11-20 13:45:15.631406"	147	5.81897151666667
"S201120"	"Response_Inhibition"	"LEFT"	"Time_Max_Exceeded"	1500.05193340004	1000.000002	n/a	n/a	n/a	n/a	n/a	n/a	n/a	"2020-11-20 13:45:16.640666"	"2020-11-20 13:45:18.143610"	148	5.81897151666667
"S201120"	"Response_Inhibition"	"LEFT"	"LEFT"	503.031800000031	616.6666679	n/a	n/a	n/a	n/a	n/a	n/a	n/a	"2020-11-20 13:45:18.769917"	"2020-11-20 13:45:19.481399"	149	5.81897151666667
"S201120"	"Response_Inhibition"	"RIGHT"	"Time_Max_Exceeded"	1500.06396669998	1016.6666687	n/a	n/a	n/a	n/a	n/a	n/a	n/a	"2020-11-20 13:45:20.506668"	"2020-11-20 13:45:22.011668"	150	5.81897151666667
"S201120"	"Response_Inhibition"	"RIGHT"	"RIGHT"	449.034299999994	683.3333347	n/a	n/a	n/a	n/a	n/a	n/a	n/a	"2020-11-20 13:45:22.703894"	"2020-11-20 13:45:23.361186"	151	5.81897151666667
"S201120"	"Response_Inhibition"	"LEFT"	"LEFT"	439.13550000002	1400.0000028	n/a	n/a	n/a	n/a	n/a	n/a	n/a	"2020-11-20 13:45:24.769904"	"2020-11-20 13:45:25.415746"	152	5.81897151666667
"S201120"	"Response_Inhibition"	"LEFT"	"LEFT"	395.805699999983	1116.6666689	n/a	n/a	n/a	n/a	n/a	n/a	n/a	"2020-11-20 13:45:26.540970"	"2020-11-20 13:45:27.145354"	153	5.81897151666667
"S201120"	"Response_Inhibition"	"RIGHT"	"RIGHT"	654.834099999903	800.0000016	n/a	n/a	n/a	n/a	n/a	n/a	n/a	"2020-11-20 13:45:27.953458"	"2020-11-20 13:45:28.815728"	154	5.81897151666667
"S201120"	"Response_Inhibition"	"RIGHT"	"RIGHT"	403.373600000009	533.3333344	n/a	n/a	n/a	n/a	n/a	n/a	n/a	"2020-11-20 13:45:29.357210"	"2020-11-20 13:45:29.968991"	155	5.81897151666667
"S201120"	"Response_Inhibition"	"LEFT"	"LEFT"	555.420000000026	1100.0000022	n/a	n/a	n/a	n/a	n/a	n/a	n/a	"2020-11-20 13:45:31.076861"	"2020-11-20 13:45:31.841073"	156	5.81897151666667
"S201120"	"Response_Inhibition"	"LEFT"	"LEFT"	646.82659999994	1016.6666687	n/a	n/a	n/a	n/a	n/a	n/a	n/a	"2020-11-20 13:45:32.866370"	"2020-11-20 13:45:33.721248"	157	5.81897151666667
"S201120"	"Response_Inhibition"	"LEFT"	"Time_Max_Exceeded"	1500.0712003	533.3333344	n/a	n/a	n/a	n/a	n/a	n/a	n/a	"2020-11-20 13:45:34.262799"	"2020-11-20 13:45:35.767030"	158	5.81897151666667
"S201120"	"Response_Inhibition"	"LEFT"	"LEFT"	499.450400000001	733.3333348	n/a	n/a	n/a	n/a	n/a	n/a	n/a	"2020-11-20 13:45:36.509522"	"2020-11-20 13:45:37.216192"	159	5.81897151666667
"S201120"	"Response_Inhibition"	"RIGHT"	"Time_Max_Exceeded"	1500.07200000005	733.3333348	n/a	n/a	n/a	n/a	n/a	n/a	n/a	"2020-11-20 13:45:37.957787"	"2020-11-20 13:45:39.458614"	160	5.81897151666667
"S201120"	"Response_Selection"	"LEFT"	"LEFT"	294.112199999972	1216.6666691	n/a	n/a	n/a	n/a	n/a	n/a	n/a	"2020-11-20 13:37:51.730763"	"2020-11-20 13:37:52.233201"	1	2.98520288333333
"S201120"	"Response_Selection"	"LEFT"	"LEFT"	292.321199999947	1266.6666692	n/a	n/a	n/a	n/a	n/a	n/a	n/a	"2020-11-20 13:37:53.508272"	"2020-11-20 13:37:54.008702"	2	2.98520288333333
"S201120"	"Response_Selection"	"RIGHT"	"RIGHT"	268.12689999997	883.3333351	n/a	n/a	n/a	n/a	n/a	n/a	n/a	"2020-11-20 13:37:54.900665"	"2020-11-20 13:37:55.377438"	3	2.98520288333333
"S201120"	"Response_Selection"	"LEFT"	"LEFT"	292.077100000029	1466.6666696	n/a	n/a	n/a	n/a	n/a	n/a	n/a	"2020-11-20 13:37:56.853052"	"2020-11-20 13:37:57.352714"	4	2.98520288333333
"S201120"	"Response_Selection"	"LEFT"	"LEFT"	348.595199999977	683.3333347	n/a	n/a	n/a	n/a	n/a	n/a	n/a	"2020-11-20 13:37:58.044563"	"2020-11-20 13:37:58.600077"	5	2.98520288333333
"S201120"	"Response_Selection"	"LEFT"	"LEFT"	304.499600000042	583.3333345	n/a	n/a	n/a	n/a	n/a	n/a	n/a	"2020-11-20 13:37:59.191854"	"2020-11-20 13:37:59.705136"	6	2.98520288333333
"S201120"	"Response_Selection"	"RIGHT"	"RIGHT"	225.949900000046	933.3333352	n/a	n/a	n/a	n/a	n/a	n/a	n/a	"2020-11-20 13:38:00.646674"	"2020-11-20 13:38:01.081274"	7	2.98520288333333
"S201120"	"Response_Selection"	"LEFT"	"LEFT"	303.169999999966	600.0000012	n/a	n/a	n/a	n/a	n/a	n/a	n/a	"2020-11-20 13:38:01.689423"	"2020-11-20 13:38:02.201099"	8	2.98520288333333
"S201120"	"Response_Selection"	"LEFT"	"LEFT"	313.841000000025	533.3333344	n/a	n/a	n/a	n/a	n/a	n/a	n/a	"2020-11-20 13:38:02.742806"	"2020-11-20 13:38:03.265542"	9	2.98520288333333
"S201120"	"Response_Selection"	"RIGHT"	"RIGHT"	264.141600000016	1350.0000027	n/a	n/a	n/a	n/a	n/a	n/a	n/a	"2020-11-20 13:38:04.624900"	"2020-11-20 13:38:05.096939"	10	2.98520288333333
"S201120"	"Response_Selection"	"LEFT"	"LEFT"	249.031800000012	750.0000015	n/a	n/a	n/a	n/a	n/a	n/a	n/a	"2020-11-20 13:38:05.856232"	"2020-11-20 13:38:06.312026"	11	2.98520288333333
"S201120"	"Response_Selection"	"RIGHT"	"RIGHT"	244.745300000034	683.3333347	n/a	n/a	n/a	n/a	n/a	n/a	n/a	"2020-11-20 13:38:07.003792"	"2020-11-20 13:38:07.456531"	12	2.98520288333333
"S201120"	"Response_Selection"	"LEFT"	"LEFT"	296.295999999984	783.3333349	n/a	n/a	n/a	n/a	n/a	n/a	n/a	"2020-11-20 13:38:08.247982"	"2020-11-20 13:38:08.753341"	13	2.98520288333333
"S201120"	"Response_Selection"	"LEFT"	"LEFT"	331.543799999963	866.6666684	n/a	n/a	n/a	n/a	n/a	n/a	n/a	"2020-11-20 13:38:09.629532"	"2020-11-20 13:38:10.168686"	14	2.98520288333333
"S201120"	"Response_Selection"	"RIGHT"	"RIGHT"	222.83920000001	1016.6666687	n/a	n/a	n/a	n/a	n/a	n/a	n/a	"2020-11-20 13:38:11.194264"	"2020-11-20 13:38:11.625129"	15	2.98520288333333
"S201120"	"Response_Selection"	"LEFT"	"LEFT"	239.035300000012	800.0000016	n/a	n/a	n/a	n/a	n/a	n/a	n/a	"2020-11-20 13:38:12.433753"	"2020-11-20 13:38:12.880633"	16	2.98520288333333
"S201120"	"Response_Selection"	"RIGHT"	"RIGHT"	233.014099999991	966.6666686	n/a	n/a	n/a	n/a	n/a	n/a	n/a	"2020-11-20 13:38:13.855663"	"2020-11-20 13:38:14.297190"	17	2.98520288333333
"S201120"	"Response_Selection"	"LEFT"	"LEFT"	250.181899999973	733.3333348	n/a	n/a	n/a	n/a	n/a	n/a	n/a	"2020-11-20 13:38:15.039410"	"2020-11-20 13:38:15.497184"	18	2.98520288333333
"S201120"	"Response_Selection"	"RIGHT"	"RIGHT"	279.326900000001	1400.0000028	n/a	n/a	n/a	n/a	n/a	n/a	n/a	"2020-11-20 13:38:16.905270"	"2020-11-20 13:38:17.392142"	19	2.98520288333333
"S201120"	"Response_Selection"	"RIGHT"	"RIGHT"	274.286200000006	750.0000015	n/a	n/a	n/a	n/a	n/a	n/a	n/a	"2020-11-20 13:38:18.150424"	"2020-11-20 13:38:18.633166"	20	2.98520288333333
"S201120"	"Response_Selection"	"LEFT"	"LEFT"	267.652999999996	1083.3333355	n/a	n/a	n/a	n/a	n/a	n/a	n/a	"2020-11-20 13:38:19.724710"	"2020-11-20 13:38:20.201432"	21	2.98520288333333
"S201120"	"Response_Selection"	"LEFT"	"LEFT"	304.88600000001	933.3333352	n/a	n/a	n/a	n/a	n/a	n/a	n/a	"2020-11-20 13:38:21.143828"	"2020-11-20 13:38:21.656472"	22	2.98520288333333
"S201120"	"Response_Selection"	"LEFT"	"LEFT"	273.10319999998	966.6666686	n/a	n/a	n/a	n/a	n/a	n/a	n/a	"2020-11-20 13:38:22.632036"	"2020-11-20 13:38:23.111928"	23	2.98520288333333
"S201120"	"Response_Selection"	"RIGHT"	"LEFT"	296.687400000053	583.3333345	n/a	n/a	n/a	n/a	n/a	n/a	n/a	"2020-11-20 13:38:23.704345"	"2020-11-20 13:38:24.208067"	24	2.98520288333333
"S201120"	"Response_Selection"	"RIGHT"	"RIGHT"	271.226300000023	800.0000016	n/a	n/a	n/a	n/a	n/a	n/a	n/a	"2020-11-20 13:38:25.017682"	"2020-11-20 13:38:25.497397"	25	2.98520288333333
"S201120"	"Response_Selection"	"RIGHT"	"RIGHT"	267.921000000001	1266.6666692	n/a	n/a	n/a	n/a	n/a	n/a	n/a	"2020-11-20 13:38:26.772653"	"2020-11-20 13:38:27.249379"	26	2.98520288333333
"S201120"	"Response_Selection"	"RIGHT"	"RIGHT"	264.082899999948	1366.6666694	n/a	n/a	n/a	n/a	n/a	n/a	n/a	"2020-11-20 13:38:28.624604"	"2020-11-20 13:38:29.096786"	27	2.98520288333333
"S201120"	"Response_Selection"	"RIGHT"	"RIGHT"	290.073499999949	533.3333344	n/a	n/a	n/a	n/a	n/a	n/a	n/a	"2020-11-20 13:38:29.639075"	"2020-11-20 13:38:30.135872"	28	2.98520288333333
"S201120"	"Response_Selection"	"LEFT"	"LEFT"	252.519500000005	1066.6666688	n/a	n/a	n/a	n/a	n/a	n/a	n/a	"2020-11-20 13:38:31.212505"	"2020-11-20 13:38:31.672715"	29	2.98520288333333
"S201120"	"Response_Selection"	"RIGHT"	"RIGHT"	263.607900000011	600.0000012	n/a	n/a	n/a	n/a	n/a	n/a	n/a	"2020-11-20 13:38:32.281418"	"2020-11-20 13:38:32.752740"	30	2.98520288333333
"S201120"	"Response_Selection"	"LEFT"	"LEFT"	305.20150000001	1166.666669	n/a	n/a	n/a	n/a	n/a	n/a	n/a	"2020-11-20 13:38:33.927976"	"2020-11-20 13:38:34.441467"	31	2.98520288333333
"S201120"	"Response_Selection"	"RIGHT"	"RIGHT"	227.540599999998	866.6666684	n/a	n/a	n/a	n/a	n/a	n/a	n/a	"2020-11-20 13:38:35.316866"	"2020-11-20 13:38:35.752718"	32	2.98520288333333
"S201120"	"Response_Selection"	"RIGHT"	"RIGHT"	246.889400000043	1416.6666695	n/a	n/a	n/a	n/a	n/a	n/a	n/a	"2020-11-20 13:38:37.177736"	"2020-11-20 13:38:37.633398"	33	2.98520288333333
"S201120"	"Response_Selection"	"LEFT"	"LEFT"	336.749699999984	550.0000011	n/a	n/a	n/a	n/a	n/a	n/a	n/a	"2020-11-20 13:38:38.192004"	"2020-11-20 13:38:38.737545"	34	2.98520288333333
"S201120"	"Response_Selection"	"LEFT"	"LEFT"	314.735299999995	1300.0000026	n/a	n/a	n/a	n/a	n/a	n/a	n/a	"2020-11-20 13:38:40.045809"	"2020-11-20 13:38:40.568234"	35	2.98520288333333
"S201120"	"Response_Selection"	"LEFT"	"LEFT"	323.266100000012	1316.6666693	n/a	n/a	n/a	n/a	n/a	n/a	n/a	"2020-11-20 13:38:41.893732"	"2020-11-20 13:38:42.425316"	36	2.98520288333333
"S201120"	"Response_Selection"	"RIGHT"	"RIGHT"	285.360900000001	633.3333346	n/a	n/a	n/a	n/a	n/a	n/a	n/a	"2020-11-20 13:38:43.067904"	"2020-11-20 13:38:43.560628"	37	2.98520288333333
"S201120"	"Response_Selection"	"LEFT"	"LEFT"	262.796700000024	1416.6666695	n/a	n/a	n/a	n/a	n/a	n/a	n/a	"2020-11-20 13:38:44.985569"	"2020-11-20 13:38:45.455885"	38	2.98520288333333
"S201120"	"Response_Selection"	"LEFT"	"LEFT"	320.387700000026	1400.0000028	n/a	n/a	n/a	n/a	n/a	n/a	n/a	"2020-11-20 13:38:46.864314"	"2020-11-20 13:38:47.393235"	39	2.98520288333333
"S201120"	"Response_Selection"	"RIGHT"	"RIGHT"	230.10469999997	1216.6666691	n/a	n/a	n/a	n/a	n/a	n/a	n/a	"2020-11-20 13:38:48.618177"	"2020-11-20 13:38:49.057255"	40	2.98520288333333
"S201120"	"Response_Selection"	"RIGHT"	"RIGHT"	263.097300000027	1200.0000024	n/a	n/a	n/a	n/a	n/a	n/a	n/a	"2020-11-20 13:38:50.265894"	"2020-11-20 13:38:50.736861"	41	2.98520288333333
"S201120"	"Response_Selection"	"LEFT"	"LEFT"	271.394500000042	1200.0000024	n/a	n/a	n/a	n/a	n/a	n/a	n/a	"2020-11-20 13:38:51.945211"	"2020-11-20 13:38:52.425578"	42	2.98520288333333
"S201120"	"Response_Selection"	"LEFT"	"LEFT"	275.163500000019	1450.0000029	n/a	n/a	n/a	n/a	n/a	n/a	n/a	"2020-11-20 13:38:53.885594"	"2020-11-20 13:38:54.367870"	43	2.98520288333333
"S201120"	"Response_Selection"	"RIGHT"	"RIGHT"	305.09939999996	783.3333349	n/a	n/a	n/a	n/a	n/a	n/a	n/a	"2020-11-20 13:38:55.159362"	"2020-11-20 13:38:55.672623"	44	2.98520288333333
"S201120"	"Response_Selection"	"RIGHT"	"RIGHT"	276.21240000002	1083.3333355	n/a	n/a	n/a	n/a	n/a	n/a	n/a	"2020-11-20 13:38:56.764792"	"2020-11-20 13:38:57.249105"	45	2.98520288333333
"S201120"	"Response_Selection"	"RIGHT"	"RIGHT"	266.741699999955	1316.6666693	n/a	n/a	n/a	n/a	n/a	n/a	n/a	"2020-11-20 13:38:58.574511"	"2020-11-20 13:38:59.049085"	46	2.98520288333333
"S201120"	"Response_Selection"	"RIGHT"	"RIGHT"	273.840599999971	1133.3333356	n/a	n/a	n/a	n/a	n/a	n/a	n/a	"2020-11-20 13:39:00.191101"	"2020-11-20 13:39:00.673348"	47	2.98520288333333
"S201120"	"Response_Selection"	"LEFT"	"LEFT"	285.206300000027	1250.0000025	n/a	n/a	n/a	n/a	n/a	n/a	n/a	"2020-11-20 13:39:01.931661"	"2020-11-20 13:39:02.425126"	48	2.98520288333333
"S201120"	"Response_Selection"	"RIGHT"	"RIGHT"	252.500200000043	1250.0000025	n/a	n/a	n/a	n/a	n/a	n/a	n/a	"2020-11-20 13:39:03.684693"	"2020-11-20 13:39:04.145456"	49	2.98520288333333
"S201120"	"Response_Selection"	"LEFT"	"LEFT"	333.594500000004	633.3333346	n/a	n/a	n/a	n/a	n/a	n/a	n/a	"2020-11-20 13:39:04.786804"	"2020-11-20 13:39:05.329211"	50	2.98520288333333
"S201120"	"Response_Selection"	"RIGHT"	"RIGHT"	237.089900000001	1450.0000029	n/a	n/a	n/a	n/a	n/a	n/a	n/a	"2020-11-20 13:39:06.787541"	"2020-11-20 13:39:07.233382"	51	2.98520288333333
"S201120"	"Response_Selection"	"RIGHT"	"RIGHT"	307.186000000002	700.0000014	n/a	n/a	n/a	n/a	n/a	n/a	n/a	"2020-11-20 13:39:07.941672"	"2020-11-20 13:39:08.457398"	52	2.98520288333333
"S201120"	"Response_Selection"	"LEFT"	"LEFT"	318.321099999991	1016.6666687	n/a	n/a	n/a	n/a	n/a	n/a	n/a	"2020-11-20 13:39:09.482265"	"2020-11-20 13:39:10.008884"	53	2.98520288333333
"S201120"	"Response_Selection"	"RIGHT"	"RIGHT"	245.795600000008	833.333335	n/a	n/a	n/a	n/a	n/a	n/a	n/a	"2020-11-20 13:39:10.851226"	"2020-11-20 13:39:11.304277"	54	2.98520288333333
"S201120"	"Response_Selection"	"RIGHT"	"RIGHT"	251.340500000026	1116.6666689	n/a	n/a	n/a	n/a	n/a	n/a	n/a	"2020-11-20 13:39:12.429525"	"2020-11-20 13:39:12.889283"	55	2.98520288333333
"S201120"	"Response_Selection"	"LEFT"	"LEFT"	314.900299999977	500.000001	n/a	n/a	n/a	n/a	n/a	n/a	n/a	"2020-11-20 13:39:13.397503"	"2020-11-20 13:39:13.919771"	56	2.98520288333333
"S201120"	"Response_Selection"	"LEFT"	"LEFT"	347.792700000014	916.6666685	n/a	n/a	n/a	n/a	n/a	n/a	n/a	"2020-11-20 13:39:14.844967"	"2020-11-20 13:39:15.401148"	57	2.98520288333333
"S201120"	"Response_Selection"	"LEFT"	"LEFT"	307.964900000002	883.3333351	n/a	n/a	n/a	n/a	n/a	n/a	n/a	"2020-11-20 13:39:16.293204"	"2020-11-20 13:39:16.809524"	58	2.98520288333333
"S201120"	"Response_Selection"	"LEFT"	"LEFT"	303.490099999976	983.3333353	n/a	n/a	n/a	n/a	n/a	n/a	n/a	"2020-11-20 13:39:17.801148"	"2020-11-20 13:39:18.311815"	59	2.98520288333333
"S201120"	"Response_Selection"	"LEFT"	"LEFT"	313.636299999985	1366.6666694	n/a	n/a	n/a	n/a	n/a	n/a	n/a	"2020-11-20 13:39:19.687418"	"2020-11-20 13:39:20.208385"	60	2.98520288333333
"S201120"	"Response_Selection"	"LEFT"	"LEFT"	313.509400000044	1350.0000027	n/a	n/a	n/a	n/a	n/a	n/a	n/a	"2020-11-20 13:39:21.567331"	"2020-11-20 13:39:22.087941"	61	2.98520288333333
"S201120"	"Response_Selection"	"LEFT"	"LEFT"	273.232000000007	1133.3333356	n/a	n/a	n/a	n/a	n/a	n/a	n/a	"2020-11-20 13:39:23.231891"	"2020-11-20 13:39:23.712910"	62	2.98520288333333
"S201120"	"Response_Selection"	"RIGHT"	"RIGHT"	252.156100000036	1066.6666688	n/a	n/a	n/a	n/a	n/a	n/a	n/a	"2020-11-20 13:39:24.789042"	"2020-11-20 13:39:25.248721"	63	2.98520288333333
"S201120"	"Response_Selection"	"RIGHT"	"RIGHT"	283.401099999992	500.000001	n/a	n/a	n/a	n/a	n/a	n/a	n/a	"2020-11-20 13:39:25.757359"	"2020-11-20 13:39:26.248244"	64	2.98520288333333
"S201120"	"Response_Selection"	"LEFT"	"LEFT"	316.463499999998	700.0000014	n/a	n/a	n/a	n/a	n/a	n/a	n/a	"2020-11-20 13:39:26.956716"	"2020-11-20 13:39:27.481310"	65	2.98520288333333
"S201120"	"Response_Selection"	"LEFT"	"LEFT"	290.395200000034	1116.6666689	n/a	n/a	n/a	n/a	n/a	n/a	n/a	"2020-11-20 13:39:28.606798"	"2020-11-20 13:39:29.105464"	66	2.98520288333333
"S201120"	"Response_Selection"	"LEFT"	"LEFT"	284.754700000008	650.0000013	n/a	n/a	n/a	n/a	n/a	n/a	n/a	"2020-11-20 13:39:29.763494"	"2020-11-20 13:39:30.256610"	67	2.98520288333333
"S201120"	"Response_Selection"	"RIGHT"	"RIGHT"	268.896499999983	1466.6666696	n/a	n/a	n/a	n/a	n/a	n/a	n/a	"2020-11-20 13:39:31.731569"	"2020-11-20 13:39:32.209359"	68	2.98520288333333
"S201120"	"Response_Selection"	"RIGHT"	"RIGHT"	281.729000000041	733.3333348	n/a	n/a	n/a	n/a	n/a	n/a	n/a	"2020-11-20 13:39:32.950916"	"2020-11-20 13:39:33.441212"	69	2.98520288333333
"S201120"	"Response_Selection"	"LEFT"	"LEFT"	267.917899999986	833.333335	n/a	n/a	n/a	n/a	n/a	n/a	n/a	"2020-11-20 13:39:34.284750"	"2020-11-20 13:39:34.761526"	70	2.98520288333333
"S201120"	"Response_Selection"	"RIGHT"	"RIGHT"	247.375800000043	983.3333353	n/a	n/a	n/a	n/a	n/a	n/a	n/a	"2020-11-20 13:39:35.752984"	"2020-11-20 13:39:36.208097"	71	2.98520288333333
"S201120"	"Response_Selection"	"RIGHT"	"RIGHT"	283.76350000002	1500.000003	n/a	n/a	n/a	n/a	n/a	n/a	n/a	"2020-11-20 13:39:37.716426"	"2020-11-20 13:39:38.209107"	72	2.98520288333333
"S201120"	"Response_Selection"	"LEFT"	"LEFT"	245.840700000031	1033.3333354	n/a	n/a	n/a	n/a	n/a	n/a	n/a	"2020-11-20 13:39:39.251224"	"2020-11-20 13:39:39.705161"	73	2.98520288333333
"S201120"	"Response_Selection"	"RIGHT"	"RIGHT"	233.867099999998	916.6666685	n/a	n/a	n/a	n/a	n/a	n/a	n/a	"2020-11-20 13:39:40.631344"	"2020-11-20 13:39:41.073149"	74	2.98520288333333
"S201120"	"Response_Selection"	"RIGHT"	"RIGHT"	273.969100000045	1300.0000026	n/a	n/a	n/a	n/a	n/a	n/a	n/a	"2020-11-20 13:39:42.382936"	"2020-11-20 13:39:42.863717"	75	2.98520288333333
"S201120"	"Response_Selection"	"LEFT"	"LEFT"	252.473699999996	1500.000003	n/a	n/a	n/a	n/a	n/a	n/a	n/a	"2020-11-20 13:39:44.372551"	"2020-11-20 13:39:44.832921"	76	2.98520288333333
"S201120"	"Response_Selection"	"RIGHT"	"RIGHT"	304.742799999985	550.0000011	n/a	n/a	n/a	n/a	n/a	n/a	n/a	"2020-11-20 13:39:45.391445"	"2020-11-20 13:39:45.904942"	77	2.98520288333333
"S201120"	"Response_Selection"	"RIGHT"	"RIGHT"	285.521700000004	650.0000013	n/a	n/a	n/a	n/a	n/a	n/a	n/a	"2020-11-20 13:39:46.563057"	"2020-11-20 13:39:47.055778"	78	2.98520288333333
"S201120"	"Response_Selection"	"RIGHT"	"RIGHT"	281.845700000019	1166.666669	n/a	n/a	n/a	n/a	n/a	n/a	n/a	"2020-11-20 13:39:48.230458"	"2020-11-20 13:39:48.721126"	79	2.98520288333333
"S201120"	"Response_Selection"	"RIGHT"	"RIGHT"	277.704999999969	1033.3333354	n/a	n/a	n/a	n/a	n/a	n/a	n/a	"2020-11-20 13:39:49.763303"	"2020-11-20 13:39:50.249584"	80	2.98520288333333
