index	Trial_Type	Participant_ID	Trial_Probability	Question_Position_Prediction_Correct	Question_Position_Prediction_Agent	Question_Position_Comparison_Self	Question_Position_Comparison_Irrelevant	Trial_Stake	Trial_Stake_Jitter	Trial_Type_Jitter	Trial_Result_Jitter	Balance_Update_Jitter	Question_Comparison_Condition	Question_Comparison_Type	Question_Comparison_Question	Question_Comparison_Label	Question_Comparison_Item	Question_Comparison_Proportion_Yes	Question_Factual_Condition	Question_Factual_Item	Question_Factual_Question	Question_Factual_Label	Question_Factual_Proportion_DontKnow	Question_Factual_Type	Answer_Prediction_Correct	Answer_Prediction_Correct_RT	Answer_Prediction_Agent	Answer_Prediction_Agent_RT	Answer_Self	Answer_Self_RT	Answer_Irrelevant	Answer_Irrelevant_RT	Trial_Balance	Trial_Balance_Effect	Trial_Condition	Trial_ProbableSide	Prediction_Choice	Prediction_Result	Prediction_RT	Trial_Order	Trial_Datetime
131	Computer	S201120	0.8333333333333334	1	2	1	2	0.3	1500.000003	1000.000002	1500.000003	2216.6666711000003	Major	Good_deeds	27	You have taken months off to volunteer	C2_27	0.95	Hard	I2_16	24	Earth's atmosphere extends up to 10,000km into space	0.0555555555555556	Yes	LEFT	807.6733999999988	LEFT	705.7950999999321	RIGHT	1353.3464000000777	RIGHT	1111.652900000081	10.0	0.3	Probable_Lie	LEFT	RIGHT	1	807.0421023693646	0	2020-11-20 14:10:55.662300
133	Computer	S201120	0.8333333333333334	1	2	2	1	0.4	1433.3333362	1150.0000023	2216.6666711000003	1783.3333369	Major	Wrong_doings	56	You have switched off appliances when not in use	C1_29	0.8	Easy	I1_47	22	Fishes can swim in water	0.0555555555555556	Yes	RIGHT	886.0012999999753	LEFT	656.3955000000306	RIGHT	1344.6615000000293	RIGHT	996.8718999999736	10.0	0.4	Probable_Truth	RIGHT	RIGHT	3	959.3545389848952	1	2020-11-20 14:11:19.662381
97	Computer	S201120	0.5	1	2	1	2	0.1	1500.000003	1066.6666688	1650.0000033	2066.6666708	Minor	Wrong_doings	42	You have been restricting your electricity consumption	C2_42	1.0	Easy	I2_50	52	Summer is hotter than winter	0.0555555555555556	Yes	LEFT	556.544600000052	LEFT	519.6634999999787	RIGHT	1348.1647000000976	RIGHT	1454.644099999996	10.0	0.1	Probable_Lie	LEFT	LEFT	6	569.9217975691621	2	2020-11-20 14:11:42.966614
64	Self	S201120	0.6666666666666666	1	2	1	2	0.1	1216.6666691	1216.6666691	2066.6666708	2350.0000047	Minor	Good_deeds	16	You have helped with household chores	C2_52	0.0	Easy	I1_2	38	Chickens lay eggs	0.833333333333333	No	LEFT	829.8816999999872	RIGHT	518.581499999982	RIGHT	992.342800000074	RIGHT	897.1255999999812	9.9	0.1	Probable_Lie	LEFT	LEFT	6	911.9213000000173	3	2020-11-20 14:12:06.542156
140	Computer	S201120	0.8333333333333334	2	1	2	1	0.6	1350.0000027	1283.3333359	1500.000003	1500.000003	Major	Good_deeds	1	You have donated blood every 6 months for many years	C1_22	0.1	Hard	I2_46	54	A triangle has three sides	0.0555555555555556	Yes	RIGHT	479.7185999999556	LEFT	1233.6887999999817	RIGHT	1223.259999999982	RIGHT	998.3581000000186	9.9	0.6	Probable_Truth	LEFT	LEFT	1	562.0880917701626	4	2020-11-20 14:12:29.247114
122	Computer	S201120	0.6666666666666666	2	1	1	2	0.4	1350.0000027	1433.3333362	2066.6666708	2216.6666711000003	Minor	Good_deeds	15	You have provided shelter for stray animals	C2_8	0.0	Hard	I1_9	25	The human's inner ear is larger than a pencil eraser	0.0	No	RIGHT	423.8565999999082	LEFT	855.5566999999655	RIGHT	1025.1488000000109	RIGHT	2047.6872000000408	9.9	0.4	Probable_Truth	RIGHT	RIGHT	5	856.1288731357392	5	2020-11-20 14:12:54.085723
45	Self	S201120	0.8333333333333334	2	1	2	1	0.4	1000.000002	1283.3333359	1933.3333372	2500.000005	Major	Wrong_doings	50	You have helped your parents when asked to	C2_34	0.65	Easy	I2_55	29	The first Grammy awards was held in 1959	0.888888888888889	Yes	RIGHT	631.8681000000197	RIGHT	595.6817999999657	RIGHT	976.7858999999816	RIGHT	1020.0065000000222	10.3	0.4	Probable_Truth	LEFT	LEFT	1	670.9610999999995	6	2020-11-20 14:13:17.270306
17	Self	S201120	0.6666666666666666	1	2	1	2	0.5	1216.6666691	1000.000002	1500.000003	2500.000005	Minor	Wrong_doings	50	You have helped others to pick up their belongings	C1_9	0.0	Hard	I2_24	54	North Korea is more developed than South Korea	0.944444444444444	Yes	RIGHT	717.6593000000366	RIGHT	560.9223999999813	RIGHT	1036.737700000003	LEFT	1510.6251999999358	10.8	0.5	Probable_Truth	LEFT	LEFT	1	768.9143000000058	7	2020-11-20 14:13:40.654574
22	Self	S201120	0.6666666666666666	1	2	2	1	0.6	1350.0000027	1283.3333359	2350.0000047	2350.0000047	Major	Good_deeds	43	You have failed to keep promises	C2_28	0.85	Hard	I1_57	59	Bears have the biggest eyes among mammals	0.0555555555555556	No	RIGHT	587.0948000000453	RIGHT	856.0308999999506	LEFT	1391.4857999999413	RIGHT	1265.737999999942	11.4	0.6	Probable_Truth	RIGHT	RIGHT	3	864.0843000000586	8	2020-11-20 14:14:05.526920
42	Self	S201120	0.8333333333333334	2	1	1	2	0.2	1350.0000027	1000.000002	2216.6666711000003	1500.000003	Minor	Good_deeds	36	You have stopped using products tested on animals	C1_37	0.1	Hard	I1_21	21	Christmas Day is in March	0.944444444444444	Yes	RIGHT	655.8566999999584	RIGHT	599.7164000000339	RIGHT	1669.374199999993	LEFT	1223.4998999999789	11.6	0.2	Probable_Truth	LEFT	LEFT	1	748.9078000000973	9	2020-11-20 14:14:29.061777
127	Computer	S201120	0.6666666666666666	2	1	2	1	0.8	1216.6666691	1066.6666688	1500.000003	2350.0000047	Major	Good_deeds	42	You have kept your promises	C1_33	1.0	Hard	I2_25	27	A caterpillar has more muscle than a human	0.666666666666667	No	RIGHT	744.6055999999999	LEFT	691.4719000000105	RIGHT	832.1776999999884	RIGHT	1963.761700000077	11.6	0.8	Probable_Truth	LEFT	LEFT	2	713.9079542118212	10	2020-11-20 14:14:52.710941
134	Computer	S201120	0.8333333333333334	1	2	2	1	0.5	1150.0000023	1500.000003	2066.6666708	2350.0000047	Minor	Wrong_doings	35	You have made someone cry	C1_45	0.0	Easy	I2_22	37	Milwaukee Art Museum is located in California	0.0	No	RIGHT	798.80890000004	LEFT	672.2284999999601	LEFT	1143.4628000000655	RIGHT	1440.253900000016	11.6	0.5	Probable_Truth	LEFT	LEFT	1	519.7898415002928	11	2020-11-20 14:15:16.925946
14	Self	S201120	0.5	2	1	2	1	0.3	1500.000003	1500.000003	1933.3333372	2500.000005	Minor	Good_deeds	57	You have borrowed things and never returned	C1_19	0.7	Hard	I2_12	18	Fibers in oranges can be used to make fabric	0.0	Yes	RIGHT	536.021699999992	RIGHT	674.7362999999496	LEFT	1416.6004999999586	RIGHT	1406.6561000000777	11.9	0.3	Probable_Truth	LEFT	RIGHT	5	2103.790199999935	12	2020-11-20 14:15:43.071034
60	Self	S201120	0.5	2	1	2	1	0.6	1500.000003	1283.3333359	1500.000003	2216.6666711000003	Major	Good_deeds	43	You have eaten something in the MRT train	C2_25	0.95	Hard	I2_53	26	Marijuana is legal in Singapore	0.0	Yes	RIGHT	688.9636000000792	RIGHT	507.9494999999952	LEFT	1567.5531000000549	LEFT	2393.1162000000086	12.5	0.6	Probable_Truth	LEFT	RIGHT	6	1609.7111000000268	13	2020-11-20 14:16:08.910518
4	Self	S201120	0.5	1	2	2	1	0.7	1350.0000027	1283.3333359	1650.0000033	2350.0000047	Minor	Wrong_doings	59	You have illegally stayed in a country	C1_60	0.45	Easy	I1_45	25	It sometimes snows in Singapore	0.0555555555555556	No	RIGHT	583.1914999999981	RIGHT	631.0401000000638	LEFT	1247.2556999999824	LEFT	1299.881400000004	13.2	0.7	Probable_Truth	LEFT	RIGHT	5	2079.3080000000828	14	2020-11-20 14:16:33.958948
85	Self	S201120	0.8333333333333334	1	2	2	1	0.4	1066.6666688	1066.6666688	1783.3333369	2350.0000047	Major	Good_deeds	49	You have extorted money from anyone	C1_40	0.05	Easy	I1_36	36	Nomophobia is the fear of being without a phone or computer	0.888888888888889	Yes	RIGHT	688.9166999999361	RIGHT	528.8736999999628	LEFT	1184.670600000004	RIGHT	2501.4363999999887	13.6	0.4	Probable_Truth	RIGHT	RIGHT	3	776.6106000000264	15	2020-11-20 14:16:58.478263
90	Self	S201120	0.8333333333333334	2	1	1	2	0.8	1216.6666691	1283.3333359	1650.0000033	2216.6666711000003	Minor	Wrong_doings	19	You have lost everything just to help others	C2_2	0.0	Hard	I2_43	32	Today is a weekday	0.888888888888889	No	RIGHT	1409.1164000000165	RIGHT	680.814899999973	LEFT	2657.615599999985	RIGHT	1304.1620000000194	14.4	0.8	Probable_Truth	LEFT	LEFT	1	804.4315000000779	16	2020-11-20 14:17:24.270678
115	Computer	S201120	0.6666666666666666	1	2	1	2	0.2	1216.6666691	1000.000002	2350.0000047	2350.0000047	Minor	Wrong_doings	7	You have stolen something	C1_7	1.0	Easy	I2_40	28	Vegetarians can eat vegetable products	0.944444444444444	Yes	LEFT	636.6592000000537	LEFT	567.6181999999699	LEFT	816.9768000000204	RIGHT	2448.4948000000486	14.4	0.2	Probable_Truth	LEFT	RIGHT	3	764.2519478042689	17	2020-11-20 14:17:48.997622
29	Self	S201120	0.6666666666666666	2	1	2	1	0.2	1000.000002	1500.000003	1650.0000033	2350.0000047	Minor	Wrong_doings	20	You have watched a pirated movie	C2_20	0.2	Easy	I2_33	3	Singapore is a country	0.0	Yes	LEFT	552.4523999999928	RIGHT	823.1445999999778	LEFT	1463.4376000000202	RIGHT	1147.2422999999026	14.2	0.2	Probable_Lie	LEFT	LEFT	5	974.9782999999752	18	2020-11-20 14:18:13.030547
7	Self	S201120	0.5	1	2	2	1	0.6	1500.000003	1433.3333362	1933.3333372	2066.6666708	Major	Good_deeds	60	You have engaged in money laundering	C1_46	0.0	Hard	I2_2	45	Brazil is in South America	0.833333333333333	No	LEFT	1381.7814000000226	RIGHT	655.0536000000875	LEFT	1103.557099999989	RIGHT	1800.6909000000633	13.6	0.6	Probable_Lie	RIGHT	RIGHT	1	1193.791000000033	19	2020-11-20 14:18:38.670305
112	Computer	S201120	0.6666666666666666	1	2	1	2	0.8	1500.000003	1500.000003	2216.6666711000003	1650.0000033	Major	Wrong_doings	35	You have engaged in underage smoking	C2_50	1.0	Easy	I2_59	40	Septicemia is a lung infection condition	0.0	No	RIGHT	606.5710999999965	LEFT	600.3160000000207	LEFT	1167.6724999999806	RIGHT	1815.8447999999223	13.6	0.8	Probable_Truth	RIGHT	RIGHT	5	554.8269863068654	20	2020-11-20 14:19:02.846232
36	Self	S201120	0.8333333333333334	1	2	2	1	0.1	1150.0000023	1066.6666688	2500.000005	1500.000003	Minor	Good_deeds	29	You have volunteered every week for many years	C1_17	0.0	Hard	I1_37	4	The Earth turns the closest to the sun in May	0.666666666666667	No	RIGHT	565.9110999999939	RIGHT	480.2239999999074	RIGHT	1206.479100000024	RIGHT	2207.505000000083	13.7	0.1	Probable_Lie	LEFT	LEFT	2	620.5706999999165	21	2020-11-20 14:19:26.718367
99	Computer	S201120	0.5	1	2	1	2	0.2	1150.0000023	1433.3333362	1783.3333369	1783.3333369	Minor	Wrong_doings	20	You have given way to the handicapped	C2_18	0.5	Hard	I2_21	21	Afghan Hound is the first cloned cat	0.944444444444444	Yes	RIGHT	543.830799999796	LEFT	407.2813000000224	RIGHT	1138.4619000000384	RIGHT	1647.1690999999282	13.7	0.2	Probable_Truth	RIGHT	LEFT	3	962.380183099513	22	2020-11-20 14:19:50.142769
83	Self	S201120	0.8333333333333334	1	2	1	2	0.1	1216.6666691	1433.3333362	1500.000003	2500.000005	Minor	Wrong_doings	58	You have stopped using plastics completely	C1_49	0.85	Hard	I2_39	23	China is a part of Asia	0.166666666666667	No	RIGHT	474.5666999999685	RIGHT	494.7773999999754	RIGHT	1780.3172999999788	RIGHT	1240.2693999999883	13.8	0.1	Probable_Truth	RIGHT	RIGHT	2	760.0598999999875	23	2020-11-20 14:20:14.118687
47	Self	S201120	0.8333333333333334	2	1	2	1	0.7	1500.000003	1500.000003	2066.6666708	1650.0000033	Minor	Wrong_doings	17	You have made counterfeit money	C2_36	0.55	Easy	I1_31	31	The Franco-Prussian War occurred in the 19th century	0.833333333333333	Yes	RIGHT	527.1284000000378	RIGHT	429.366200000004	LEFT	1151.3254999999845	RIGHT	1344.5140999999694	14.5	0.7	Probable_Truth	LEFT	LEFT	1	671.1877000000186	24	2020-11-20 14:20:37.533672
69	Self	S201120	0.6666666666666666	1	2	2	1	0.5	1500.000003	1000.000002	2350.0000047	2216.6666711000003	Minor	Wrong_doings	31	You have faked an illness	C1_4	0.0	Easy	I1_38	5	It is snowing outside now	0.0	No	LEFT	3219.668400000046	RIGHT	665.4129999999441	LEFT	1087.452699999858	LEFT	1001.1545000002116	14.0	0.5	Probable_Lie	RIGHT	RIGHT	2	817.409600000019	25	2020-11-20 14:21:03.966967
35	Self	S201120	0.8333333333333334	1	2	1	2	0.4	1433.3333362	1433.3333362	2350.0000047	1783.3333369	Major	Good_deeds	27	You have taken months off to volunteer	C2_27	0.95	Hard	I2_16	24	Earth's atmosphere extends up to 10,000km into space	0.0555555555555556	Yes	RIGHT	986.8702000001122	RIGHT	624.7192000000723	RIGHT	1563.1920999999238	RIGHT	1166.8225999999322	14.4	0.4	Probable_Truth	RIGHT	RIGHT	2	725.2117000000453	26	2020-11-20 14:21:28.607087
46	Self	S201120	0.8333333333333334	2	1	2	1	0.5	1216.6666691	1433.3333362	1650.0000033	2066.6666708	Minor	Wrong_doings	22	You have given up your seat in the MRT	C1_50	1.0	Easy	I2_49	49	Last day of the year is 30th December	0.0	No	RIGHT	511.9218999998338	RIGHT	512.1877999999924	RIGHT	1056.177899999966	LEFT	2431.608200000028	14.9	0.5	Probable_Truth	RIGHT	RIGHT	5	715.2194000000236	27	2020-11-20 14:21:52.774164
91	Self	S201120	0.8333333333333334	2	1	1	2	0.2	1350.0000027	1350.0000027	1500.000003	1933.3333372	Minor	Good_deeds	12	You have drunk alcohol when you were underage	C2_54	0.0	Easy	I2_36	10	R. Amundsen discovered the South Pole	0.611111111111111	Yes	LEFT	584.5498999999563	RIGHT	963.6778000001414	LEFT	1569.4530000000668	RIGHT	1710.5193999998392	14.7	0.2	Probable_Lie	RIGHT	RIGHT	1	613.1703000000925	28	2020-11-20 14:22:16.927018
55	Self	S201120	0.5	1	2	2	1	0.1	1150.0000023	1283.3333359	1650.0000033	1650.0000033	Minor	Wrong_doings	6	You have been donating all your excess food to a food bank	C1_23	0.0	Hard	I2_44	8	There are 10 continents in the World	0.764705882352941	Yes	RIGHT	709.0485000001081	RIGHT	903.525499999887	RIGHT	2342.5534999998945	LEFT	1221.6118999999708	14.8	0.1	Probable_Truth	RIGHT	RIGHT	4	1853.109899999936	29	2020-11-20 14:22:42.269734
120	Computer	S201120	0.6666666666666666	2	1	1	2	0.2	1500.000003	1350.0000027	2216.6666711000003	1650.0000033	Major	Wrong_doings	24	You have let a homeless man into your house	C1_24	0.85	Easy	I2_27	33	Singapore is in Africa	0.722222222222222	No	LEFT	648.9180000000943	LEFT	740.0024999999459	RIGHT	2116.652800000111	LEFT	1040.008299999954	14.8	0.2	Probable_Lie	LEFT	RIGHT	1	760.3431509869794	30	2020-11-20 14:23:06.869366
15	Self	S201120	0.5	2	1	2	1	0.2	1216.6666691	1216.6666691	2066.6666708	2216.6666711000003	Minor	Wrong_doings	30	You have kidnapped someone	C1_57	0.0	Hard	I2_18	14	It takes 112 years to build the Pisa Tower	0.611111111111111	Yes	RIGHT	576.7116000001806	RIGHT	886.0829999998714	LEFT	807.6293000001442	RIGHT	2177.9129000001376	15.0	0.2	Probable_Lie	RIGHT	LEFT	4	1319.7393000000377	31	2020-11-20 14:23:31.926322
13	Self	S201120	0.5	2	1	2	1	0.8	1350.0000027	1066.6666688	1783.3333369	1933.3333372	Major	Wrong_doings	47	You have confessed to your mistake	C2_47	0.25	Hard	I1_52	48	December is the last month of the year	1.0	No	RIGHT	2503.8465000000087	RIGHT	1881.552000000056	RIGHT	1279.7072999999273	RIGHT	1300.3267000001415	15.8	0.8	Probable_Lie	RIGHT	RIGHT	3	1357.7490000000123	32	2020-11-20 14:23:58.957836
102	Computer	S201120	0.5	1	2	2	1	0.4	1350.0000027	1150.0000023	2216.6666711000003	2350.0000047	Minor	Good_deeds	46	You have returned your trays in food courts	C1_20	1.0	Hard	I1_25	11	South East Asia is currently free from polio	0.777777777777778	Yes	RIGHT	714.3928999998934	LEFT	697.3141000000851	RIGHT	1391.160500000069	LEFT	3653.267400000004	15.8	0.4	Probable_Truth	LEFT	RIGHT	4	769.4053280075196	33	2020-11-20 14:24:25.813635
51	Self	S201120	0.5	1	2	1	2	0.4	1216.6666691	1433.3333362	2350.0000047	1500.000003	Major	Good_deeds	23	You have complimented others for good work	C2_38	0.65	Easy	I1_48	46	Saturn's rings are between 30 and 300 feet thick	0.833333333333333	Yes	RIGHT	561.9336999998268	RIGHT	751.7486000001554	RIGHT	1143.4019999999236	RIGHT	2095.384700000068	16.2	0.4	Probable_Truth	LEFT	RIGHT	4	1667.7164000000175	34	2020-11-20 14:24:51.109455
78	Self	S201120	0.6666666666666666	2	1	2	1	0.6	1216.6666691	1283.3333359	1650.0000033	2500.000005	Minor	Wrong_doings	37	You have been sued	C2_48	0.65	Easy	I2_58	58	Teddy Roosevelt was the youngest US President	0.722222222222222	No	RIGHT	695.6079999999929	RIGHT	543.8454000000092	LEFT	991.653000000042	RIGHT	1930.7689999998277	16.8	0.6	Probable_Lie	LEFT	LEFT	3	886.2457000000177	35	2020-11-20 14:25:15.382832
117	Computer	S201120	0.6666666666666666	1	2	2	1	0.1	1066.6666688	1433.3333362	1783.3333369	1500.000003	Minor	Good_deeds	28	You have started a hotline for victims of bully	C2_43	0.05	Easy	I1_1	24	Today is Sunday	0.666666666666667	Yes	LEFT	750.420399999939	LEFT	575.7933999998386	RIGHT	2311.676499999976	LEFT	943.2865999999648	16.8	0.1	Probable_Truth	LEFT	RIGHT	3	884.6215386776767	36	2020-11-20 14:25:39.198637
111	Computer	S201120	0.5	2	1	2	1	0.5	1066.6666688	1500.000003	2500.000005	2500.000005	Minor	Wrong_doings	30	You have kidnapped someone	C1_57	0.0	Hard	I2_18	14	It takes 112 years to build the Pisa Tower	0.611111111111111	Yes	RIGHT	872.5014000001465	LEFT	1549.821399999928	LEFT	896.9955999998547	RIGHT	997.8329999999004	16.8	0.5	Probable_Lie	RIGHT	LEFT	5	519.4315394691781	37	2020-11-20 14:26:04.167207
95	Self	S201120	0.8333333333333334	2	1	2	1	0.3	1000.000002	1066.6666688	1933.3333372	1650.0000033	Minor	Wrong_doings	3	You have engaged in arson	C2_33	0.55	Easy	I1_60	36	There are 30 hours in a day	0.0	Yes	RIGHT	608.1103000001349	RIGHT	444.90620000010495	LEFT	1152.7710999998817	LEFT	1054.5269000001554	17.1	0.3	Probable_Truth	LEFT	LEFT	1	803.9496999999756	38	2020-11-20 14:26:26.453405
116	Computer	S201120	0.6666666666666666	1	2	2	1	0.4	1283.3333359	1350.0000027	2500.000005	2500.000005	Major	Good_deeds	7	You have been physically hurt to protect others	C1_35	0.65	Hard	I1_28	28	The Seine river is 50 feet above sea level	0.0	No	RIGHT	721.7908999998599	LEFT	465.0105999999141	Time_Max_Exceeded	5000.245100000029	RIGHT	1574.275299999954	17.1	0.4	Probable_Truth	RIGHT	RIGHT	5	946.3634145138774	39	2020-11-20 14:26:55.368281
18	Self	S201120	0.6666666666666666	1	2	1	2	0.7	1500.000003	1500.000003	2066.6666708	1500.000003	Major	Wrong_doings	51	You have cheated on a national exam	C1_51	0.45	Hard	I1_54	1	The current century is 21st	0.0	Yes	RIGHT	325.3552999999556	RIGHT	552.3044000001391	LEFT	915.54270000006	RIGHT	1152.668400000039	17.8	0.7	Probable_Truth	LEFT	LEFT	1	709.8453999999492	40	2020-11-20 14:27:18.165768
33	Self	S201120	0.8333333333333334	1	2	1	2	0.6	1283.3333359	1150.0000023	1783.3333369	1650.0000033	Minor	Wrong_doings	39	You have organized a violent protest	C2_10	0.05	Hard	I1_24	47	Penguin can fly with their wings	0.0555555555555556	Yes	RIGHT	425.8370999998533	RIGHT	832.4701999999888	LEFT	901.073600000018	LEFT	1257.0433999999295	18.4	0.6	Probable_Truth	LEFT	LEFT	1	621.7870000000403	41	2020-11-20 14:27:40.647160
124	Computer	S201120	0.6666666666666666	2	1	2	1	0.5	1150.0000023	1500.000003	1783.3333369	2066.6666708	Major	Good_deeds	33	You have coveted things that belong to others	C2_40	0.05	Hard	I2_3	4	Mozambique is the world's poorest country	0.0	Yes	LEFT	440.1981000000888	LEFT	561.6322999999284	LEFT	1095.620700000154	RIGHT	1102.7685999999903	18.4	0.5	Probable_Lie	RIGHT	LEFT	4	629.9904752912832	42	2020-11-20 14:28:03.550322
65	Self	S201120	0.6666666666666666	1	2	1	2	0.6	1350.0000027	1350.0000027	1500.000003	1933.3333372	Minor	Wrong_doings	36	You have started a movement to support a cause	C2_14	0.7	Hard	I2_5	44	The hardest bone in human body is the jawbone	1.0	Yes	RIGHT	429.6164999998382	RIGHT	544.682499999908	RIGHT	1390.0231999998596	RIGHT	1846.535200000062	19.000000000000004	0.6	Probable_Truth	RIGHT	RIGHT	5	745.7746000000043	43	2020-11-20 14:28:27.214785
34	Self	S201120	0.8333333333333334	1	2	1	2	0.3	1500.000003	1350.0000027	2066.6666708	2350.0000047	Major	Good_deeds	45	You have told someone's secret to others	C2_56	0.15	Easy	I2_51	16	There are 6000 spoken languages in the World	0.666666666666667	No	RIGHT	454.1503999998895	RIGHT	783.8514999998552	LEFT	1354.002199999968	RIGHT	1368.6069000000316	19.300000000000004	0.3	Probable_Truth	LEFT	LEFT	1	636.1996000000545	44	2020-11-20 14:28:51.654659
92	Self	S201120	0.8333333333333334	2	1	2	1	0.5	1500.000003	1216.6666691	2350.0000047	1783.3333369	Major	Wrong_doings	33	You have bribed a police officer	C1_3	1.0	Easy	I2_60	60	Airbags in cars are filled with sodium azide	0.0	No	RIGHT	375.2294000000802	RIGHT	627.5809999999638	LEFT	848.0187999998634	RIGHT	2193.82359999986	19.800000000000004	0.5	Probable_Truth	RIGHT	RIGHT	2	667.3854000000574	45	2020-11-20 14:29:15.790586
30	Self	S201120	0.6666666666666666	2	1	2	1	0.6	1150.0000023	1150.0000023	2066.6666708	2500.000005	Minor	Good_deeds	46	You have offered a listening ear to a friend	C1_15	0.0	Easy	I1_4	42	The sun rises at night	0.0	Yes	RIGHT	560.8488000000307	RIGHT	501.4466000000084	RIGHT	1679.3186999998395	LEFT	1238.851600000089	20.40000000000001	0.6	Probable_Truth	LEFT	LEFT	2	921.8230999999832	46	2020-11-20 14:29:40.134359
76	Self	S201120	0.6666666666666666	2	1	2	1	0.2	1000.000002	1000.000002	2500.000005	1783.3333369	Major	Wrong_doings	38	You have cheated on a test	C2_37	0.95	Hard	I1_17	31	Pyramid of Giza is 468 feet tall	0.0555555555555556	No	RIGHT	792.7940000001854	RIGHT	365.2473999998165	LEFT	800.5941999999777	RIGHT	1116.6335999998864	20.600000000000005	0.2	Probable_Lie	LEFT	LEFT	3	743.7594000000445	47	2020-11-20 14:30:02.807033
73	Self	S201120	0.6666666666666666	2	1	1	2	0.7	1150.0000023	1500.000003	1500.000003	1500.000003	Major	Wrong_doings	9	You have sheltered others from disasters	C1_34	0.0	Easy	I2_56	58	Cleopatra was born in Greece	0.0	No	LEFT	1960.12450000012	RIGHT	1453.9098000000197	RIGHT	1133.5504000001038	RIGHT	2072.8277999999136	19.90000000000001	0.7	Probable_Lie	LEFT	LEFT	5	637.8881000000547	48	2020-11-20 14:32:02.126292
61	Self	S201120	0.5	2	1	2	1	0.5	1283.3333359	1500.000003	2350.0000047	1933.3333372	Major	Good_deeds	60	You have queued to enter the MRT train	C1_44	0.85	Easy	I2_13	43	Animals are living things	0.0	Yes	RIGHT	399.2020999999113	RIGHT	473.9788000001681	RIGHT	999.8143000000256	RIGHT	827.8083000000152	20.40000000000001	0.5	Probable_Truth	LEFT	RIGHT	5	1343.2463999999982	49	2020-11-20 14:32:25.815008
25	Self	S201120	0.6666666666666666	2	1	1	2	0.3	1283.3333359	1283.3333359	1500.000003	1650.0000033	Major	Wrong_doings	8	You have taken part in violent demonstration	C2_46	0.7	Easy	I1_42	9	Beef comes from cows	0.777777777777778	Yes	LEFT	559.4618000000082	RIGHT	910.104100000126	LEFT	1070.5659999998716	RIGHT	1366.6231000001972	20.100000000000005	0.3	Probable_Lie	LEFT	LEFT	6	714.6232000000055	50	2020-11-20 14:32:48.725452
37	Self	S201120	0.8333333333333334	1	2	2	1	0.2	1000.000002	1500.000003	1500.000003	2500.000005	Major	Wrong_doings	56	You have switched off appliances when not in use	C1_29	0.8	Easy	I1_47	22	Fishes can swim in water	0.0555555555555556	Yes	RIGHT	674.4633999999223	RIGHT	359.87279999994826	RIGHT	927.5982999999997	RIGHT	877.3364000001038	20.300000000000004	0.2	Probable_Truth	RIGHT	RIGHT	3	632.3276999999052	51	2020-11-20 14:33:11.277737
96	Computer	S201120	0.5	1	2	1	2	0.8	1433.3333362	1216.6666691	2350.0000047	2216.6666711000003	Major	Good_deeds	30	You have started an NGO using your savings	C2_59	0.7	Hard	I2_52	2	A square has 3 corners	0.0	No	RIGHT	730.0966000000244	LEFT	535.9914000000572	RIGHT	1760.2136999998947	LEFT	1263.4912999999417	20.300000000000004	0.8	Probable_Truth	LEFT	LEFT	2	537.6272384984461	52	2020-11-20 14:33:35.886835
109	Computer	S201120	0.5	2	1	2	1	0.1	1500.000003	1283.3333359	1500.000003	1933.3333372	Major	Wrong_doings	47	You have confessed to your mistake	C2_47	0.25	Hard	I1_52	48	December is the last month of the year	1.0	No	LEFT	680.0241000000824	LEFT	1215.7416000000012	RIGHT	1072.0010000000002	RIGHT	1093.8653999999133	20.300000000000004	0.1	Probable_Lie	LEFT	RIGHT	3	651.7340285347759	53	2020-11-20 14:33:59.381270
50	Self	S201120	0.5	1	2	1	2	0.5	1500.000003	1350.0000027	1500.000003	2350.0000047	Minor	Good_deeds	3	You have thrown your trash into the bin	C1_6	0.95	Easy	I1_27	44	There are 20 bones in the human skull	0.0555555555555556	No	RIGHT	685.4918999999882	RIGHT	528.4205000000384	RIGHT	1219.7106999999503	LEFT	1815.1408999999603	20.800000000000004	0.5	Probable_Lie	LEFT	RIGHT	1	1245.038200000181	54	2020-11-20 14:34:24.149780
68	Self	S201120	0.6666666666666666	1	2	2	1	0.4	1150.0000023	1066.6666688	2500.000005	2500.000005	Major	Good_deeds	14	You have donated a pay cheque to charity	C2_16	0.2	Easy	I1_44	38	A dog has four legs	0.611111111111111	Yes	LEFT	788.8047999999799	RIGHT	392.29119999981776	RIGHT	1504.7299000000294	RIGHT	1028.1148999999914	20.40000000000001	0.4	Probable_Lie	RIGHT	RIGHT	2	669.3170999999438	55	2020-11-20 14:34:48.327136
93	Self	S201120	0.8333333333333334	2	1	2	1	0.4	1066.6666688	1000.000002	2500.000005	2500.000005	Major	Good_deeds	59	You have gossiped about your best friend	C2_19	0.55	Hard	I2_30	8	The Eiffel Tower is in Paris	1.0	Yes	LEFT	377.81360000008135	RIGHT	813.0636999999297	LEFT	1143.2113000000754	RIGHT	1550.8781999999428	20.000000000000007	0.4	Probable_Lie	RIGHT	RIGHT	1	821.5934000002107	56	2020-11-20 14:35:12.669941
0	Self	S201120	0.5	1	2	1	2	0.4	1433.3333362	1000.000002	2216.6666711000003	1650.0000033	Major	Good_deeds	30	You have started an NGO using your savings	C2_59	0.7	Hard	I2_52	2	A square has 3 corners	0.0	No	LEFT	1511.3866000001508	RIGHT	560.6299000000945	RIGHT	1344.6301999999832	LEFT	887.6586999999745	19.60000000000001	0.4	Probable_Lie	RIGHT	RIGHT	1	1461.1035000000356	57	2020-11-20 14:35:37.309912
128	Computer	S201120	0.8333333333333334	1	2	1	2	0.1	1066.6666688	1350.0000027	2500.000005	2066.6666708	Major	Good_deeds	17	You have held the elevator doors for others	C2_35	0.95	Hard	I1_5	51	Most plants emit oxygen in the day	0.777777777777778	Yes	LEFT	653.0526999999893	LEFT	401.01959999992687	RIGHT	1190.689200000179	LEFT	2312.1389000000363	19.60000000000001	0.1	Probable_Lie	LEFT	RIGHT	1	729.7157510543824	58	2020-11-20 14:36:02.150416
130	Computer	S201120	0.8333333333333334	1	2	1	2	0.2	1283.3333359	1066.6666688	1783.3333369	1933.3333372	Major	Good_deeds	45	You have told someone's secret to others	C2_56	0.15	Easy	I2_51	16	There are 6000 spoken languages in the World	0.666666666666667	No	LEFT	648.571599999741	LEFT	512.5464999996439	LEFT	1700.3076000000874	RIGHT	879.8532999999225	19.60000000000001	0.2	Probable_Lie	LEFT	RIGHT	1	990.2646822388948	59	2020-11-20 14:36:25.511016
26	Self	S201120	0.6666666666666666	2	1	1	2	0.4	1216.6666691	1066.6666688	2350.0000047	2216.6666711000003	Minor	Good_deeds	15	You have provided shelter for stray animals	C2_8	0.0	Hard	I1_9	25	The human's inner ear is larger than a pencil eraser	0.0	No	RIGHT	432.9089000002568	RIGHT	507.6195000001462	RIGHT	1384.063100000276	RIGHT	1623.5477999998693	20.000000000000007	0.4	Probable_Lie	RIGHT	RIGHT	2	596.0832000000664	60	2020-11-20 14:36:49.478808
136	Computer	S201120	0.8333333333333334	2	1	1	2	0.1	1216.6666691	1066.6666688	1783.3333369	1933.3333372	Major	Good_deeds	34	You have claimed doing things that you never did	C2_17	0.0	Easy	I1_29	55	Cernan was the second last man to walk on the Moon	1.0	No	LEFT	336.5904000002047	LEFT	357.17410000006566	LEFT	3142.747800000052	RIGHT	1550.2229000003354	20.000000000000007	0.1	Probable_Lie	LEFT	RIGHT	1	948.0100825610712	61	2020-11-20 14:37:14.382506
79	Self	S201120	0.6666666666666666	2	1	2	1	0.4	1350.0000027	1433.3333362	2350.0000047	2350.0000047	Minor	Good_deeds	5	You have held the door open for a stranger	C2_11	0.9	Easy	I2_31	17	Beer is an alcoholic drink	0.944444444444444	Yes	RIGHT	367.3219999996036	RIGHT	1267.917699999998	RIGHT	951.371200000267	RIGHT	1428.9057000000869	20.40000000000001	0.4	Probable_Lie	RIGHT	RIGHT	2	741.0957000001872	62	2020-11-20 14:37:39.199164
6	Self	S201120	0.5	1	2	2	1	0.8	1000.000002	1350.0000027	1500.000003	2216.6666711000003	Minor	Good_deeds	46	You have returned your trays in food courts	C1_20	1.0	Hard	I1_25	11	South East Asia is currently free from polio	0.777777777777778	Yes	RIGHT	430.5561999999554	RIGHT	376.1088000001109	RIGHT	1086.7742000000362	RIGHT	1713.1469999999354	21.200000000000006	0.8	Probable_Truth	RIGHT	RIGHT	4	1712.217999999666	63	2020-11-20 14:38:03.158513
142	Computer	S201120	0.8333333333333334	2	1	2	1	0.8	1433.3333362	1150.0000023	1650.0000033	1783.3333369	Minor	Wrong_doings	22	You have given up your seat in the MRT	C1_50	1.0	Easy	I2_49	49	Last day of the year is 30th December	0.0	No	LEFT	583.6897999997746	LEFT	408.48800000003394	RIGHT	855.0132999998823	LEFT	1171.2247999998908	21.200000000000006	0.8	Probable_Lie	RIGHT	LEFT	3	659.9501971713039	64	2020-11-20 14:38:25.430571
31	Self	S201120	0.6666666666666666	2	1	2	1	0.5	1500.000003	1350.0000027	1783.3333369	1933.3333372	Major	Good_deeds	42	You have kept your promises	C1_33	1.0	Hard	I2_25	27	A caterpillar has more muscle than a human	0.666666666666667	No	RIGHT	1368.916200000058	RIGHT	857.6441999998679	RIGHT	879.8355999997511	RIGHT	1124.7859999998582	21.700000000000006	0.5	Probable_Lie	RIGHT	RIGHT	2	692.2272000001612	65	2020-11-20 14:38:49.494250
70	Self	S201120	0.6666666666666666	1	2	2	1	0.2	1433.3333362	1500.000003	2216.6666711000003	2066.6666708	Major	Good_deeds	4	You have been convicted in court	C1_36	1.0	Hard	I2_38	2	The hyoid bone is the only jointless bone	0.0	No	LEFT	817.1747999999752	RIGHT	384.7662999996828	LEFT	895.8960999998453	RIGHT	1862.94450000014	21.500000000000007	0.2	Probable_Lie	RIGHT	RIGHT	2	939.2816999998104	66	2020-11-20 14:39:14.182679
8	Self	S201120	0.5	2	1	1	2	0.6	1150.0000023	1000.000002	2350.0000047	1650.0000033	Major	Good_deeds	19	You have a non-judgmental attitude towards everyone	C1_30	0.95	Easy	I1_33	12	Dutch is the 6th Europe's most widely spoken language	0.888888888888889	Yes	LEFT	2232.670800000051	RIGHT	2050.107399999888	RIGHT	2071.0164000001896	RIGHT	1263.9963999999964	20.90000000000001	0.6	Probable_Lie	LEFT	LEFT	5	1488.9217999998436	67	2020-11-20 14:39:42.013950
23	Self	S201120	0.6666666666666666	1	2	2	1	0.2	1000.000002	1433.3333362	2500.000005	2216.6666711000003	Minor	Good_deeds	9	You have given directions to a lost tourist	C2_7	0.05	Easy	I2_28	57	Algeria is Africa's second largest country	0.944444444444444	No	RIGHT	317.77809999994133	RIGHT	472.9462999998759	RIGHT	1224.7360999999728	RIGHT	2344.7190000001683	21.100000000000005	0.2	Probable_Truth	LEFT	LEFT	2	600.3669000001537	68	2020-11-20 14:40:06.694466
110	Computer	S201120	0.5	2	1	2	1	0.2	1000.000002	1433.3333362	2216.6666711000003	2066.6666708	Minor	Good_deeds	57	You have borrowed things and never returned	C1_19	0.7	Hard	I2_12	18	Fibers in oranges can be used to make fabric	0.0	Yes	LEFT	344.13739999990867	LEFT	660.548800000015	LEFT	1304.7100999997383	RIGHT	1015.6786000002284	21.100000000000005	0.2	Probable_Lie	LEFT	LEFT	5	902.4760461084738	69	2020-11-20 14:40:30.205725
101	Computer	S201120	0.5	1	2	2	1	0.5	1216.6666691	1283.3333359	2066.6666708	1650.0000033	Major	Good_deeds	18	You have downloaded pirated movies	C2_30	0.0	Easy	I1_39	50	Mexico's National Day is September 16	0.0	No	LEFT	457.2619000000486	LEFT	560.0456000001941	LEFT	1039.8576000002322	RIGHT	1918.1853999998568	21.100000000000005	0.5	Probable_Lie	LEFT	RIGHT	3	972.4042766558948	70	2020-11-20 14:40:53.942087
104	Computer	S201120	0.5	2	1	1	2	0.7	1283.3333359	1150.0000023	1933.3333372	2350.0000047	Major	Good_deeds	19	You have a non-judgmental attitude towards everyone	C1_30	0.95	Easy	I1_33	12	Dutch is the 6th Europe's most widely spoken language	0.888888888888889	Yes	LEFT	368.8428999998905	LEFT	422.2763000002488	RIGHT	1360.6047000002943	RIGHT	830.9837000001608	21.100000000000005	0.7	Probable_Lie	RIGHT	LEFT	6	780.3823765777099	71	2020-11-20 14:41:16.998277
2	Self	S201120	0.5	1	2	1	2	0.2	1216.6666691	1216.6666691	2066.6666708	2500.000005	Major	Wrong_doings	16	You have fabricated facts about yourself	C1_16	0.0	Easy	I1_11	39	Mageirocophobia is a fear of deathly disease	1.0	Yes	RIGHT	509.6779999998944	RIGHT	304.3729999999414	LEFT	1340.981800000009	RIGHT	1311.985299999833	21.300000000000004	0.2	Probable_Lie	LEFT	RIGHT	1	1228.7238999997498	72	2020-11-20 14:41:41.270998
139	Computer	S201120	0.8333333333333334	2	1	1	2	0.5	1283.3333359	1350.0000027	2216.6666711000003	2216.6666711000003	Major	Good_deeds	23	You have used heroin	C2_23	0.95	Hard	I2_54	41	There are 7 days in a week	0.0	No	LEFT	287.9170000001068	LEFT	596.5576999997211	LEFT	991.6453999999248	RIGHT	1088.425400000233	21.300000000000004	0.5	Probable_Lie	RIGHT	LEFT	5	901.98337965265	73	2020-11-20 14:42:04.773224
44	Self	S201120	0.8333333333333334	2	1	2	1	0.6	1150.0000023	1350.0000027	2350.0000047	2350.0000047	Major	Good_deeds	1	You have donated blood every 6 months for many years	C1_22	0.1	Hard	I2_46	54	A triangle has three sides	0.0555555555555556	Yes	RIGHT	447.2586000001684	RIGHT	612.241300000278	RIGHT	910.1811000000451	RIGHT	1179.6622000001662	21.90000000000001	0.6	Probable_Truth	RIGHT	RIGHT	5	619.817900000271	74	2020-11-20 14:42:28.319182
106	Computer	S201120	0.5	2	1	1	2	0.4	1433.3333362	1216.6666691	1650.0000033	1500.000003	Minor	Wrong_doings	45	You have blackmailed others for money	C2_26	0.05	Easy	I2_23	52	February has 30 days	0.0	No	RIGHT	359.8262999998951	LEFT	769.2498000001251	LEFT	1301.189499999964	LEFT	1095.210699999825	21.90000000000001	0.4	Probable_Truth	LEFT	RIGHT	5	630.5047282491405	75	2020-11-20 14:42:50.846753
9	Self	S201120	0.5	2	1	1	2	0.1	1000.000002	1150.0000023	2216.6666711000003	2350.0000047	Major	Good_deeds	58	You have volunteered for a disaster-related humanitarian mission	C2_45	1.0	Easy	I1_14	33	Hot chocolate was created by the Mayan culture	0.666666666666667	No	RIGHT	432.8692999997656	RIGHT	655.7131999998091	LEFT	2291.5964999997414	RIGHT	1782.572999999957	22.000000000000007	0.1	Probable_Truth	LEFT	RIGHT	6	1284.1498999996477	76	2020-11-20 14:43:16.581832
75	Self	S201120	0.6666666666666666	2	1	1	2	0.1	1066.6666688	1066.6666688	2216.6666711000003	2216.6666711000003	Major	Good_deeds	48	You have done something against your values	C2_9	0.1	Hard	I1_58	6	Acoustic Kitty refers to cat with implants	0.0	Yes	LEFT	206.53590000029	RIGHT	1016.375700000026	LEFT	1640.2914000000235	RIGHT	1416.1234000002878	21.90000000000001	0.1	Probable_Lie	LEFT	LEFT	5	753.1445000004169	77	2020-11-20 14:43:40.759537
1	Self	S201120	0.5	1	2	1	2	0.3	1066.6666688	1500.000003	2350.0000047	1783.3333369	Minor	Wrong_doings	42	You have been restricting your electricity consumption	C2_42	1.0	Easy	I2_50	52	Summer is hotter than winter	0.0555555555555556	Yes	RIGHT	394.7738000001664	RIGHT	289.2872000002171	RIGHT	1579.9102000000858	RIGHT	976.7378000001372	22.200000000000006	0.3	Probable_Truth	RIGHT	RIGHT	4	1222.5945999998655	78	2020-11-20 14:44:04.493937
137	Computer	S201120	0.8333333333333334	2	1	1	2	0.7	1000.000002	1433.3333362	2500.000005	1650.0000033	Minor	Wrong_doings	37	You have watched an M18 movie when you were underage	C1_1	0.0	Hard	I1_41	46	Singapore ranked 8th in World's smallest countries	0.0	No	LEFT	272.7553999998236	LEFT	721.4662000001226	LEFT	1511.8387000002258	RIGHT	2264.810900000157	22.200000000000006	0.7	Probable_Lie	RIGHT	RIGHT	1	916.8028617012772	79	2020-11-20 14:44:29.334641
49	Self	S201120	0.5	1	2	1	2	0.8	1283.3333359	1066.6666688	1783.3333369	2066.6666708	Minor	Wrong_doings	47	You have sign up to sponsor a needy child	C2_3	0.0	Hard	I1_46	34	It is 20th Century now	0.111111111111111	No	RIGHT	641.7934000000969	RIGHT	288.7891000000309	RIGHT	2013.557199999923	LEFT	902.7936000002228	23.000000000000007	0.8	Probable_Lie	LEFT	RIGHT	3	1713.9514000000418	80	2020-11-20 14:44:53.670603
27	Self	S201120	0.6666666666666666	2	1	1	2	0.1	1433.3333362	1216.6666691	2500.000005	1783.3333369	Minor	Wrong_doings	40	You have bought cigarettes for a minor	C1_42	1.0	Hard	I1_35	35	The Amazon forest covers an area of 1 billion acres	0.833333333333333	No	RIGHT	335.8311000001777	RIGHT	326.07590000043274	LEFT	1144.25300000039	RIGHT	1150.6031999997504	23.10000000000001	0.1	Probable_Truth	RIGHT	RIGHT	4	710.0734000000557	81	2020-11-20 14:45:16.846212
62	Self	S201120	0.5	2	1	2	1	0.3	1066.6666688	1000.000002	2500.000005	2350.0000047	Minor	Good_deeds	28	You have risked your life to save another person's life	C1_14	1.0	Easy	I1_40	1	Feijoa is a type of grape	0.888888888888889	No	LEFT	456.0019000000466	RIGHT	1045.4232000001866	RIGHT	1494.5120000002134	RIGHT	1051.897899999858	22.800000000000008	0.3	Probable_Lie	RIGHT	RIGHT	2	3074.86629999994	82	2020-11-20 14:45:43.462393
125	Computer	S201120	0.6666666666666666	2	1	2	1	0.7	1000.000002	1000.000002	1650.0000033	1500.000003	Minor	Wrong_doings	20	You have watched a pirated movie	C2_20	0.2	Easy	I2_33	3	Singapore is a country	0.0	Yes	RIGHT	264.8951000001034	LEFT	593.8129999999546	LEFT	935.9580000000278	RIGHT	814.5257000001038	22.800000000000008	0.7	Probable_Truth	RIGHT	LEFT	1	770.5542267939221	83	2020-11-20 14:46:04.557252
132	Computer	S201120	0.8333333333333334	1	2	2	1	0.8	1216.6666691	1216.6666691	1650.0000033	2500.000005	Minor	Good_deeds	29	You have volunteered every week for many years	C1_17	0.0	Hard	I1_37	4	The Earth turns the closest to the sun in May	0.666666666666667	No	LEFT	615.2197000001252	LEFT	278.6753000000317	RIGHT	823.3936000001449	RIGHT	1198.9365999997972	22.800000000000008	0.8	Probable_Lie	RIGHT	LEFT	6	825.6589088840699	84	2020-11-20 14:46:27.462003
121	Computer	S201120	0.6666666666666666	2	1	1	2	0.3	1433.3333362	1150.0000023	2500.000005	1933.3333372	Major	Wrong_doings	8	You have taken part in violent demonstration	C2_46	0.7	Easy	I1_42	9	Beef comes from cows	0.777777777777778	Yes	LEFT	278.3677000002172	LEFT	795.833500000299	LEFT	1237.8158999999869	RIGHT	767.6869000001716	22.800000000000008	0.3	Probable_Lie	LEFT	RIGHT	1	990.1031380826544	85	2020-11-20 14:46:51.110649
74	Self	S201120	0.6666666666666666	2	1	1	2	0.8	1283.3333359	1216.6666691	2066.6666708	2066.6666708	Major	Wrong_doings	34	You have signed up as a bone marrow donor	C1_38	0.95	Hard	I1_19	19	Singapore is a poor country	0.111111111111111	No	RIGHT	336.210100000244	RIGHT	495.3856000001906	LEFT	2654.1763000000174	LEFT	960.0909999999204	23.60000000000001	0.8	Probable_Lie	RIGHT	RIGHT	2	575.2750999999989	86	2020-11-20 14:47:15.342240
89	Self	S201120	0.8333333333333334	2	1	1	2	0.1	1283.3333359	1500.000003	1783.3333369	2350.0000047	Major	Good_deeds	54	You have intentionally let others cut in line	C1_59	0.2	Hard	I1_8	60	Astatine is the rarest element in the Earth's crust	0.0	No	RIGHT	377.2745000001123	RIGHT	506.0144999997647	RIGHT	2571.549799999957	RIGHT	1206.9169999999758	23.70000000000001	0.1	Probable_Truth	LEFT	LEFT	1	583.4863999998561	87	2020-11-20 14:47:40.077564
143	Computer	S201120	0.8333333333333334	2	1	2	1	0.3	1500.000003	1500.000003	1933.3333372	2500.000005	Minor	Wrong_doings	17	You have made counterfeit money	C2_36	0.55	Easy	I1_31	31	The Franco-Prussian War occurred in the 19th century	0.833333333333333	Yes	LEFT	304.5164999998633	LEFT	740.3787000002922	LEFT	1047.6128000000244	RIGHT	940.117999999984	23.70000000000001	0.3	Probable_Lie	RIGHT	LEFT	6	590.5906664526062	88	2020-11-20 14:48:03.702480
59	Self	S201120	0.5	2	1	1	2	0.2	1216.6666691	1350.0000027	1650.0000033	2066.6666708	Minor	Wrong_doings	44	You have pretended to be busy to avoid a social situation	C2_24	0.05	Easy	I2_45	13	Red is a color	0.0	No	LEFT	383.26619999998	RIGHT	773.7151999999696	LEFT	1774.8301999999967	RIGHT	896.0131000003457	23.50000000000001	0.2	Probable_Lie	LEFT	LEFT	5	1072.1427000003132	89	2020-11-20 14:48:27.461484
107	Computer	S201120	0.5	2	1	1	2	0.3	1216.6666691	1066.6666688	2066.6666708	1783.3333369	Minor	Good_deeds	29	You have used a fake name online	C2_29	0.8	Hard	I2_48	13	The Earth is round	0.0	Yes	LEFT	271.5432999998484	LEFT	585.6446000002506	LEFT	1305.666299999757	RIGHT	768.4217000000899	23.50000000000001	0.3	Probable_Lie	RIGHT	RIGHT	2	894.2596194417717	90	2020-11-20 14:48:49.998982
108	Computer	S201120	0.5	2	1	2	1	0.8	1350.0000027	1000.000002	1783.3333369	2216.6666711000003	Major	Wrong_doings	26	You have followed instructions	C1_58	0.0	Easy	I1_13	23	Obama is the USA president now	0.0	No	LEFT	286.8492000002334	LEFT	348.3181000001423	RIGHT	929.1069000000788	LEFT	1270.9890999999516	23.50000000000001	0.8	Probable_Lie	LEFT	LEFT	5	644.1088243024784	91	2020-11-20 14:49:12.405358
40	Self	S201120	0.8333333333333334	2	1	1	2	0.8	1066.6666688	1150.0000023	2500.000005	1783.3333369	Major	Good_deeds	34	You have claimed doing things that you never did	C2_17	0.0	Easy	I1_29	55	Cernan was the second last man to walk on the Moon	1.0	No	RIGHT	440.41980000019976	RIGHT	891.6486999996778	LEFT	2307.1592999999666	RIGHT	1246.9419999997626	24.30000000000001	0.8	Probable_Lie	RIGHT	RIGHT	1	619.1869999997834	92	2020-11-20 14:49:36.989404
86	Self	S201120	0.8333333333333334	1	2	2	1	0.5	1150.0000023	1350.0000027	2066.6666708	1500.000003	Major	Wrong_doings	40	You have adopted a zero-waste lifestyle	C2_58	0.0	Easy	I1_50	11	Malay is one of the races in Singapore	0.0	Yes	RIGHT	485.16239999980826	RIGHT	279.5172000001003	RIGHT	1376.1654999998427	RIGHT	1199.5874999997795	24.80000000000001	0.5	Probable_Truth	RIGHT	RIGHT	4	541.3668999999572	93	2020-11-20 14:49:59.510449
129	Computer	S201120	0.8333333333333334	1	2	1	2	0.7	1350.0000027	1433.3333362	1933.3333372	1500.000003	Minor	Wrong_doings	39	You have organized a violent protest	C2_10	0.05	Hard	I1_24	47	Penguin can fly with their wings	0.0555555555555556	Yes	LEFT	493.9979999999196	LEFT	448.5875999998825	LEFT	974.5595999997932	LEFT	928.4232999998494	24.80000000000001	0.7	Probable_Lie	LEFT	RIGHT	1	822.93933430705	94	2020-11-20 14:50:21.958058
118	Computer	S201120	0.6666666666666666	1	2	2	1	0.5	1350.0000027	1283.3333359	2066.6666708	1933.3333372	Major	Good_deeds	43	You have failed to keep promises	C2_28	0.85	Hard	I1_57	59	Bears have the biggest eyes among mammals	0.0555555555555556	No	RIGHT	498.8832999997612	LEFT	385.0741000001108	LEFT	1000.0268999997388	RIGHT	1317.091899999923	24.80000000000001	0.5	Probable_Truth	LEFT	LEFT	1	912.7426650570944	95	2020-11-20 14:50:45.277359
67	Self	S201120	0.6666666666666666	1	2	1	2	0.3	1066.6666688	1433.3333362	1650.0000033	1500.000003	Major	Good_deeds	57	You have sorted your trash into recycling bin	C2_57	0.9	Hard	I2_26	26	Slavery was abolished in Cuba in 1886	0.0	Yes	LEFT	758.405699999912	RIGHT	383.5905000000821	RIGHT	1246.1327999999412	RIGHT	1696.4395999998487	24.50000000000001	0.3	Probable_Lie	RIGHT	RIGHT	1	826.6014999999243	96	2020-11-20 14:52:33.815099
19	Self	S201120	0.6666666666666666	1	2	1	2	0.4	1066.6666688	1066.6666688	1933.3333372	1650.0000033	Minor	Wrong_doings	7	You have stolen something	C1_7	1.0	Easy	I2_40	28	Vegetarians can eat vegetable products	0.944444444444444	Yes	RIGHT	637.256200000138	RIGHT	494.9543999996422	LEFT	902.1520999999666	RIGHT	839.1514999998435	24.90000000000001	0.4	Probable_Truth	RIGHT	RIGHT	4	743.6906999996609	97	2020-11-20 14:52:55.727101
10	Self	S201120	0.5	2	1	1	2	0.5	1066.6666688	1283.3333359	1650.0000033	2066.6666708	Minor	Wrong_doings	45	You have blackmailed others for money	C2_26	0.05	Easy	I2_23	52	February has 30 days	0.0	No	RIGHT	399.8795000002247	RIGHT	397.3706000001585	LEFT	901.5140999999858	LEFT	896.7063000000053	25.40000000000001	0.5	Probable_Truth	RIGHT	LEFT	2	1671.9384999996691	98	2020-11-20 14:53:18.637642
28	Self	S201120	0.6666666666666666	2	1	2	1	0.8	1066.6666688	1433.3333362	1933.3333372	2066.6666708	Major	Good_deeds	33	You have coveted things that belong to others	C2_40	0.05	Hard	I2_3	4	Mozambique is the world's poorest country	0.0	Yes	RIGHT	328.29999999967185	RIGHT	442.8834999998799	LEFT	1054.7053000000233	RIGHT	998.7920999997186	26.20000000000001	0.8	Probable_Truth	RIGHT	RIGHT	6	913.9423999999964	99	2020-11-20 14:53:41.455165
88	Self	S201120	0.8333333333333334	2	1	1	2	0.6	1150.0000023	1433.3333362	2066.6666708	1500.000003	Major	Wrong_doings	48	You have said thank you when you have received help	C1_48	0.0	Easy	I1_32	43	French is Singapore's official language	0.0	Yes	RIGHT	408.0558000000565	RIGHT	604.9881999997524	RIGHT	1421.259199999895	LEFT	1551.6742999998314	26.80000000000001	0.6	Probable_Truth	RIGHT	RIGHT	5	846.0850000001301	100	2020-11-20 14:54:05.013820
16	Self	S201120	0.6666666666666666	1	2	1	2	0.8	1283.3333359	1350.0000027	2216.6666711000003	1783.3333369	Major	Wrong_doings	35	You have engaged in underage smoking	C2_50	1.0	Easy	I2_59	40	Septicemia is a lung infection condition	0.0	No	RIGHT	625.3920999997717	RIGHT	551.5553000000182	LEFT	1153.032599999733	RIGHT	1072.192200000245	27.60000000000001	0.8	Probable_Truth	LEFT	LEFT	2	804.2719999998553	101	2020-11-20 14:54:28.429847
72	Self	S201120	0.6666666666666666	2	1	1	2	0.3	1500.000003	1150.0000023	1783.3333369	1650.0000033	Minor	Good_deeds	11	You have said sorry when you were rude	C1_5	0.0	Easy	I1_53	53	Cheese is an Asian staple	0.722222222222222	Yes	RIGHT	360.633499999949	RIGHT	330.57589999998527	RIGHT	1335.4604000001018	LEFT	1855.5287999997745	27.900000000000013	0.3	Probable_Truth	RIGHT	RIGHT	3	867.569199999707	102	2020-11-20 14:54:51.838863
103	Computer	S201120	0.5	1	2	2	1	0.3	1283.3333359	1350.0000027	1500.000003	1500.000003	Major	Good_deeds	60	You have engaged in money laundering	C1_46	0.0	Hard	I2_2	45	Brazil is in South America	0.833333333333333	No	LEFT	533.6319000002732	LEFT	304.7381999999743	LEFT	800.2344999999877	RIGHT	1004.611400000158	27.900000000000013	0.3	Probable_Lie	LEFT	RIGHT	2	842.5062783204048	103	2020-11-20 14:55:13.535031
43	Self	S201120	0.8333333333333334	2	1	1	2	0.3	1283.3333359	1066.6666688	1783.3333369	2216.6666711000003	Major	Good_deeds	23	You have used heroin	C2_23	0.95	Hard	I2_54	41	There are 7 days in a week	0.0	No	RIGHT	544.0303999998832	RIGHT	451.1348000000908	LEFT	754.2702999999165	RIGHT	703.3870000000206	28.200000000000014	0.3	Probable_Truth	RIGHT	RIGHT	3	706.3300999998319	104	2020-11-20 14:55:35.631156
58	Self	S201120	0.5	2	1	1	2	0.1	1350.0000027	1066.6666688	1933.3333372	2500.000005	Major	Good_deeds	14	You have helped a friend in need	C2_53	0.0	Hard	I1_26	45	Singapore has four seasons	0.777777777777778	No	RIGHT	385.3300000000672	RIGHT	411.17979999989984	RIGHT	934.4817000001058	LEFT	1015.0957999999264	28.30000000000001	0.1	Probable_Truth	LEFT	RIGHT	6	1828.19789999985	105	2020-11-20 14:55:59.629344
3	Self	S201120	0.5	1	2	1	2	0.1	1283.3333359	1150.0000023	2500.000005	1500.000003	Minor	Wrong_doings	20	You have given way to the handicapped	C2_18	0.5	Hard	I2_21	21	Afghan Hound is the first cloned cat	0.944444444444444	Yes	LEFT	716.9400000002497	RIGHT	320.996699999796	RIGHT	958.902300000318	RIGHT	1223.3406999998806	28.200000000000014	0.1	Probable_Lie	RIGHT	RIGHT	1	2335.100499999953	106	2020-11-20 14:56:24.190673
126	Computer	S201120	0.6666666666666666	2	1	2	1	0.6	1066.6666688	1283.3333359	2350.0000047	2500.000005	Minor	Good_deeds	46	You have offered a listening ear to a friend	C1_15	0.0	Easy	I1_4	42	The sun rises at night	0.0	Yes	LEFT	345.2066999998351	LEFT	443.2150999996338	RIGHT	935.9926000001906	LEFT	973.5740000000987	28.200000000000014	0.6	Probable_Lie	LEFT	RIGHT	1	922.5741571877572	107	2020-11-20 14:56:47.574419
77	Self	S201120	0.6666666666666666	2	1	2	1	0.5	1433.3333362	1350.0000027	1933.3333372	1933.3333372	Minor	Good_deeds	11	You have sold illegal drugs	C1_11	0.15	Hard	I2_6	56	Statute of Liberty is in New York	0.833333333333333	Yes	RIGHT	440.774600000168	RIGHT	387.3128999998698	LEFT	904.5436999999764	RIGHT	1134.0303000001768	28.700000000000014	0.5	Probable_Truth	RIGHT	RIGHT	6	608.2123000001047	108	2020-11-20 14:57:10.270101
57	Self	S201120	0.5	2	1	1	2	0.7	1433.3333362	1433.3333362	2066.6666708	1650.0000033	Major	Wrong_doings	25	You have assisted in a crime	C1_28	0.0	Easy	I2_1	6	Polish is 20th most spoken language in the World	0.0	Yes	RIGHT	281.3925000000381	RIGHT	565.8045000000129	LEFT	879.1543000002093	RIGHT	1190.6859999999142	29.400000000000013	0.7	Probable_Truth	LEFT	RIGHT	5	2074.883999999656	109	2020-11-20 14:57:34.421361
63	Self	S201120	0.5	2	1	2	1	0.4	1000.000002	1150.0000023	2216.6666711000003	1500.000003	Minor	Wrong_doings	53	You have rescued others from a catastrophe	C2_60	0.05	Hard	I1_6	40	"Statue of Liberty is 151 feet tall"	0.888888888888889	No	RIGHT	447.26489999993646	RIGHT	351.0793000000376	RIGHT	2150.719199999912	RIGHT	1677.0292999999583	29.80000000000001	0.4	Probable_Truth	RIGHT	RIGHT	5	1816.6464000000813	110	2020-11-20 14:57:59.309772
81	Self	S201120	0.8333333333333334	1	2	1	2	0.2	1350.0000027	1216.6666691	1933.3333372	1933.3333372	Minor	Good_deeds	39	You have lied to your parents	C2_6	0.0	Hard	I1_15	35	It takes 500 days to travel from Earth to Mars	0.722222222222222	No	RIGHT	340.21000000029744	RIGHT	417.2942999998668	LEFT	916.117000000213	RIGHT	2278.4724000002825	30.00000000000001	0.2	Probable_Truth	RIGHT	RIGHT	4	760.5262000001858	111	2020-11-20 14:58:23.030379
98	Computer	S201120	0.5	1	2	1	2	0.7	1066.6666688	1500.000003	1933.3333372	2500.000005	Major	Wrong_doings	16	You have fabricated facts about yourself	C1_16	0.0	Easy	I1_11	39	Mageirocophobia is a fear of deathly disease	1.0	Yes	LEFT	1691.8574000001172	LEFT	368.6545000000479	LEFT	1014.7102000000814	RIGHT	839.5851000000221	30.00000000000001	0.7	Probable_Lie	RIGHT	RIGHT	2	611.9771239404183	112	2020-11-20 14:58:47.134366
21	Self	S201120	0.6666666666666666	1	2	2	1	0.3	1150.0000023	1150.0000023	1783.3333369	2066.6666708	Minor	Good_deeds	28	You have started a hotline for victims of bully	C2_43	0.05	Easy	I1_1	24	Today is Sunday	0.666666666666667	Yes	RIGHT	362.11580000008325	RIGHT	256.1612999998033	LEFT	2695.2149000003374	LEFT	803.7430999997923	30.30000000000001	0.3	Probable_Lie	LEFT	LEFT	4	604.6842999999171	113	2020-11-20 14:59:10.582013
54	Self	S201120	0.5	1	2	2	1	0.3	1350.0000027	1500.000003	2216.6666711000003	2500.000005	Major	Good_deeds	13	You have engaged in drink-driving	C2_31	0.05	Easy	I1_12	41	The Moon orbits around the Earth	0.777777777777778	Yes	LEFT	839.4328999997924	RIGHT	465.0560999998561	LEFT	1064.5214000001033	RIGHT	2741.911699999946	30.00000000000001	0.3	Probable_Lie	RIGHT	RIGHT	3	1082.5685999998311	114	2020-11-20 14:59:36.917315
100	Computer	S201120	0.5	1	2	2	1	0.6	1000.000002	1000.000002	2500.000005	1933.3333372	Minor	Wrong_doings	59	You have illegally stayed in a country	C1_60	0.45	Easy	I1_45	25	It sometimes snows in Singapore	0.0555555555555556	No	RIGHT	858.0968000001121	LEFT	480.7261999999355	LEFT	1016.6847000000416	LEFT	854.2256999999154	30.00000000000001	0.6	Probable_Truth	LEFT	LEFT	1	838.1680509945372	115	2020-11-20 14:59:59.958149
135	Computer	S201120	0.8333333333333334	1	2	2	1	0.6	1000.000002	1283.3333359	2350.0000047	1650.0000033	Minor	Wrong_doings	10	You have bribed someone to improve a grade	C1_39	0.9	Easy	I2_4	5	There are 9 rings in the Olympic flag	0.888888888888889	No	LEFT	531.3053999998374	LEFT	289.18490000023667	LEFT	1200.2059000001282	LEFT	1342.9625000003398	30.00000000000001	0.6	Probable_Lie	LEFT	RIGHT	1	876.7695119450502	116	2020-11-20 15:00:23.053258
12	Self	S201120	0.5	2	1	2	1	0.7	1283.3333359	1433.3333362	1500.000003	1500.000003	Major	Wrong_doings	26	You have followed instructions	C1_58	0.0	Easy	I1_13	23	Obama is the USA president now	0.0	No	RIGHT	431.6638999998759	RIGHT	366.14570000028834	RIGHT	887.6552000001539	LEFT	902.6592999998684	30.70000000000001	0.7	Probable_Lie	RIGHT	RIGHT	2	1317.0820000000276	117	2020-11-20 15:00:45.247173
5	Self	S201120	0.5	1	2	2	1	0.5	1150.0000023	1066.6666688	1783.3333369	1933.3333372	Major	Good_deeds	18	You have downloaded pirated movies	C2_30	0.0	Easy	I1_39	50	Mexico's National Day is September 16	0.0	No	LEFT	752.9733000001215	RIGHT	511.85279999981503	LEFT	911.7377000002308	RIGHT	1222.4763999997776	30.20000000000001	0.5	Probable_Lie	LEFT	RIGHT	2	2653.0831999998554	118	2020-11-20 15:01:09.806107
41	Self	S201120	0.8333333333333334	2	1	1	2	0.1	1433.3333362	1216.6666691	1500.000003	1933.3333372	Minor	Wrong_doings	37	You have watched an M18 movie when you were underage	C1_1	0.0	Hard	I1_41	46	Singapore ranked 8th in World's smallest countries	0.0	No	LEFT	480.1416999998765	RIGHT	1133.1342999997105	LEFT	1028.4987	RIGHT	1405.7755999997426	30.10000000000001	0.1	Probable_Lie	RIGHT	RIGHT	1	1022.6150000003144	119	2020-11-20 15:01:33.534826
94	Self	S201120	0.8333333333333334	2	1	2	1	0.7	1433.3333362	1150.0000023	2216.6666711000003	2066.6666708	Minor	Good_deeds	2	You have attended all lectures as a student	C1_12	0.85	Hard	I1_10	30	Africa is the continent with the least rainfall	0.833333333333333	No	RIGHT	327.2919000000911	RIGHT	344.2387999998573	RIGHT	1639.8964999998498	RIGHT	2095.267900000181	30.800000000000008	0.7	Probable_Lie	LEFT	LEFT	4	588.2606000000123	120	2020-11-20 15:01:57.974393
11	Self	S201120	0.5	2	1	1	2	0.4	1433.3333362	1350.0000027	2500.000005	1783.3333369	Minor	Good_deeds	29	You have used a fake name online	C2_29	0.8	Hard	I2_48	13	The Earth is round	0.0	Yes	RIGHT	511.96610000033616	RIGHT	1020.4999999996288	LEFT	1138.5857999998734	RIGHT	944.1157000001112	31.200000000000006	0.4	Probable_Lie	LEFT	RIGHT	2	1608.2622999997511	121	2020-11-20 15:02:22.839806
80	Self	S201120	0.8333333333333334	1	2	1	2	0.3	1283.3333359	1283.3333359	1650.0000033	2216.6666711000003	Minor	Wrong_doings	1	You have shown your appreciation to your teachers	C1_27	0.05	Easy	I1_23	39	Kangaroos live in Africa	0.0	Yes	RIGHT	335.94730000004347	RIGHT	408.47459999986313	RIGHT	1347.6227999999537	RIGHT	1312.7158000002055	31.500000000000007	0.3	Probable_Truth	RIGHT	RIGHT	3	666.4384999999129	122	2020-11-20 15:02:45.919153
105	Computer	S201120	0.5	2	1	1	2	0.6	1150.0000023	1350.0000027	2350.0000047	1650.0000033	Major	Good_deeds	58	You have volunteered for a disaster-related humanitarian mission	C2_45	1.0	Easy	I1_14	33	Hot chocolate was created by the Mayan culture	0.666666666666667	No	RIGHT	392.1409999998105	LEFT	864.5254999996723	RIGHT	2401.186300000063	RIGHT	1719.760800000131	31.500000000000007	0.6	Probable_Truth	LEFT	RIGHT	4	951.3060256470752	123	2020-11-20 15:03:11.318985
114	Computer	S201120	0.6666666666666666	1	2	1	2	0.3	1433.3333362	1216.6666691	1500.000003	2066.6666708	Major	Wrong_doings	51	You have cheated on a national exam	C1_51	0.45	Hard	I1_54	1	The current century is 21st	0.0	Yes	LEFT	880.3004000001238	LEFT	263.4587000002284	LEFT	1004.7233000000232	RIGHT	887.1711000001596	31.500000000000007	0.3	Probable_Lie	LEFT	RIGHT	1	525.013323756099	124	2020-11-20 15:03:33.662085
82	Self	S201120	0.8333333333333334	1	2	1	2	0.8	1500.000003	1150.0000023	2216.6666711000003	2066.6666708	Major	Good_deeds	27	You have participated in a scamming business	C1_13	0.95	Hard	I2_35	17	Lehman Brothers went bankrupt on 20th September	0.944444444444444	No	LEFT	732.7003000000332	RIGHT	352.01390000020183	LEFT	1453.280100000029	RIGHT	1983.553399999892	30.700000000000006	0.8	Probable_Lie	RIGHT	RIGHT	1	615.5458000002909	125	2020-11-20 15:03:58.309373
24	Self	S201120	0.6666666666666666	2	1	1	2	0.7	1350.0000027	1000.000002	2216.6666711000003	1500.000003	Major	Wrong_doings	24	You have let a homeless man into your house	C1_24	0.85	Easy	I2_27	33	Singapore is in Africa	0.722222222222222	No	RIGHT	312.1694000001298	RIGHT	320.24679999994987	RIGHT	2043.8994000001005	LEFT	1087.107300000298	31.40000000000001	0.7	Probable_Truth	LEFT	LEFT	1	742.2275000003538	126	2020-11-20 15:04:21.461526
113	Computer	S201120	0.6666666666666666	1	2	1	2	0.6	1150.0000023	1066.6666688	1650.0000033	1783.3333369	Minor	Wrong_doings	50	You have helped others to pick up their belongings	C1_9	0.0	Hard	I2_24	54	North Korea is more developed than South Korea	0.944444444444444	Yes	LEFT	662.2082000003502	LEFT	504.0450999999848	RIGHT	1714.859300000171	LEFT	1335.8059000001958	31.40000000000001	0.6	Probable_Lie	RIGHT	RIGHT	2	885.0954169445106	127	2020-11-20 15:04:44.781771
66	Self	S201120	0.6666666666666666	1	2	1	2	0.8	1000.000002	1150.0000023	1933.3333372	1783.3333369	Minor	Wrong_doings	8	You have bought cocaine	C1_8	0.85	Hard	I1_3	3	It is night time now	0.944444444444444	No	LEFT	987.3585000000276	RIGHT	327.8722999998536	LEFT	1143.9872999999352	LEFT	983.875800000078	30.600000000000005	0.8	Probable_Lie	RIGHT	RIGHT	2	794.1750999998476	128	2020-11-20 15:05:07.461443
20	Self	S201120	0.6666666666666666	1	2	2	1	0.1	1433.3333362	1216.6666691	1650.0000033	1933.3333372	Major	Good_deeds	7	You have been physically hurt to protect others	C1_35	0.65	Hard	I1_28	28	The Seine river is 50 feet above sea level	0.0	No	LEFT	798.4137000003102	RIGHT	264.5339000000604	RIGHT	2327.619700000014	RIGHT	996.5289000001576	30.500000000000004	0.1	Probable_Lie	RIGHT	RIGHT	1	595.767799999976	129	2020-11-20 15:05:31.253383
123	Computer	S201120	0.6666666666666666	2	1	1	2	0.1	1283.3333359	1216.6666691	1933.3333372	1783.3333369	Minor	Wrong_doings	40	You have bought cigarettes for a minor	C1_42	1.0	Hard	I1_35	35	The Amazon forest covers an area of 1 billion acres	0.833333333333333	No	RIGHT	479.0265000001455	LEFT	678.657899999962	LEFT	985.7944999998836	RIGHT	847.2414000002573	30.500000000000004	0.1	Probable_Truth	LEFT	RIGHT	6	656.5349514611229	130	2020-11-20 15:05:53.685574
52	Self	S201120	0.5	1	2	2	1	0.2	1066.6666688	1216.6666691	2066.6666708	1783.3333369	Minor	Wrong_doings	38	You have deceived a loved one	C1_53	0.75	Easy	I2_8	27	Carnivore refers to meat-eater	0.888888888888889	No	LEFT	701.6494999998031	RIGHT	311.7675000003146	LEFT	1183.608699999695	RIGHT	2594.48569999995	30.300000000000004	0.2	Probable_Lie	RIGHT	RIGHT	2	1272.4084999999832	131	2020-11-20 15:06:18.461227
138	Computer	S201120	0.8333333333333334	2	1	1	2	0.4	1066.6666688	1216.6666691	2350.0000047	2066.6666708	Minor	Good_deeds	36	You have stopped using products tested on animals	C1_37	0.1	Hard	I1_21	21	Christmas Day is in March	0.944444444444444	Yes	RIGHT	320.8724000000984	LEFT	644.3939999999202	RIGHT	1144.1798000000745	LEFT	1024.0405999998077	30.300000000000004	0.4	Probable_Truth	RIGHT	RIGHT	5	915.7831001911044	132	2020-11-20 15:06:41.781253
53	Self	S201120	0.5	1	2	2	1	0.7	1433.3333362	1000.000002	1933.3333372	2216.6666711000003	Major	Wrong_doings	31	You have violated a traffic law	C1_47	0.05	Hard	I2_34	12	Arabi is the oldest surviving breed of horse	0.0	No	RIGHT	731.0265000000982	RIGHT	625.0267000000349	LEFT	1144.2180999997618	RIGHT	1362.456999999722	31.000000000000004	0.7	Probable_Lie	RIGHT	RIGHT	1	1256.0670000002574	133	2020-11-20 15:07:06.053223
38	Self	S201120	0.8333333333333334	1	2	2	1	0.5	1350.0000027	1283.3333359	2216.6666711000003	2216.6666711000003	Minor	Wrong_doings	35	You have made someone cry	C1_45	0.0	Easy	I2_22	37	Milwaukee Art Museum is located in California	0.0	No	RIGHT	488.6697000001732	RIGHT	336.7958999997427	LEFT	1511.994699999832	RIGHT	2278.8479999999254	31.500000000000004	0.5	Probable_Truth	LEFT	LEFT	1	563.611999999921	134	2020-11-20 15:07:30.878900
56	Self	S201120	0.5	2	1	1	2	0.8	1150.0000023	1216.6666691	1783.3333369	1783.3333369	Minor	Wrong_doings	24	You have taken part in burglary	C1_43	1.0	Hard	I1_43	53	The first Olympic Games was held in the 5th century B.C	0.888888888888889	Yes	LEFT	1864.4850999999107	RIGHT	1266.277700000046	LEFT	1307.4735000000146	RIGHT	1439.8722999999336	30.700000000000003	0.8	Probable_Lie	RIGHT	LEFT	6	1317.8646999999728	135	2020-11-20 15:07:56.581316
32	Self	S201120	0.8333333333333334	1	2	1	2	0.7	1066.6666688	1216.6666691	1650.0000033	2066.6666708	Major	Good_deeds	17	You have held the elevator doors for others	C2_35	0.95	Hard	I1_5	51	Most plants emit oxygen in the day	0.777777777777778	Yes	RIGHT	311.30809999967823	RIGHT	280.1299000002473	RIGHT	1040.609300000142	RIGHT	1095.5699999999524	31.4	0.7	Probable_Lie	LEFT	LEFT	5	569.7290999996767	136	2020-11-20 15:08:18.453926
84	Self	S201120	0.8333333333333334	1	2	2	1	0.6	1000.000002	1000.000002	2350.0000047	1783.3333369	Major	Wrong_doings	13	You have taken responsibility for your actions	C2_39	1.0	Easy	I2_11	50	Nanyang Technological University is in Australia	0.888888888888889	Yes	RIGHT	410.3606999997282	RIGHT	776.6188999999031	RIGHT	1160.2364000000307	LEFT	1473.799300000337	32.0	0.6	Probable_Truth	RIGHT	RIGHT	6	637.2154000000592	137	2020-11-20 15:08:41.621605
48	Self	S201120	0.5	1	2	1	2	0.6	1000.000002	1150.0000023	2500.000005	1933.3333372	Major	Good_deeds	53	You have been arrested	C2_13	1.0	Hard	I2_41	48	Some owl species hunt fish	0.0	Yes	RIGHT	636.99779999979	RIGHT	1584.6262000000024	LEFT	813.1553999996868	RIGHT	1439.941699999963	32.6	0.6	Probable_Lie	LEFT	RIGHT	2	1334.626500000013	138	2020-11-20 15:09:06.590092
71	Self	S201120	0.6666666666666666	1	2	2	1	0.7	1283.3333359	1283.3333359	1783.3333369	1650.0000033	Major	Wrong_doings	52	You have cursed at your loved ones	C1_31	0.0	Easy	I2_42	42	There is typically 0.6 grams of mercury in glass thermometer	0.0	Yes	LEFT	674.4456999999784	RIGHT	296.8213999997716	LEFT	1359.5830000003843	RIGHT	1712.219500000174	31.9	0.7	Probable_Lie	LEFT	LEFT	5	710.1102999999966	139	2020-11-20 15:09:29.917355
87	Self	S201120	0.8333333333333334	1	2	2	1	0.7	1433.3333362	1500.000003	2500.000005	1650.0000033	Minor	Good_deeds	6	You have cursed at others	C2_1	1.0	Hard	I2_17	15	There are 6 million animal species on Earth	0.0	No	RIGHT	541.2290999997822	RIGHT	808.6143000000448	LEFT	936.676300000272	RIGHT	1191.4713999999549	32.6	0.7	Probable_Truth	LEFT	LEFT	1	569.3198000003576	140	2020-11-20 15:09:53.621319
39	Self	S201120	0.8333333333333334	1	2	2	1	0.8	1216.6666691	1000.000002	1933.3333372	1933.3333372	Minor	Wrong_doings	10	You have bribed someone to improve a grade	C1_39	0.9	Easy	I2_4	5	There are 9 rings in the Olympic flag	0.888888888888889	No	RIGHT	356.3195000001542	RIGHT	352.1213999997599	LEFT	1054.8659999994925	LEFT	860.5066000000079	33.4	0.8	Probable_Lie	LEFT	LEFT	2	678.1763999997565	141	2020-11-20 15:10:15.582447
141	Computer	S201120	0.8333333333333334	2	1	2	1	0.2	1150.0000023	1000.000002	2066.6666708	2350.0000047	Major	Wrong_doings	50	You have helped your parents when asked to	C2_34	0.65	Easy	I2_55	29	The first Grammy awards was held in 1959	0.888888888888889	Yes	LEFT	304.2283000004318	LEFT	565.8018000003722	RIGHT	1071.841700000732	RIGHT	923.4945999996852	33.4	0.2	Probable_Truth	LEFT	RIGHT	4	953.185470204004	142	2020-11-20 15:10:38.535124
119	Computer	S201120	0.6666666666666666	1	2	2	1	0.7	1000.000002	1150.0000023	1933.3333372	2216.6666711000003	Minor	Good_deeds	9	You have given directions to a lost tourist	C2_7	0.05	Easy	I2_28	57	Algeria is Africa's second largest country	0.944444444444444	No	LEFT	572.9688000001261	LEFT	328.98909999948955	RIGHT	1208.2272999996349	RIGHT	1240.6129999999391	33.4	0.7	Probable_Lie	LEFT	RIGHT	1	676.3185866361209	143	2020-11-20 15:11:01.437312
