Participant	Task	Stimulus_Side	Response	RT	ITI	Previous_Response	Previous_RT	Trial_Onset	Trial_End	Trial_Order	Duration	Conflict	Cue_Response	Cue_Response_RT	Stop_Signal	Stop_Signal_RT
S210120	Conflict_Resolution	RIGHT	RIGHT	1106.88579999999	633.3333346	n/a	n/a	2021-01-20 14:14:14.577198	2021-01-20 14:14:15.892693	1	6.77123323333333	False	n/a	n/a	n/a	n/a
S210120	Conflict_Resolution	RIGHT	RIGHT	661.460299999931	1383.3333361	n/a	n/a	2021-01-20 14:14:17.295014	2021-01-20 14:14:18.166704	2	6.77123323333333	False	n/a	n/a	n/a	n/a
S210120	Conflict_Resolution	RIGHT	RIGHT	809.446199999911	1050.0000021	n/a	n/a	2021-01-20 14:14:19.236634	2021-01-20 14:14:20.254311	3	6.77123323333333	False	n/a	n/a	n/a	n/a
S210120	Conflict_Resolution	LEFT	LEFT	798.646599999984	1500.000003	n/a	n/a	2021-01-20 14:14:21.773447	2021-01-20 14:14:22.780969	4	6.77123323333333	False	n/a	n/a	n/a	n/a
S210120	Conflict_Resolution	LEFT	LEFT	756.131900000014	966.6666686	n/a	n/a	2021-01-20 14:14:23.768628	2021-01-20 14:14:24.732141	5	6.77123323333333	False	n/a	n/a	n/a	n/a
S210120	Conflict_Resolution	LEFT	LEFT	1333.36970000005	583.3333345	n/a	n/a	2021-01-20 14:14:25.335727	2021-01-20 14:14:26.875804	6	6.77123323333333	True	n/a	n/a	n/a	n/a
S210120	Conflict_Resolution	LEFT	LEFT	843.591700000047	1450.0000029	n/a	n/a	2021-01-20 14:14:28.344512	2021-01-20 14:14:29.397042	7	6.77123323333333	True	n/a	n/a	n/a	n/a
S210120	Conflict_Resolution	RIGHT	RIGHT	481.669900000043	1483.3333363	n/a	n/a	2021-01-20 14:14:30.898737	2021-01-20 14:14:31.588171	8	6.77123323333333	False	n/a	n/a	n/a	n/a
S210120	Conflict_Resolution	LEFT	LEFT	975.747800000022	916.6666685	n/a	n/a	2021-01-20 14:14:32.524995	2021-01-20 14:14:33.708234	9	6.77123323333333	True	n/a	n/a	n/a	n/a
S210120	Conflict_Resolution	LEFT	LEFT	560.409100000015	1500.000003	n/a	n/a	2021-01-20 14:14:35.227444	2021-01-20 14:14:35.997398	10	6.77123323333333	True	n/a	n/a	n/a	n/a
S210120	Conflict_Resolution	RIGHT	RIGHT	618.337300000007	1416.6666695	n/a	n/a	2021-01-20 14:14:37.433822	2021-01-20 14:14:38.260294	11	6.77123323333333	False	n/a	n/a	n/a	n/a
S210120	Conflict_Resolution	LEFT	LEFT	825.70469999996	1016.6666687	n/a	n/a	2021-01-20 14:14:39.298645	2021-01-20 14:14:40.331873	12	6.77123323333333	False	n/a	n/a	n/a	n/a
S210120	Conflict_Resolution	LEFT	LEFT	1318.65419999997	1366.6666694	n/a	n/a	2021-01-20 14:14:41.718267	2021-01-20 14:14:43.244810	13	6.77123323333333	True	n/a	n/a	n/a	n/a
S210120	Conflict_Resolution	RIGHT	RIGHT	1172.07709999991	783.3333349	n/a	n/a	2021-01-20 14:14:44.048749	2021-01-20 14:14:45.427901	14	6.77123323333333	True	n/a	n/a	n/a	n/a
S210120	Conflict_Resolution	RIGHT	RIGHT	736.248299999943	500.000001	n/a	n/a	2021-01-20 14:14:45.948510	2021-01-20 14:14:46.892901	15	6.77123323333333	False	n/a	n/a	n/a	n/a
S210120	Conflict_Resolution	LEFT	LEFT	658.709799999997	1016.6666687	n/a	n/a	2021-01-20 14:14:47.930150	2021-01-20 14:14:48.797709	16	6.77123323333333	True	n/a	n/a	n/a	n/a
S210120	Conflict_Resolution	RIGHT	RIGHT	677.358499999968	1150.0000023	n/a	n/a	2021-01-20 14:14:49.966875	2021-01-20 14:14:50.853494	17	6.77123323333333	True	n/a	n/a	n/a	n/a
S210120	Conflict_Resolution	LEFT	LEFT	791.497100000015	716.6666681	n/a	n/a	2021-01-20 14:14:51.588545	2021-01-20 14:14:52.588008	18	6.77123323333333	True	n/a	n/a	n/a	n/a
S210120	Conflict_Resolution	RIGHT	RIGHT	431.188899999938	900.0000018	n/a	n/a	2021-01-20 14:14:53.508924	2021-01-20 14:14:54.148599	19	6.77123323333333	False	n/a	n/a	n/a	n/a
S210120	Conflict_Resolution	RIGHT	RIGHT	615.045899999927	1133.3333356	n/a	n/a	2021-01-20 14:14:55.301093	2021-01-20 14:14:56.123898	20	6.77123323333333	False	n/a	n/a	n/a	n/a
S210120	Conflict_Resolution	RIGHT	RIGHT	1127.04740000004	733.3333348	n/a	n/a	2021-01-20 14:14:56.877917	2021-01-20 14:14:58.212851	21	6.77123323333333	True	n/a	n/a	n/a	n/a
S210120	Conflict_Resolution	LEFT	LEFT	594.694300000015	1216.6666691	n/a	n/a	2021-01-20 14:14:59.449881	2021-01-20 14:15:00.252308	22	6.77123323333333	False	n/a	n/a	n/a	n/a
S210120	Conflict_Resolution	LEFT	LEFT	1446.32109999998	1166.666669	n/a	n/a	2021-01-20 14:15:01.438471	2021-01-20 14:15:03.093656	23	6.77123323333333	True	n/a	n/a	n/a	n/a
S210120	Conflict_Resolution	LEFT	LEFT	590.533200000095	916.6666685	n/a	n/a	2021-01-20 14:15:04.029747	2021-01-20 14:15:04.827780	24	6.77123323333333	False	n/a	n/a	n/a	n/a
S210120	Conflict_Resolution	RIGHT	RIGHT	759.5867	550.0000011	n/a	n/a	2021-01-20 14:15:05.396225	2021-01-20 14:15:06.364544	25	6.77123323333333	True	n/a	n/a	n/a	n/a
S210120	Conflict_Resolution	LEFT	LEFT	653.561999999965	950.0000019	n/a	n/a	2021-01-20 14:15:07.334520	2021-01-20 14:15:08.195911	26	6.77123323333333	True	n/a	n/a	n/a	n/a
S210120	Conflict_Resolution	LEFT	LEFT	585.195799999951	1300.0000026	n/a	n/a	2021-01-20 14:15:09.515317	2021-01-20 14:15:10.307883	27	6.77123323333333	False	n/a	n/a	n/a	n/a
S210120	Conflict_Resolution	RIGHT	RIGHT	448.944500000039	1100.0000022	n/a	n/a	2021-01-20 14:15:11.427875	2021-01-20 14:15:12.084171	28	6.77123323333333	False	n/a	n/a	n/a	n/a
S210120	Conflict_Resolution	LEFT	LEFT	433.292200000096	1050.0000021	n/a	n/a	2021-01-20 14:15:13.155339	2021-01-20 14:15:13.796973	29	6.77123323333333	False	n/a	n/a	n/a	n/a
S210120	Conflict_Resolution	RIGHT	RIGHT	664.947299999994	1483.3333363	n/a	n/a	2021-01-20 14:15:15.299360	2021-01-20 14:15:16.172586	30	6.77123323333333	True	n/a	n/a	n/a	n/a
S210120	Conflict_Resolution	LEFT	LEFT	533.889799999997	966.6666686	n/a	n/a	2021-01-20 14:15:17.158177	2021-01-20 14:15:17.899853	31	6.77123323333333	True	n/a	n/a	n/a	n/a
S210120	Conflict_Resolution	LEFT	LEFT	715.634300000033	1216.6666691	n/a	n/a	2021-01-20 14:15:19.137138	2021-01-20 14:15:20.061256	32	6.77123323333333	True	n/a	n/a	n/a	n/a
S210120	Conflict_Resolution	RIGHT	RIGHT	491.193899999985	1433.3333362	n/a	n/a	2021-01-20 14:15:21.513220	2021-01-20 14:15:22.213487	33	6.77123323333333	False	n/a	n/a	n/a	n/a
S210120	Conflict_Resolution	RIGHT	RIGHT	681.020500000045	1233.3333358	n/a	n/a	2021-01-20 14:15:23.468007	2021-01-20 14:15:24.357739	34	6.77123323333333	True	n/a	n/a	n/a	n/a
S210120	Conflict_Resolution	LEFT	LEFT	429.214800000068	1316.6666693	n/a	n/a	2021-01-20 14:15:25.695241	2021-01-20 14:15:26.333241	35	6.77123323333333	False	n/a	n/a	n/a	n/a
S210120	Conflict_Resolution	LEFT	LEFT	588.333999999918	783.3333349	n/a	n/a	2021-01-20 14:15:27.136430	2021-01-20 14:15:27.932977	36	6.77123323333333	False	n/a	n/a	n/a	n/a
S210120	Conflict_Resolution	RIGHT	RIGHT	585.027400000058	1466.6666696	n/a	n/a	2021-01-20 14:15:29.419181	2021-01-20 14:15:30.214740	37	6.77123323333333	True	n/a	n/a	n/a	n/a
S210120	Conflict_Resolution	RIGHT	RIGHT	725.335400000063	1333.333336	n/a	n/a	2021-01-20 14:15:31.566631	2021-01-20 14:15:32.500031	38	6.77123323333333	True	n/a	n/a	n/a	n/a
S210120	Conflict_Resolution	LEFT	LEFT	360.44830000003	1350.0000027	n/a	n/a	2021-01-20 14:15:33.867437	2021-01-20 14:15:34.436545	39	6.77123323333333	False	n/a	n/a	n/a	n/a
S210120	Conflict_Resolution	LEFT	LEFT	860.68309999996	1000.000002	n/a	n/a	2021-01-20 14:15:35.456124	2021-01-20 14:15:36.525397	40	6.77123323333333	True	n/a	n/a	n/a	n/a
S210120	Conflict_Resolution	LEFT	LEFT	747.930200000042	583.3333345	n/a	n/a	2021-01-20 14:15:37.128421	2021-01-20 14:15:38.085372	41	6.77123323333333	False	n/a	n/a	n/a	n/a
S210120	Conflict_Resolution	LEFT	LEFT	836.8506999999	516.6666677	n/a	n/a	2021-01-20 14:15:38.623887	2021-01-20 14:15:39.669018	42	6.77123323333333	True	n/a	n/a	n/a	n/a
S210120	Conflict_Resolution	RIGHT	RIGHT	497.300199999927	1266.6666692	n/a	n/a	2021-01-20 14:15:40.954977	2021-01-20 14:15:41.659956	43	6.77123323333333	False	n/a	n/a	n/a	n/a
S210120	Conflict_Resolution	RIGHT	RIGHT	1214.81960000006	950.0000019	n/a	n/a	2021-01-20 14:15:42.629132	2021-01-20 14:15:44.052509	44	6.77123323333333	True	n/a	n/a	n/a	n/a
S210120	Conflict_Resolution	LEFT	LEFT	626.064300000053	1466.6666696	n/a	n/a	2021-01-20 14:15:45.538284	2021-01-20 14:15:46.371856	45	6.77123323333333	True	n/a	n/a	n/a	n/a
S210120	Conflict_Resolution	RIGHT	RIGHT	647.806100000025	900.0000018	n/a	n/a	2021-01-20 14:15:47.292454	2021-01-20 14:15:48.149398	46	6.77123323333333	True	n/a	n/a	n/a	n/a
S210120	Conflict_Resolution	LEFT	LEFT	532.741699999974	950.0000019	n/a	n/a	2021-01-20 14:15:49.119310	2021-01-20 14:15:49.860277	47	6.77123323333333	False	n/a	n/a	n/a	n/a
S210120	Conflict_Resolution	RIGHT	RIGHT	622.933900000021	733.3333348	n/a	n/a	2021-01-20 14:15:50.613730	2021-01-20 14:15:51.444104	48	6.77123323333333	False	n/a	n/a	n/a	n/a
S210120	Conflict_Resolution	RIGHT	RIGHT	632.757599999991	650.0000013	n/a	n/a	2021-01-20 14:15:52.115310	2021-01-20 14:15:52.956241	49	6.77123323333333	False	n/a	n/a	n/a	n/a
S210120	Conflict_Resolution	RIGHT	RIGHT	590.531000000055	1316.6666693	n/a	n/a	2021-01-20 14:15:54.293829	2021-01-20 14:15:55.092263	50	6.77123323333333	True	n/a	n/a	n/a	n/a
S210120	Conflict_Resolution	RIGHT	RIGHT	579.7642	1416.6666695	n/a	n/a	2021-01-20 14:15:56.528914	2021-01-20 14:15:57.315810	51	6.77123323333333	True	n/a	n/a	n/a	n/a
S210120	Conflict_Resolution	RIGHT	RIGHT	550.781200000074	1366.6666694	n/a	n/a	2021-01-20 14:15:58.701673	2021-01-20 14:15:59.460462	52	6.77123323333333	True	n/a	n/a	n/a	n/a
S210120	Conflict_Resolution	RIGHT	RIGHT	516.345500000057	1216.6666691	n/a	n/a	2021-01-20 14:16:00.695555	2021-01-20 14:16:01.421342	53	6.77123323333333	True	n/a	n/a	n/a	n/a
S210120	Conflict_Resolution	LEFT	LEFT	858.169900000007	633.3333346	n/a	n/a	2021-01-20 14:16:02.074434	2021-01-20 14:16:03.141301	54	6.77123323333333	True	n/a	n/a	n/a	n/a
S210120	Conflict_Resolution	LEFT	LEFT	853.991599999972	1150.0000023	n/a	n/a	2021-01-20 14:16:04.310057	2021-01-20 14:16:05.371893	55	6.77123323333333	True	n/a	n/a	n/a	n/a
S210120	Conflict_Resolution	RIGHT	RIGHT	559.784499999978	933.3333352	n/a	n/a	2021-01-20 14:16:06.324359	2021-01-20 14:16:07.092216	56	6.77123323333333	False	n/a	n/a	n/a	n/a
S210120	Conflict_Resolution	RIGHT	RIGHT	766.480699999988	950.0000019	n/a	n/a	2021-01-20 14:16:08.061614	2021-01-20 14:16:09.036494	57	6.77123323333333	False	n/a	n/a	n/a	n/a
S210120	Conflict_Resolution	RIGHT	RIGHT	617.31450000002	883.3333351	n/a	n/a	2021-01-20 14:16:09.939241	2021-01-20 14:16:10.764306	58	6.77123323333333	False	n/a	n/a	n/a	n/a
S210120	Conflict_Resolution	RIGHT	RIGHT	602.28230000007	1283.3333359	n/a	n/a	2021-01-20 14:16:12.066256	2021-01-20 14:16:12.876830	59	6.77123323333333	True	n/a	n/a	n/a	n/a
S210120	Conflict_Resolution	RIGHT	RIGHT	831.328600000006	700.0000014	n/a	n/a	2021-01-20 14:16:13.596957	2021-01-20 14:16:14.635952	60	6.77123323333333	True	n/a	n/a	n/a	n/a
S210120	Conflict_Resolution	RIGHT	RIGHT	573.878100000002	1383.3333361	n/a	n/a	2021-01-20 14:16:16.038187	2021-01-20 14:16:16.820131	61	6.77123323333333	True	n/a	n/a	n/a	n/a
S210120	Conflict_Resolution	RIGHT	RIGHT	674.640999999838	650.0000013	n/a	n/a	2021-01-20 14:16:17.490038	2021-01-20 14:16:18.372797	62	6.77123323333333	True	n/a	n/a	n/a	n/a
S210120	Conflict_Resolution	RIGHT	RIGHT	1040.82070000004	683.3333347	n/a	n/a	2021-01-20 14:16:19.076038	2021-01-20 14:16:20.325306	63	6.77123323333333	True	n/a	n/a	n/a	n/a
S210120	Conflict_Resolution	RIGHT	RIGHT	538.684999999987	633.3333346	n/a	n/a	2021-01-20 14:16:20.978174	2021-01-20 14:16:21.724329	64	6.77123323333333	True	n/a	n/a	n/a	n/a
S210120	Conflict_Resolution	RIGHT	RIGHT	579.135000000178	850.0000017	n/a	n/a	2021-01-20 14:16:22.592827	2021-01-20 14:16:23.379969	65	6.77123323333333	False	n/a	n/a	n/a	n/a
S210120	Conflict_Resolution	RIGHT	RIGHT	648.439700000154	883.3333351	n/a	n/a	2021-01-20 14:16:24.283610	2021-01-20 14:16:25.140551	66	6.77123323333333	True	n/a	n/a	n/a	n/a
S210120	Conflict_Resolution	RIGHT	RIGHT	823.686100000032	683.3333347	n/a	n/a	2021-01-20 14:16:25.844175	2021-01-20 14:16:26.875928	67	6.77123323333333	False	n/a	n/a	n/a	n/a
S210120	Conflict_Resolution	LEFT	LEFT	508.796800000027	1200.0000024	n/a	n/a	2021-01-20 14:16:28.095594	2021-01-20 14:16:28.813062	68	6.77123323333333	False	n/a	n/a	n/a	n/a
S210120	Conflict_Resolution	RIGHT	RIGHT	774.298899999849	583.3333345	n/a	n/a	2021-01-20 14:16:29.414426	2021-01-20 14:16:30.397287	69	6.77123323333333	True	n/a	n/a	n/a	n/a
S210120	Conflict_Resolution	RIGHT	RIGHT	544.730399999935	1083.3333355	n/a	n/a	2021-01-20 14:16:31.499973	2021-01-20 14:16:32.250862	70	6.77123323333333	True	n/a	n/a	n/a	n/a
S210120	Conflict_Resolution	RIGHT	RIGHT	749.531599999955	783.3333349	n/a	n/a	2021-01-20 14:16:33.054827	2021-01-20 14:16:34.013254	71	6.77123323333333	False	n/a	n/a	n/a	n/a
S210120	Conflict_Resolution	RIGHT	RIGHT	823.689399999921	500.000001	n/a	n/a	2021-01-20 14:16:34.532475	2021-01-20 14:16:35.564895	72	6.77123323333333	True	n/a	n/a	n/a	n/a
S210120	Conflict_Resolution	LEFT	LEFT	532.17410000002	1000.000002	n/a	n/a	2021-01-20 14:16:36.583819	2021-01-20 14:16:37.323778	73	6.77123323333333	False	n/a	n/a	n/a	n/a
S210120	Conflict_Resolution	RIGHT	RIGHT	640.369700000065	1133.3333356	n/a	n/a	2021-01-20 14:16:38.476250	2021-01-20 14:16:39.323853	74	6.77123323333333	True	n/a	n/a	n/a	n/a
S210120	Conflict_Resolution	RIGHT	RIGHT	469.927299999881	983.3333353	n/a	n/a	2021-01-20 14:16:40.326219	2021-01-20 14:16:41.004712	75	6.77123323333333	False	n/a	n/a	n/a	n/a
S210120	Conflict_Resolution	LEFT	LEFT	669.106199999987	566.6666678	n/a	n/a	2021-01-20 14:16:41.591110	2021-01-20 14:16:42.469196	76	6.77123323333333	False	n/a	n/a	n/a	n/a
S210120	Conflict_Resolution	LEFT	LEFT	535.875799999985	1100.0000022	n/a	n/a	2021-01-20 14:16:43.588518	2021-01-20 14:16:44.331179	77	6.77123323333333	False	n/a	n/a	n/a	n/a
S210120	Conflict_Resolution	LEFT	LEFT	436.571399999821	1400.0000028	n/a	n/a	2021-01-20 14:16:45.753281	2021-01-20 14:16:46.397601	78	6.77123323333333	False	n/a	n/a	n/a	n/a
S210120	Conflict_Resolution	LEFT	LEFT	838.241200000084	533.3333344	n/a	n/a	2021-01-20 14:16:46.950089	2021-01-20 14:16:47.996459	79	6.77123323333333	True	n/a	n/a	n/a	n/a
S210120	Conflict_Resolution	RIGHT	RIGHT	596.272599999793	600.0000012	n/a	n/a	2021-01-20 14:16:48.616319	2021-01-20 14:16:49.420396	80	6.77123323333333	False	n/a	n/a	n/a	n/a
S210120	Conflict_Resolution	RIGHT	RIGHT	642.795800000158	1433.3333362	n/a	n/a	2021-01-20 14:16:50.873099	2021-01-20 14:16:51.724329	81	6.77123323333333	True	n/a	n/a	n/a	n/a
S210120	Conflict_Resolution	RIGHT	RIGHT	461.785500000133	1183.3333357	n/a	n/a	2021-01-20 14:16:52.926871	2021-01-20 14:16:53.596400	82	6.77123323333333	True	n/a	n/a	n/a	n/a
S210120	Conflict_Resolution	LEFT	LEFT	718.543800000134	733.3333348	n/a	n/a	2021-01-20 14:16:54.349386	2021-01-20 14:16:55.277264	83	6.77123323333333	False	n/a	n/a	n/a	n/a
S210120	Conflict_Resolution	RIGHT	RIGHT	616.897600000129	1033.3333354	n/a	n/a	2021-01-20 14:16:56.331605	2021-01-20 14:16:57.157438	84	6.77123323333333	True	n/a	n/a	n/a	n/a
S210120	Conflict_Resolution	LEFT	LEFT	605.548900000031	516.6666677	n/a	n/a	2021-01-20 14:16:57.694968	2021-01-20 14:16:58.508203	85	6.77123323333333	False	n/a	n/a	n/a	n/a
S210120	Conflict_Resolution	RIGHT	RIGHT	407.870699999876	1283.3333359	n/a	n/a	2021-01-20 14:16:59.812698	2021-01-20 14:17:00.428094	86	6.77123323333333	False	n/a	n/a	n/a	n/a
S210120	Conflict_Resolution	LEFT	LEFT	615.134099999977	900.0000018	n/a	n/a	2021-01-20 14:17:01.349180	2021-01-20 14:17:02.173760	87	6.77123323333333	True	n/a	n/a	n/a	n/a
S210120	Conflict_Resolution	LEFT	LEFT	708.202700000129	1366.6666694	n/a	n/a	2021-01-20 14:17:03.559591	2021-01-20 14:17:04.476558	88	6.77123323333333	False	n/a	n/a	n/a	n/a
S210120	Conflict_Resolution	RIGHT	RIGHT	459.273400000029	1216.6666691	n/a	n/a	2021-01-20 14:17:05.712678	2021-01-20 14:17:06.380345	89	6.77123323333333	False	n/a	n/a	n/a	n/a
S210120	Conflict_Resolution	LEFT	LEFT	522.080599999981	1450.0000029	n/a	n/a	2021-01-20 14:17:07.850453	2021-01-20 14:17:08.579295	90	6.77123323333333	False	n/a	n/a	n/a	n/a
S210120	Conflict_Resolution	LEFT	LEFT	560.135599999967	1116.6666689	n/a	n/a	2021-01-20 14:17:09.716106	2021-01-20 14:17:10.485439	91	6.77123323333333	False	n/a	n/a	n/a	n/a
S210120	Conflict_Resolution	LEFT	LEFT	666.467600000033	633.3333346	n/a	n/a	2021-01-20 14:17:11.137740	2021-01-20 14:17:12.013526	92	6.77123323333333	False	n/a	n/a	n/a	n/a
S210120	Conflict_Resolution	LEFT	LEFT	889.503299999888	850.0000017	n/a	n/a	2021-01-20 14:17:12.882506	2021-01-20 14:17:13.980429	93	6.77123323333333	True	n/a	n/a	n/a	n/a
S210120	Conflict_Resolution	RIGHT	RIGHT	499.222500000087	833.333335	n/a	n/a	2021-01-20 14:17:14.832877	2021-01-20 14:17:15.540307	94	6.77123323333333	False	n/a	n/a	n/a	n/a
S210120	Conflict_Resolution	LEFT	LEFT	537.678000000142	616.6666679	n/a	n/a	2021-01-20 14:17:16.178951	2021-01-20 14:17:16.925975	95	6.77123323333333	False	n/a	n/a	n/a	n/a
S210120	Conflict_Resolution	LEFT	LEFT	688.651299999947	1250.0000025	n/a	n/a	2021-01-20 14:17:18.195662	2021-01-20 14:17:19.093654	96	6.77123323333333	True	n/a	n/a	n/a	n/a
S210120	Conflict_Resolution	LEFT	LEFT	717.22950000003	733.3333348	n/a	n/a	2021-01-20 14:17:19.846452	2021-01-20 14:17:20.772063	97	6.77123323333333	True	n/a	n/a	n/a	n/a
S210120	Conflict_Resolution	RIGHT	RIGHT	709.746400000085	983.3333353	n/a	n/a	2021-01-20 14:17:21.774919	2021-01-20 14:17:22.691567	98	6.77123323333333	True	n/a	n/a	n/a	n/a
S210120	Conflict_Resolution	RIGHT	RIGHT	713.006900000209	1083.3333355	n/a	n/a	2021-01-20 14:17:23.794728	2021-01-20 14:17:24.717586	99	6.77123323333333	False	n/a	n/a	n/a	n/a
S210120	Conflict_Resolution	RIGHT	RIGHT	851.08009999999	600.0000012	n/a	n/a	2021-01-20 14:17:25.337404	2021-01-20 14:17:26.397684	100	6.77123323333333	True	n/a	n/a	n/a	n/a
S210120	Conflict_Resolution	LEFT	LEFT	747.445799999923	766.6666682	n/a	n/a	2021-01-20 14:17:27.185075	2021-01-20 14:17:28.140127	101	6.77123323333333	True	n/a	n/a	n/a	n/a
S210120	Conflict_Resolution	LEFT	LEFT	634.163599999965	816.6666683	n/a	n/a	2021-01-20 14:17:28.977782	2021-01-20 14:17:29.820454	102	6.77123323333333	True	n/a	n/a	n/a	n/a
S210120	Conflict_Resolution	LEFT	LEFT	518.48700000005	1316.6666693	n/a	n/a	2021-01-20 14:17:31.157585	2021-01-20 14:17:31.884204	103	6.77123323333333	True	n/a	n/a	n/a	n/a
S210120	Conflict_Resolution	LEFT	LEFT	490.969100000029	1416.6666695	n/a	n/a	2021-01-20 14:17:33.321603	2021-01-20 14:17:34.019953	104	6.77123323333333	True	n/a	n/a	n/a	n/a
S210120	Conflict_Resolution	LEFT	LEFT	778.63780000007	866.6666684	n/a	n/a	2021-01-20 14:17:34.905607	2021-01-20 14:17:35.892451	105	6.77123323333333	False	n/a	n/a	n/a	n/a
S210120	Conflict_Resolution	LEFT	LEFT	528.917200000024	1066.6666688	n/a	n/a	2021-01-20 14:17:36.979691	2021-01-20 14:17:37.716515	106	6.77123323333333	True	n/a	n/a	n/a	n/a
S210120	Conflict_Resolution	RIGHT	LEFT	687.965800000029	850.0000017	n/a	n/a	2021-01-20 14:17:38.588201	2021-01-20 14:17:39.484166	107	6.77123323333333	True	n/a	n/a	n/a	n/a
S210120	Conflict_Resolution	RIGHT	RIGHT	886.666099999957	550.0000011	n/a	n/a	2021-01-20 14:17:40.053166	2021-01-20 14:17:41.148015	108	6.77123323333333	False	n/a	n/a	n/a	n/a
S210120	Conflict_Resolution	RIGHT	RIGHT	619.488000000047	750.0000015	n/a	n/a	2021-01-20 14:17:41.920714	2021-01-20 14:17:42.749211	109	6.77123323333333	False	n/a	n/a	n/a	n/a
S210120	Conflict_Resolution	RIGHT	RIGHT	524.670600000036	1150.0000023	n/a	n/a	2021-01-20 14:17:43.919866	2021-01-20 14:17:44.653462	110	6.77123323333333	False	n/a	n/a	n/a	n/a
S210120	Conflict_Resolution	LEFT	LEFT	587.211399999887	1200.0000024	n/a	n/a	2021-01-20 14:17:45.872890	2021-01-20 14:17:46.667909	111	6.77123323333333	True	n/a	n/a	n/a	n/a
S210120	Conflict_Resolution	RIGHT	RIGHT	756.374600000072	1000.000002	n/a	n/a	2021-01-20 14:17:47.688005	2021-01-20 14:17:48.652697	112	6.77123323333333	True	n/a	n/a	n/a	n/a
S210120	Conflict_Resolution	RIGHT	RIGHT	668.849500000078	1183.3333357	n/a	n/a	2021-01-20 14:17:49.855569	2021-01-20 14:17:50.733351	113	6.77123323333333	False	n/a	n/a	n/a	n/a
S210120	Conflict_Resolution	LEFT	LEFT	615.992200000164	683.3333347	n/a	n/a	2021-01-20 14:17:51.435956	2021-01-20 14:17:52.261419	114	6.77123323333333	False	n/a	n/a	n/a	n/a
S210120	Conflict_Resolution	LEFT	LEFT	753.36070000003	866.6666684	n/a	n/a	2021-01-20 14:17:53.146408	2021-01-20 14:17:54.109360	115	6.77123323333333	True	n/a	n/a	n/a	n/a
S210120	Conflict_Resolution	LEFT	LEFT	708.386100000098	766.6666682	n/a	n/a	2021-01-20 14:17:54.896251	2021-01-20 14:17:55.812988	116	6.77123323333333	False	n/a	n/a	n/a	n/a
S210120	Conflict_Resolution	LEFT	LEFT	572.973099999899	1350.0000027	n/a	n/a	2021-01-20 14:17:57.183350	2021-01-20 14:17:57.965106	117	6.77123323333333	True	n/a	n/a	n/a	n/a
S210120	Conflict_Resolution	LEFT	LEFT	590.237299999899	716.6666681	n/a	n/a	2021-01-20 14:17:58.702115	2021-01-20 14:17:59.499073	118	6.77123323333333	False	n/a	n/a	n/a	n/a
S210120	Conflict_Resolution	LEFT	LEFT	593.407999999954	1050.0000021	n/a	n/a	2021-01-20 14:18:00.570407	2021-01-20 14:18:01.371822	119	6.77123323333333	True	n/a	n/a	n/a	n/a
S210120	Conflict_Resolution	LEFT	LEFT	864.250200000015	666.666668	n/a	n/a	2021-01-20 14:18:02.059755	2021-01-20 14:18:03.132463	120	6.77123323333333	False	n/a	n/a	n/a	n/a
S210120	Conflict_Resolution	LEFT	LEFT	617.604599999822	1266.6666692	n/a	n/a	2021-01-20 14:18:04.418670	2021-01-20 14:18:05.245544	121	6.77123323333333	True	n/a	n/a	n/a	n/a
S210120	Conflict_Resolution	LEFT	LEFT	447.667699999784	1066.6666688	n/a	n/a	2021-01-20 14:18:06.332799	2021-01-20 14:18:06.988283	122	6.77123323333333	False	n/a	n/a	n/a	n/a
S210120	Conflict_Resolution	LEFT	LEFT	608.552599999939	1100.0000022	n/a	n/a	2021-01-20 14:18:08.107381	2021-01-20 14:18:08.924615	123	6.77123323333333	True	n/a	n/a	n/a	n/a
S210120	Conflict_Resolution	LEFT	LEFT	580.65959999999	783.3333349	n/a	n/a	2021-01-20 14:18:09.727007	2021-01-20 14:18:10.517488	124	6.77123323333333	True	n/a	n/a	n/a	n/a
S210120	Conflict_Resolution	LEFT	LEFT	525.983399999859	1116.6666689	n/a	n/a	2021-01-20 14:18:11.654054	2021-01-20 14:18:12.388229	125	6.77123323333333	True	n/a	n/a	n/a	n/a
S210120	Conflict_Resolution	LEFT	LEFT	491.082500000175	1416.6666695	n/a	n/a	2021-01-20 14:18:13.825462	2021-01-20 14:18:14.524661	126	6.77123323333333	False	n/a	n/a	n/a	n/a
S210120	Conflict_Resolution	LEFT	LEFT	548.054200000024	1400.0000028	n/a	n/a	2021-01-20 14:18:15.943821	2021-01-20 14:18:16.700055	127	6.77123323333333	True	n/a	n/a	n/a	n/a
S210120	Conflict_Resolution	RIGHT	RIGHT	1195.11220000004	833.333335	n/a	n/a	2021-01-20 14:18:17.553389	2021-01-20 14:18:18.956051	128	6.77123323333333	True	n/a	n/a	n/a	n/a
S210120	Conflict_Resolution	RIGHT	RIGHT	582.021700000041	583.3333345	n/a	n/a	2021-01-20 14:18:19.557916	2021-01-20 14:18:20.349488	129	6.77123323333333	False	n/a	n/a	n/a	n/a
S210120	Conflict_Resolution	RIGHT	RIGHT	449.512299999924	1033.3333354	n/a	n/a	2021-01-20 14:18:21.402743	2021-01-20 14:18:22.060616	130	6.77123323333333	False	n/a	n/a	n/a	n/a
S210120	Conflict_Resolution	LEFT	LEFT	592.762199999925	666.666668	n/a	n/a	2021-01-20 14:18:22.747742	2021-01-20 14:18:23.547798	131	6.77123323333333	True	n/a	n/a	n/a	n/a
S210120	Conflict_Resolution	RIGHT	RIGHT	691.25310000004	1050.0000021	n/a	n/a	2021-01-20 14:18:24.616828	2021-01-20 14:18:25.516736	132	6.77123323333333	True	n/a	n/a	n/a	n/a
S210120	Conflict_Resolution	RIGHT	RIGHT	491.478500000085	1000.000002	n/a	n/a	2021-01-20 14:18:26.537043	2021-01-20 14:18:27.237599	133	6.77123323333333	False	n/a	n/a	n/a	n/a
S210120	Conflict_Resolution	LEFT	LEFT	613.511799999969	683.3333347	n/a	n/a	2021-01-20 14:18:27.942139	2021-01-20 14:18:28.764376	134	6.77123323333333	True	n/a	n/a	n/a	n/a
S210120	Conflict_Resolution	LEFT	LEFT	717.04550000004	566.6666678	n/a	n/a	2021-01-20 14:18:29.350785	2021-01-20 14:18:30.276599	135	6.77123323333333	True	n/a	n/a	n/a	n/a
S210120	Conflict_Resolution	LEFT	LEFT	730.364999999892	1250.0000025	n/a	n/a	2021-01-20 14:18:31.546193	2021-01-20 14:18:32.484936	136	6.77123323333333	False	n/a	n/a	n/a	n/a
S210120	Conflict_Resolution	RIGHT	RIGHT	1005.82869999994	750.0000015	n/a	n/a	2021-01-20 14:18:33.254711	2021-01-20 14:18:34.467785	137	6.77123323333333	True	n/a	n/a	n/a	n/a
S210120	Conflict_Resolution	LEFT	LEFT	554.815299999973	816.6666683	n/a	n/a	2021-01-20 14:18:35.305022	2021-01-20 14:18:36.068486	138	6.77123323333333	False	n/a	n/a	n/a	n/a
S210120	Conflict_Resolution	RIGHT	RIGHT	625.901200000044	800.0000016	n/a	n/a	2021-01-20 14:18:36.889998	2021-01-20 14:18:37.725332	139	6.77123323333333	True	n/a	n/a	n/a	n/a
S210120	Conflict_Resolution	RIGHT	RIGHT	562.582900000052	800.0000016	n/a	n/a	2021-01-20 14:18:38.545647	2021-01-20 14:18:39.317378	140	6.77123323333333	False	n/a	n/a	n/a	n/a
S210120	Conflict_Resolution	LEFT	LEFT	594.886600000109	616.6666679	n/a	n/a	2021-01-20 14:18:39.953147	2021-01-20 14:18:40.755152	141	6.77123323333333	True	n/a	n/a	n/a	n/a
S210120	Conflict_Resolution	RIGHT	RIGHT	815.072899999905	533.3333344	n/a	n/a	2021-01-20 14:18:41.308626	2021-01-20 14:18:42.332646	142	6.77123323333333	True	n/a	n/a	n/a	n/a
S210120	Conflict_Resolution	RIGHT	RIGHT	648.417399999971	1100.0000022	n/a	n/a	2021-01-20 14:18:43.451848	2021-01-20 14:18:44.308206	143	6.77123323333333	True	n/a	n/a	n/a	n/a
S210120	Conflict_Resolution	RIGHT	RIGHT	549.083399999972	1366.6666694	n/a	n/a	2021-01-20 14:18:45.695087	2021-01-20 14:18:46.452222	144	6.77123323333333	False	n/a	n/a	n/a	n/a
S210120	Conflict_Resolution	LEFT	LEFT	514.090399999986	850.0000017	n/a	n/a	2021-01-20 14:18:47.322027	2021-01-20 14:18:48.045755	145	6.77123323333333	False	n/a	n/a	n/a	n/a
S210120	Conflict_Resolution	LEFT	LEFT	613.194400000111	533.3333344	n/a	n/a	2021-01-20 14:18:48.598654	2021-01-20 14:18:49.419891	146	6.77123323333333	False	n/a	n/a	n/a	n/a
S210120	Conflict_Resolution	LEFT	LEFT	426.505099999986	1466.6666696	n/a	n/a	2021-01-20 14:18:50.906095	2021-01-20 14:18:51.540535	147	6.77123323333333	False	n/a	n/a	n/a	n/a
S210120	Conflict_Resolution	RIGHT	RIGHT	526.785100000097	1333.333336	n/a	n/a	2021-01-20 14:18:52.893754	2021-01-20 14:18:53.628005	148	6.77123323333333	False	n/a	n/a	n/a	n/a
S210120	Conflict_Resolution	RIGHT	RIGHT	522.563300000002	1233.3333358	n/a	n/a	2021-01-20 14:18:54.881632	2021-01-20 14:18:55.612187	149	6.77123323333333	False	n/a	n/a	n/a	n/a
S210120	Conflict_Resolution	RIGHT	RIGHT	458.152299999938	1466.6666696	n/a	n/a	2021-01-20 14:18:57.098685	2021-01-20 14:18:57.765073	150	6.77123323333333	False	n/a	n/a	n/a	n/a
S210120	Conflict_Resolution	RIGHT	RIGHT	423.475300000064	1316.6666693	n/a	n/a	2021-01-20 14:18:59.100542	2021-01-20 14:18:59.732174	151	6.77123323333333	False	n/a	n/a	n/a	n/a
S210120	Conflict_Resolution	LEFT	LEFT	624.114299999974	1300.0000026	n/a	n/a	2021-01-20 14:19:01.051827	2021-01-20 14:19:01.885695	152	6.77123323333333	True	n/a	n/a	n/a	n/a
S210120	Conflict_Resolution	RIGHT	RIGHT	540.863900000204	700.0000014	n/a	n/a	2021-01-20 14:19:02.606838	2021-01-20 14:19:03.357421	153	6.77123323333333	False	n/a	n/a	n/a	n/a
S210120	Conflict_Resolution	RIGHT	RIGHT	873.685900000055	1266.6666692	n/a	n/a	2021-01-20 14:19:04.642673	2021-01-20 14:19:05.723881	154	6.77123323333333	True	n/a	n/a	n/a	n/a
S210120	Conflict_Resolution	LEFT	LEFT	479.041600000073	1150.0000023	n/a	n/a	2021-01-20 14:19:06.893550	2021-01-20 14:19:07.579983	155	6.77123323333333	False	n/a	n/a	n/a	n/a
S210120	Conflict_Resolution	RIGHT	RIGHT	733.518300000014	933.3333352	n/a	n/a	2021-01-20 14:19:08.534477	2021-01-20 14:19:09.475846	156	6.77123323333333	True	n/a	n/a	n/a	n/a
S210120	Conflict_Resolution	LEFT	LEFT	550.511099999994	1166.666669	n/a	n/a	2021-01-20 14:19:10.661591	2021-01-20 14:19:11.419889	157	6.77123323333333	False	n/a	n/a	n/a	n/a
S210120	Conflict_Resolution	RIGHT	RIGHT	559.588100000155	533.3333344	n/a	n/a	2021-01-20 14:19:11.972425	2021-01-20 14:19:12.741367	158	6.77123323333333	False	n/a	n/a	n/a	n/a
S210120	Conflict_Resolution	LEFT	LEFT	422.462699999869	900.0000018	n/a	n/a	2021-01-20 14:19:13.661428	2021-01-20 14:19:14.292557	159	6.77123323333333	False	n/a	n/a	n/a	n/a
S210120	Conflict_Resolution	LEFT	LEFT	553.033799999866	1266.6666692	n/a	n/a	2021-01-20 14:19:15.579291	2021-01-20 14:19:16.340629	160	6.77123323333333	False	n/a	n/a	n/a	n/a
