"Participant"	"Task"	"Stimulus_Side"	"Response"	"RT"	"ITI"	"Previous_Response"	"Previous_RT"	"Stop_Signal"	"Stop_Signal_RT"	"Conflict"	"Cue_Response"	"Cue_Response_RT"	"Trial_Onset"	"Trial_End"	"Trial_Order"	"Duration"
"S210120"	"Conflict_Resolution"	"RIGHT"	"RIGHT"	1106.88579999999	633.3333346	n/a	n/a	n/a	n/a	"False"	n/a	n/a	"2021-01-20 14:14:14.577198"	"2021-01-20 14:14:15.892693"	1	6.77123323333333
"S210120"	"Conflict_Resolution"	"RIGHT"	"RIGHT"	661.460299999931	1383.3333361	n/a	n/a	n/a	n/a	"False"	n/a	n/a	"2021-01-20 14:14:17.295014"	"2021-01-20 14:14:18.166704"	2	6.77123323333333
"S210120"	"Conflict_Resolution"	"RIGHT"	"RIGHT"	809.446199999911	1050.0000021	n/a	n/a	n/a	n/a	"False"	n/a	n/a	"2021-01-20 14:14:19.236634"	"2021-01-20 14:14:20.254311"	3	6.77123323333333
"S210120"	"Conflict_Resolution"	"LEFT"	"LEFT"	798.646599999984	1500.000003	n/a	n/a	n/a	n/a	"False"	n/a	n/a	"2021-01-20 14:14:21.773447"	"2021-01-20 14:14:22.780969"	4	6.77123323333333
"S210120"	"Conflict_Resolution"	"LEFT"	"LEFT"	756.131900000014	966.6666686	n/a	n/a	n/a	n/a	"False"	n/a	n/a	"2021-01-20 14:14:23.768628"	"2021-01-20 14:14:24.732141"	5	6.77123323333333
"S210120"	"Conflict_Resolution"	"LEFT"	"LEFT"	1333.36970000005	583.3333345	n/a	n/a	n/a	n/a	"True"	n/a	n/a	"2021-01-20 14:14:25.335727"	"2021-01-20 14:14:26.875804"	6	6.77123323333333
"S210120"	"Conflict_Resolution"	"LEFT"	"LEFT"	843.591700000047	1450.0000029	n/a	n/a	n/a	n/a	"True"	n/a	n/a	"2021-01-20 14:14:28.344512"	"2021-01-20 14:14:29.397042"	7	6.77123323333333
"S210120"	"Conflict_Resolution"	"RIGHT"	"RIGHT"	481.669900000043	1483.3333363	n/a	n/a	n/a	n/a	"False"	n/a	n/a	"2021-01-20 14:14:30.898737"	"2021-01-20 14:14:31.588171"	8	6.77123323333333
"S210120"	"Conflict_Resolution"	"LEFT"	"LEFT"	975.747800000022	916.6666685	n/a	n/a	n/a	n/a	"True"	n/a	n/a	"2021-01-20 14:14:32.524995"	"2021-01-20 14:14:33.708234"	9	6.77123323333333
"S210120"	"Conflict_Resolution"	"LEFT"	"LEFT"	560.409100000015	1500.000003	n/a	n/a	n/a	n/a	"True"	n/a	n/a	"2021-01-20 14:14:35.227444"	"2021-01-20 14:14:35.997398"	10	6.77123323333333
"S210120"	"Conflict_Resolution"	"RIGHT"	"RIGHT"	618.337300000007	1416.6666695	n/a	n/a	n/a	n/a	"False"	n/a	n/a	"2021-01-20 14:14:37.433822"	"2021-01-20 14:14:38.260294"	11	6.77123323333333
"S210120"	"Conflict_Resolution"	"LEFT"	"LEFT"	825.70469999996	1016.6666687	n/a	n/a	n/a	n/a	"False"	n/a	n/a	"2021-01-20 14:14:39.298645"	"2021-01-20 14:14:40.331873"	12	6.77123323333333
"S210120"	"Conflict_Resolution"	"LEFT"	"LEFT"	1318.65419999997	1366.6666694	n/a	n/a	n/a	n/a	"True"	n/a	n/a	"2021-01-20 14:14:41.718267"	"2021-01-20 14:14:43.244810"	13	6.77123323333333
"S210120"	"Conflict_Resolution"	"RIGHT"	"RIGHT"	1172.07709999991	783.3333349	n/a	n/a	n/a	n/a	"True"	n/a	n/a	"2021-01-20 14:14:44.048749"	"2021-01-20 14:14:45.427901"	14	6.77123323333333
"S210120"	"Conflict_Resolution"	"RIGHT"	"RIGHT"	736.248299999943	500.000001	n/a	n/a	n/a	n/a	"False"	n/a	n/a	"2021-01-20 14:14:45.948510"	"2021-01-20 14:14:46.892901"	15	6.77123323333333
"S210120"	"Conflict_Resolution"	"LEFT"	"LEFT"	658.709799999997	1016.6666687	n/a	n/a	n/a	n/a	"True"	n/a	n/a	"2021-01-20 14:14:47.930150"	"2021-01-20 14:14:48.797709"	16	6.77123323333333
"S210120"	"Conflict_Resolution"	"RIGHT"	"RIGHT"	677.358499999968	1150.0000023	n/a	n/a	n/a	n/a	"True"	n/a	n/a	"2021-01-20 14:14:49.966875"	"2021-01-20 14:14:50.853494"	17	6.77123323333333
"S210120"	"Conflict_Resolution"	"LEFT"	"LEFT"	791.497100000015	716.6666681	n/a	n/a	n/a	n/a	"True"	n/a	n/a	"2021-01-20 14:14:51.588545"	"2021-01-20 14:14:52.588008"	18	6.77123323333333
"S210120"	"Conflict_Resolution"	"RIGHT"	"RIGHT"	431.188899999938	900.0000018	n/a	n/a	n/a	n/a	"False"	n/a	n/a	"2021-01-20 14:14:53.508924"	"2021-01-20 14:14:54.148599"	19	6.77123323333333
"S210120"	"Conflict_Resolution"	"RIGHT"	"RIGHT"	615.045899999927	1133.3333356	n/a	n/a	n/a	n/a	"False"	n/a	n/a	"2021-01-20 14:14:55.301093"	"2021-01-20 14:14:56.123898"	20	6.77123323333333
"S210120"	"Conflict_Resolution"	"RIGHT"	"RIGHT"	1127.04740000004	733.3333348	n/a	n/a	n/a	n/a	"True"	n/a	n/a	"2021-01-20 14:14:56.877917"	"2021-01-20 14:14:58.212851"	21	6.77123323333333
"S210120"	"Conflict_Resolution"	"LEFT"	"LEFT"	594.694300000015	1216.6666691	n/a	n/a	n/a	n/a	"False"	n/a	n/a	"2021-01-20 14:14:59.449881"	"2021-01-20 14:15:00.252308"	22	6.77123323333333
"S210120"	"Conflict_Resolution"	"LEFT"	"LEFT"	1446.32109999998	1166.666669	n/a	n/a	n/a	n/a	"True"	n/a	n/a	"2021-01-20 14:15:01.438471"	"2021-01-20 14:15:03.093656"	23	6.77123323333333
"S210120"	"Conflict_Resolution"	"LEFT"	"LEFT"	590.533200000095	916.6666685	n/a	n/a	n/a	n/a	"False"	n/a	n/a	"2021-01-20 14:15:04.029747"	"2021-01-20 14:15:04.827780"	24	6.77123323333333
"S210120"	"Conflict_Resolution"	"RIGHT"	"RIGHT"	759.5867	550.0000011	n/a	n/a	n/a	n/a	"True"	n/a	n/a	"2021-01-20 14:15:05.396225"	"2021-01-20 14:15:06.364544"	25	6.77123323333333
"S210120"	"Conflict_Resolution"	"LEFT"	"LEFT"	653.561999999965	950.0000019	n/a	n/a	n/a	n/a	"True"	n/a	n/a	"2021-01-20 14:15:07.334520"	"2021-01-20 14:15:08.195911"	26	6.77123323333333
"S210120"	"Conflict_Resolution"	"LEFT"	"LEFT"	585.195799999951	1300.0000026	n/a	n/a	n/a	n/a	"False"	n/a	n/a	"2021-01-20 14:15:09.515317"	"2021-01-20 14:15:10.307883"	27	6.77123323333333
"S210120"	"Conflict_Resolution"	"RIGHT"	"RIGHT"	448.944500000039	1100.0000022	n/a	n/a	n/a	n/a	"False"	n/a	n/a	"2021-01-20 14:15:11.427875"	"2021-01-20 14:15:12.084171"	28	6.77123323333333
"S210120"	"Conflict_Resolution"	"LEFT"	"LEFT"	433.292200000096	1050.0000021	n/a	n/a	n/a	n/a	"False"	n/a	n/a	"2021-01-20 14:15:13.155339"	"2021-01-20 14:15:13.796973"	29	6.77123323333333
"S210120"	"Conflict_Resolution"	"RIGHT"	"RIGHT"	664.947299999994	1483.3333363	n/a	n/a	n/a	n/a	"True"	n/a	n/a	"2021-01-20 14:15:15.299360"	"2021-01-20 14:15:16.172586"	30	6.77123323333333
"S210120"	"Conflict_Resolution"	"LEFT"	"LEFT"	533.889799999997	966.6666686	n/a	n/a	n/a	n/a	"True"	n/a	n/a	"2021-01-20 14:15:17.158177"	"2021-01-20 14:15:17.899853"	31	6.77123323333333
"S210120"	"Conflict_Resolution"	"LEFT"	"LEFT"	715.634300000033	1216.6666691	n/a	n/a	n/a	n/a	"True"	n/a	n/a	"2021-01-20 14:15:19.137138"	"2021-01-20 14:15:20.061256"	32	6.77123323333333
"S210120"	"Conflict_Resolution"	"RIGHT"	"RIGHT"	491.193899999985	1433.3333362	n/a	n/a	n/a	n/a	"False"	n/a	n/a	"2021-01-20 14:15:21.513220"	"2021-01-20 14:15:22.213487"	33	6.77123323333333
"S210120"	"Conflict_Resolution"	"RIGHT"	"RIGHT"	681.020500000045	1233.3333358	n/a	n/a	n/a	n/a	"True"	n/a	n/a	"2021-01-20 14:15:23.468007"	"2021-01-20 14:15:24.357739"	34	6.77123323333333
"S210120"	"Conflict_Resolution"	"LEFT"	"LEFT"	429.214800000068	1316.6666693	n/a	n/a	n/a	n/a	"False"	n/a	n/a	"2021-01-20 14:15:25.695241"	"2021-01-20 14:15:26.333241"	35	6.77123323333333
"S210120"	"Conflict_Resolution"	"LEFT"	"LEFT"	588.333999999918	783.3333349	n/a	n/a	n/a	n/a	"False"	n/a	n/a	"2021-01-20 14:15:27.136430"	"2021-01-20 14:15:27.932977"	36	6.77123323333333
"S210120"	"Conflict_Resolution"	"RIGHT"	"RIGHT"	585.027400000058	1466.6666696	n/a	n/a	n/a	n/a	"True"	n/a	n/a	"2021-01-20 14:15:29.419181"	"2021-01-20 14:15:30.214740"	37	6.77123323333333
"S210120"	"Conflict_Resolution"	"RIGHT"	"RIGHT"	725.335400000063	1333.333336	n/a	n/a	n/a	n/a	"True"	n/a	n/a	"2021-01-20 14:15:31.566631"	"2021-01-20 14:15:32.500031"	38	6.77123323333333
"S210120"	"Conflict_Resolution"	"LEFT"	"LEFT"	360.44830000003	1350.0000027	n/a	n/a	n/a	n/a	"False"	n/a	n/a	"2021-01-20 14:15:33.867437"	"2021-01-20 14:15:34.436545"	39	6.77123323333333
"S210120"	"Conflict_Resolution"	"LEFT"	"LEFT"	860.68309999996	1000.000002	n/a	n/a	n/a	n/a	"True"	n/a	n/a	"2021-01-20 14:15:35.456124"	"2021-01-20 14:15:36.525397"	40	6.77123323333333
"S210120"	"Conflict_Resolution"	"LEFT"	"LEFT"	747.930200000042	583.3333345	n/a	n/a	n/a	n/a	"False"	n/a	n/a	"2021-01-20 14:15:37.128421"	"2021-01-20 14:15:38.085372"	41	6.77123323333333
"S210120"	"Conflict_Resolution"	"LEFT"	"LEFT"	836.8506999999	516.6666677	n/a	n/a	n/a	n/a	"True"	n/a	n/a	"2021-01-20 14:15:38.623887"	"2021-01-20 14:15:39.669018"	42	6.77123323333333
"S210120"	"Conflict_Resolution"	"RIGHT"	"RIGHT"	497.300199999927	1266.6666692	n/a	n/a	n/a	n/a	"False"	n/a	n/a	"2021-01-20 14:15:40.954977"	"2021-01-20 14:15:41.659956"	43	6.77123323333333
"S210120"	"Conflict_Resolution"	"RIGHT"	"RIGHT"	1214.81960000006	950.0000019	n/a	n/a	n/a	n/a	"True"	n/a	n/a	"2021-01-20 14:15:42.629132"	"2021-01-20 14:15:44.052509"	44	6.77123323333333
"S210120"	"Conflict_Resolution"	"LEFT"	"LEFT"	626.064300000053	1466.6666696	n/a	n/a	n/a	n/a	"True"	n/a	n/a	"2021-01-20 14:15:45.538284"	"2021-01-20 14:15:46.371856"	45	6.77123323333333
"S210120"	"Conflict_Resolution"	"RIGHT"	"RIGHT"	647.806100000025	900.0000018	n/a	n/a	n/a	n/a	"True"	n/a	n/a	"2021-01-20 14:15:47.292454"	"2021-01-20 14:15:48.149398"	46	6.77123323333333
"S210120"	"Conflict_Resolution"	"LEFT"	"LEFT"	532.741699999974	950.0000019	n/a	n/a	n/a	n/a	"False"	n/a	n/a	"2021-01-20 14:15:49.119310"	"2021-01-20 14:15:49.860277"	47	6.77123323333333
"S210120"	"Conflict_Resolution"	"RIGHT"	"RIGHT"	622.933900000021	733.3333348	n/a	n/a	n/a	n/a	"False"	n/a	n/a	"2021-01-20 14:15:50.613730"	"2021-01-20 14:15:51.444104"	48	6.77123323333333
"S210120"	"Conflict_Resolution"	"RIGHT"	"RIGHT"	632.757599999991	650.0000013	n/a	n/a	n/a	n/a	"False"	n/a	n/a	"2021-01-20 14:15:52.115310"	"2021-01-20 14:15:52.956241"	49	6.77123323333333
"S210120"	"Conflict_Resolution"	"RIGHT"	"RIGHT"	590.531000000055	1316.6666693	n/a	n/a	n/a	n/a	"True"	n/a	n/a	"2021-01-20 14:15:54.293829"	"2021-01-20 14:15:55.092263"	50	6.77123323333333
"S210120"	"Conflict_Resolution"	"RIGHT"	"RIGHT"	579.7642	1416.6666695	n/a	n/a	n/a	n/a	"True"	n/a	n/a	"2021-01-20 14:15:56.528914"	"2021-01-20 14:15:57.315810"	51	6.77123323333333
"S210120"	"Conflict_Resolution"	"RIGHT"	"RIGHT"	550.781200000074	1366.6666694	n/a	n/a	n/a	n/a	"True"	n/a	n/a	"2021-01-20 14:15:58.701673"	"2021-01-20 14:15:59.460462"	52	6.77123323333333
"S210120"	"Conflict_Resolution"	"RIGHT"	"RIGHT"	516.345500000057	1216.6666691	n/a	n/a	n/a	n/a	"True"	n/a	n/a	"2021-01-20 14:16:00.695555"	"2021-01-20 14:16:01.421342"	53	6.77123323333333
"S210120"	"Conflict_Resolution"	"LEFT"	"LEFT"	858.169900000007	633.3333346	n/a	n/a	n/a	n/a	"True"	n/a	n/a	"2021-01-20 14:16:02.074434"	"2021-01-20 14:16:03.141301"	54	6.77123323333333
"S210120"	"Conflict_Resolution"	"LEFT"	"LEFT"	853.991599999972	1150.0000023	n/a	n/a	n/a	n/a	"True"	n/a	n/a	"2021-01-20 14:16:04.310057"	"2021-01-20 14:16:05.371893"	55	6.77123323333333
"S210120"	"Conflict_Resolution"	"RIGHT"	"RIGHT"	559.784499999978	933.3333352	n/a	n/a	n/a	n/a	"False"	n/a	n/a	"2021-01-20 14:16:06.324359"	"2021-01-20 14:16:07.092216"	56	6.77123323333333
"S210120"	"Conflict_Resolution"	"RIGHT"	"RIGHT"	766.480699999988	950.0000019	n/a	n/a	n/a	n/a	"False"	n/a	n/a	"2021-01-20 14:16:08.061614"	"2021-01-20 14:16:09.036494"	57	6.77123323333333
"S210120"	"Conflict_Resolution"	"RIGHT"	"RIGHT"	617.31450000002	883.3333351	n/a	n/a	n/a	n/a	"False"	n/a	n/a	"2021-01-20 14:16:09.939241"	"2021-01-20 14:16:10.764306"	58	6.77123323333333
"S210120"	"Conflict_Resolution"	"RIGHT"	"RIGHT"	602.28230000007	1283.3333359	n/a	n/a	n/a	n/a	"True"	n/a	n/a	"2021-01-20 14:16:12.066256"	"2021-01-20 14:16:12.876830"	59	6.77123323333333
"S210120"	"Conflict_Resolution"	"RIGHT"	"RIGHT"	831.328600000006	700.0000014	n/a	n/a	n/a	n/a	"True"	n/a	n/a	"2021-01-20 14:16:13.596957"	"2021-01-20 14:16:14.635952"	60	6.77123323333333
"S210120"	"Conflict_Resolution"	"RIGHT"	"RIGHT"	573.878100000002	1383.3333361	n/a	n/a	n/a	n/a	"True"	n/a	n/a	"2021-01-20 14:16:16.038187"	"2021-01-20 14:16:16.820131"	61	6.77123323333333
"S210120"	"Conflict_Resolution"	"RIGHT"	"RIGHT"	674.640999999838	650.0000013	n/a	n/a	n/a	n/a	"True"	n/a	n/a	"2021-01-20 14:16:17.490038"	"2021-01-20 14:16:18.372797"	62	6.77123323333333
"S210120"	"Conflict_Resolution"	"RIGHT"	"RIGHT"	1040.82070000004	683.3333347	n/a	n/a	n/a	n/a	"True"	n/a	n/a	"2021-01-20 14:16:19.076038"	"2021-01-20 14:16:20.325306"	63	6.77123323333333
"S210120"	"Conflict_Resolution"	"RIGHT"	"RIGHT"	538.684999999987	633.3333346	n/a	n/a	n/a	n/a	"True"	n/a	n/a	"2021-01-20 14:16:20.978174"	"2021-01-20 14:16:21.724329"	64	6.77123323333333
"S210120"	"Conflict_Resolution"	"RIGHT"	"RIGHT"	579.135000000178	850.0000017	n/a	n/a	n/a	n/a	"False"	n/a	n/a	"2021-01-20 14:16:22.592827"	"2021-01-20 14:16:23.379969"	65	6.77123323333333
"S210120"	"Conflict_Resolution"	"RIGHT"	"RIGHT"	648.439700000154	883.3333351	n/a	n/a	n/a	n/a	"True"	n/a	n/a	"2021-01-20 14:16:24.283610"	"2021-01-20 14:16:25.140551"	66	6.77123323333333
"S210120"	"Conflict_Resolution"	"RIGHT"	"RIGHT"	823.686100000032	683.3333347	n/a	n/a	n/a	n/a	"False"	n/a	n/a	"2021-01-20 14:16:25.844175"	"2021-01-20 14:16:26.875928"	67	6.77123323333333
"S210120"	"Conflict_Resolution"	"LEFT"	"LEFT"	508.796800000027	1200.0000024	n/a	n/a	n/a	n/a	"False"	n/a	n/a	"2021-01-20 14:16:28.095594"	"2021-01-20 14:16:28.813062"	68	6.77123323333333
"S210120"	"Conflict_Resolution"	"RIGHT"	"RIGHT"	774.298899999849	583.3333345	n/a	n/a	n/a	n/a	"True"	n/a	n/a	"2021-01-20 14:16:29.414426"	"2021-01-20 14:16:30.397287"	69	6.77123323333333
"S210120"	"Conflict_Resolution"	"RIGHT"	"RIGHT"	544.730399999935	1083.3333355	n/a	n/a	n/a	n/a	"True"	n/a	n/a	"2021-01-20 14:16:31.499973"	"2021-01-20 14:16:32.250862"	70	6.77123323333333
"S210120"	"Conflict_Resolution"	"RIGHT"	"RIGHT"	749.531599999955	783.3333349	n/a	n/a	n/a	n/a	"False"	n/a	n/a	"2021-01-20 14:16:33.054827"	"2021-01-20 14:16:34.013254"	71	6.77123323333333
"S210120"	"Conflict_Resolution"	"RIGHT"	"RIGHT"	823.689399999921	500.000001	n/a	n/a	n/a	n/a	"True"	n/a	n/a	"2021-01-20 14:16:34.532475"	"2021-01-20 14:16:35.564895"	72	6.77123323333333
"S210120"	"Conflict_Resolution"	"LEFT"	"LEFT"	532.17410000002	1000.000002	n/a	n/a	n/a	n/a	"False"	n/a	n/a	"2021-01-20 14:16:36.583819"	"2021-01-20 14:16:37.323778"	73	6.77123323333333
"S210120"	"Conflict_Resolution"	"RIGHT"	"RIGHT"	640.369700000065	1133.3333356	n/a	n/a	n/a	n/a	"True"	n/a	n/a	"2021-01-20 14:16:38.476250"	"2021-01-20 14:16:39.323853"	74	6.77123323333333
"S210120"	"Conflict_Resolution"	"RIGHT"	"RIGHT"	469.927299999881	983.3333353	n/a	n/a	n/a	n/a	"False"	n/a	n/a	"2021-01-20 14:16:40.326219"	"2021-01-20 14:16:41.004712"	75	6.77123323333333
"S210120"	"Conflict_Resolution"	"LEFT"	"LEFT"	669.106199999987	566.6666678	n/a	n/a	n/a	n/a	"False"	n/a	n/a	"2021-01-20 14:16:41.591110"	"2021-01-20 14:16:42.469196"	76	6.77123323333333
"S210120"	"Conflict_Resolution"	"LEFT"	"LEFT"	535.875799999985	1100.0000022	n/a	n/a	n/a	n/a	"False"	n/a	n/a	"2021-01-20 14:16:43.588518"	"2021-01-20 14:16:44.331179"	77	6.77123323333333
"S210120"	"Conflict_Resolution"	"LEFT"	"LEFT"	436.571399999821	1400.0000028	n/a	n/a	n/a	n/a	"False"	n/a	n/a	"2021-01-20 14:16:45.753281"	"2021-01-20 14:16:46.397601"	78	6.77123323333333
"S210120"	"Conflict_Resolution"	"LEFT"	"LEFT"	838.241200000084	533.3333344	n/a	n/a	n/a	n/a	"True"	n/a	n/a	"2021-01-20 14:16:46.950089"	"2021-01-20 14:16:47.996459"	79	6.77123323333333
"S210120"	"Conflict_Resolution"	"RIGHT"	"RIGHT"	596.272599999793	600.0000012	n/a	n/a	n/a	n/a	"False"	n/a	n/a	"2021-01-20 14:16:48.616319"	"2021-01-20 14:16:49.420396"	80	6.77123323333333
"S210120"	"Conflict_Resolution"	"RIGHT"	"RIGHT"	642.795800000158	1433.3333362	n/a	n/a	n/a	n/a	"True"	n/a	n/a	"2021-01-20 14:16:50.873099"	"2021-01-20 14:16:51.724329"	81	6.77123323333333
"S210120"	"Conflict_Resolution"	"RIGHT"	"RIGHT"	461.785500000133	1183.3333357	n/a	n/a	n/a	n/a	"True"	n/a	n/a	"2021-01-20 14:16:52.926871"	"2021-01-20 14:16:53.596400"	82	6.77123323333333
"S210120"	"Conflict_Resolution"	"LEFT"	"LEFT"	718.543800000134	733.3333348	n/a	n/a	n/a	n/a	"False"	n/a	n/a	"2021-01-20 14:16:54.349386"	"2021-01-20 14:16:55.277264"	83	6.77123323333333
"S210120"	"Conflict_Resolution"	"RIGHT"	"RIGHT"	616.897600000129	1033.3333354	n/a	n/a	n/a	n/a	"True"	n/a	n/a	"2021-01-20 14:16:56.331605"	"2021-01-20 14:16:57.157438"	84	6.77123323333333
"S210120"	"Conflict_Resolution"	"LEFT"	"LEFT"	605.548900000031	516.6666677	n/a	n/a	n/a	n/a	"False"	n/a	n/a	"2021-01-20 14:16:57.694968"	"2021-01-20 14:16:58.508203"	85	6.77123323333333
"S210120"	"Conflict_Resolution"	"RIGHT"	"RIGHT"	407.870699999876	1283.3333359	n/a	n/a	n/a	n/a	"False"	n/a	n/a	"2021-01-20 14:16:59.812698"	"2021-01-20 14:17:00.428094"	86	6.77123323333333
"S210120"	"Conflict_Resolution"	"LEFT"	"LEFT"	615.134099999977	900.0000018	n/a	n/a	n/a	n/a	"True"	n/a	n/a	"2021-01-20 14:17:01.349180"	"2021-01-20 14:17:02.173760"	87	6.77123323333333
"S210120"	"Conflict_Resolution"	"LEFT"	"LEFT"	708.202700000129	1366.6666694	n/a	n/a	n/a	n/a	"False"	n/a	n/a	"2021-01-20 14:17:03.559591"	"2021-01-20 14:17:04.476558"	88	6.77123323333333
"S210120"	"Conflict_Resolution"	"RIGHT"	"RIGHT"	459.273400000029	1216.6666691	n/a	n/a	n/a	n/a	"False"	n/a	n/a	"2021-01-20 14:17:05.712678"	"2021-01-20 14:17:06.380345"	89	6.77123323333333
"S210120"	"Conflict_Resolution"	"LEFT"	"LEFT"	522.080599999981	1450.0000029	n/a	n/a	n/a	n/a	"False"	n/a	n/a	"2021-01-20 14:17:07.850453"	"2021-01-20 14:17:08.579295"	90	6.77123323333333
"S210120"	"Conflict_Resolution"	"LEFT"	"LEFT"	560.135599999967	1116.6666689	n/a	n/a	n/a	n/a	"False"	n/a	n/a	"2021-01-20 14:17:09.716106"	"2021-01-20 14:17:10.485439"	91	6.77123323333333
"S210120"	"Conflict_Resolution"	"LEFT"	"LEFT"	666.467600000033	633.3333346	n/a	n/a	n/a	n/a	"False"	n/a	n/a	"2021-01-20 14:17:11.137740"	"2021-01-20 14:17:12.013526"	92	6.77123323333333
"S210120"	"Conflict_Resolution"	"LEFT"	"LEFT"	889.503299999888	850.0000017	n/a	n/a	n/a	n/a	"True"	n/a	n/a	"2021-01-20 14:17:12.882506"	"2021-01-20 14:17:13.980429"	93	6.77123323333333
"S210120"	"Conflict_Resolution"	"RIGHT"	"RIGHT"	499.222500000087	833.333335	n/a	n/a	n/a	n/a	"False"	n/a	n/a	"2021-01-20 14:17:14.832877"	"2021-01-20 14:17:15.540307"	94	6.77123323333333
"S210120"	"Conflict_Resolution"	"LEFT"	"LEFT"	537.678000000142	616.6666679	n/a	n/a	n/a	n/a	"False"	n/a	n/a	"2021-01-20 14:17:16.178951"	"2021-01-20 14:17:16.925975"	95	6.77123323333333
"S210120"	"Conflict_Resolution"	"LEFT"	"LEFT"	688.651299999947	1250.0000025	n/a	n/a	n/a	n/a	"True"	n/a	n/a	"2021-01-20 14:17:18.195662"	"2021-01-20 14:17:19.093654"	96	6.77123323333333
"S210120"	"Conflict_Resolution"	"LEFT"	"LEFT"	717.22950000003	733.3333348	n/a	n/a	n/a	n/a	"True"	n/a	n/a	"2021-01-20 14:17:19.846452"	"2021-01-20 14:17:20.772063"	97	6.77123323333333
"S210120"	"Conflict_Resolution"	"RIGHT"	"RIGHT"	709.746400000085	983.3333353	n/a	n/a	n/a	n/a	"True"	n/a	n/a	"2021-01-20 14:17:21.774919"	"2021-01-20 14:17:22.691567"	98	6.77123323333333
"S210120"	"Conflict_Resolution"	"RIGHT"	"RIGHT"	713.006900000209	1083.3333355	n/a	n/a	n/a	n/a	"False"	n/a	n/a	"2021-01-20 14:17:23.794728"	"2021-01-20 14:17:24.717586"	99	6.77123323333333
"S210120"	"Conflict_Resolution"	"RIGHT"	"RIGHT"	851.08009999999	600.0000012	n/a	n/a	n/a	n/a	"True"	n/a	n/a	"2021-01-20 14:17:25.337404"	"2021-01-20 14:17:26.397684"	100	6.77123323333333
"S210120"	"Conflict_Resolution"	"LEFT"	"LEFT"	747.445799999923	766.6666682	n/a	n/a	n/a	n/a	"True"	n/a	n/a	"2021-01-20 14:17:27.185075"	"2021-01-20 14:17:28.140127"	101	6.77123323333333
"S210120"	"Conflict_Resolution"	"LEFT"	"LEFT"	634.163599999965	816.6666683	n/a	n/a	n/a	n/a	"True"	n/a	n/a	"2021-01-20 14:17:28.977782"	"2021-01-20 14:17:29.820454"	102	6.77123323333333
"S210120"	"Conflict_Resolution"	"LEFT"	"LEFT"	518.48700000005	1316.6666693	n/a	n/a	n/a	n/a	"True"	n/a	n/a	"2021-01-20 14:17:31.157585"	"2021-01-20 14:17:31.884204"	103	6.77123323333333
"S210120"	"Conflict_Resolution"	"LEFT"	"LEFT"	490.969100000029	1416.6666695	n/a	n/a	n/a	n/a	"True"	n/a	n/a	"2021-01-20 14:17:33.321603"	"2021-01-20 14:17:34.019953"	104	6.77123323333333
"S210120"	"Conflict_Resolution"	"LEFT"	"LEFT"	778.63780000007	866.6666684	n/a	n/a	n/a	n/a	"False"	n/a	n/a	"2021-01-20 14:17:34.905607"	"2021-01-20 14:17:35.892451"	105	6.77123323333333
"S210120"	"Conflict_Resolution"	"LEFT"	"LEFT"	528.917200000024	1066.6666688	n/a	n/a	n/a	n/a	"True"	n/a	n/a	"2021-01-20 14:17:36.979691"	"2021-01-20 14:17:37.716515"	106	6.77123323333333
"S210120"	"Conflict_Resolution"	"RIGHT"	"LEFT"	687.965800000029	850.0000017	n/a	n/a	n/a	n/a	"True"	n/a	n/a	"2021-01-20 14:17:38.588201"	"2021-01-20 14:17:39.484166"	107	6.77123323333333
"S210120"	"Conflict_Resolution"	"RIGHT"	"RIGHT"	886.666099999957	550.0000011	n/a	n/a	n/a	n/a	"False"	n/a	n/a	"2021-01-20 14:17:40.053166"	"2021-01-20 14:17:41.148015"	108	6.77123323333333
"S210120"	"Conflict_Resolution"	"RIGHT"	"RIGHT"	619.488000000047	750.0000015	n/a	n/a	n/a	n/a	"False"	n/a	n/a	"2021-01-20 14:17:41.920714"	"2021-01-20 14:17:42.749211"	109	6.77123323333333
"S210120"	"Conflict_Resolution"	"RIGHT"	"RIGHT"	524.670600000036	1150.0000023	n/a	n/a	n/a	n/a	"False"	n/a	n/a	"2021-01-20 14:17:43.919866"	"2021-01-20 14:17:44.653462"	110	6.77123323333333
"S210120"	"Conflict_Resolution"	"LEFT"	"LEFT"	587.211399999887	1200.0000024	n/a	n/a	n/a	n/a	"True"	n/a	n/a	"2021-01-20 14:17:45.872890"	"2021-01-20 14:17:46.667909"	111	6.77123323333333
"S210120"	"Conflict_Resolution"	"RIGHT"	"RIGHT"	756.374600000072	1000.000002	n/a	n/a	n/a	n/a	"True"	n/a	n/a	"2021-01-20 14:17:47.688005"	"2021-01-20 14:17:48.652697"	112	6.77123323333333
"S210120"	"Conflict_Resolution"	"RIGHT"	"RIGHT"	668.849500000078	1183.3333357	n/a	n/a	n/a	n/a	"False"	n/a	n/a	"2021-01-20 14:17:49.855569"	"2021-01-20 14:17:50.733351"	113	6.77123323333333
"S210120"	"Conflict_Resolution"	"LEFT"	"LEFT"	615.992200000164	683.3333347	n/a	n/a	n/a	n/a	"False"	n/a	n/a	"2021-01-20 14:17:51.435956"	"2021-01-20 14:17:52.261419"	114	6.77123323333333
"S210120"	"Conflict_Resolution"	"LEFT"	"LEFT"	753.36070000003	866.6666684	n/a	n/a	n/a	n/a	"True"	n/a	n/a	"2021-01-20 14:17:53.146408"	"2021-01-20 14:17:54.109360"	115	6.77123323333333
"S210120"	"Conflict_Resolution"	"LEFT"	"LEFT"	708.386100000098	766.6666682	n/a	n/a	n/a	n/a	"False"	n/a	n/a	"2021-01-20 14:17:54.896251"	"2021-01-20 14:17:55.812988"	116	6.77123323333333
"S210120"	"Conflict_Resolution"	"LEFT"	"LEFT"	572.973099999899	1350.0000027	n/a	n/a	n/a	n/a	"True"	n/a	n/a	"2021-01-20 14:17:57.183350"	"2021-01-20 14:17:57.965106"	117	6.77123323333333
"S210120"	"Conflict_Resolution"	"LEFT"	"LEFT"	590.237299999899	716.6666681	n/a	n/a	n/a	n/a	"False"	n/a	n/a	"2021-01-20 14:17:58.702115"	"2021-01-20 14:17:59.499073"	118	6.77123323333333
"S210120"	"Conflict_Resolution"	"LEFT"	"LEFT"	593.407999999954	1050.0000021	n/a	n/a	n/a	n/a	"True"	n/a	n/a	"2021-01-20 14:18:00.570407"	"2021-01-20 14:18:01.371822"	119	6.77123323333333
"S210120"	"Conflict_Resolution"	"LEFT"	"LEFT"	864.250200000015	666.666668	n/a	n/a	n/a	n/a	"False"	n/a	n/a	"2021-01-20 14:18:02.059755"	"2021-01-20 14:18:03.132463"	120	6.77123323333333
"S210120"	"Conflict_Resolution"	"LEFT"	"LEFT"	617.604599999822	1266.6666692	n/a	n/a	n/a	n/a	"True"	n/a	n/a	"2021-01-20 14:18:04.418670"	"2021-01-20 14:18:05.245544"	121	6.77123323333333
"S210120"	"Conflict_Resolution"	"LEFT"	"LEFT"	447.667699999784	1066.6666688	n/a	n/a	n/a	n/a	"False"	n/a	n/a	"2021-01-20 14:18:06.332799"	"2021-01-20 14:18:06.988283"	122	6.77123323333333
"S210120"	"Conflict_Resolution"	"LEFT"	"LEFT"	608.552599999939	1100.0000022	n/a	n/a	n/a	n/a	"True"	n/a	n/a	"2021-01-20 14:18:08.107381"	"2021-01-20 14:18:08.924615"	123	6.77123323333333
"S210120"	"Conflict_Resolution"	"LEFT"	"LEFT"	580.65959999999	783.3333349	n/a	n/a	n/a	n/a	"True"	n/a	n/a	"2021-01-20 14:18:09.727007"	"2021-01-20 14:18:10.517488"	124	6.77123323333333
"S210120"	"Conflict_Resolution"	"LEFT"	"LEFT"	525.983399999859	1116.6666689	n/a	n/a	n/a	n/a	"True"	n/a	n/a	"2021-01-20 14:18:11.654054"	"2021-01-20 14:18:12.388229"	125	6.77123323333333
"S210120"	"Conflict_Resolution"	"LEFT"	"LEFT"	491.082500000175	1416.6666695	n/a	n/a	n/a	n/a	"False"	n/a	n/a	"2021-01-20 14:18:13.825462"	"2021-01-20 14:18:14.524661"	126	6.77123323333333
"S210120"	"Conflict_Resolution"	"LEFT"	"LEFT"	548.054200000024	1400.0000028	n/a	n/a	n/a	n/a	"True"	n/a	n/a	"2021-01-20 14:18:15.943821"	"2021-01-20 14:18:16.700055"	127	6.77123323333333
"S210120"	"Conflict_Resolution"	"RIGHT"	"RIGHT"	1195.11220000004	833.333335	n/a	n/a	n/a	n/a	"True"	n/a	n/a	"2021-01-20 14:18:17.553389"	"2021-01-20 14:18:18.956051"	128	6.77123323333333
"S210120"	"Conflict_Resolution"	"RIGHT"	"RIGHT"	582.021700000041	583.3333345	n/a	n/a	n/a	n/a	"False"	n/a	n/a	"2021-01-20 14:18:19.557916"	"2021-01-20 14:18:20.349488"	129	6.77123323333333
"S210120"	"Conflict_Resolution"	"RIGHT"	"RIGHT"	449.512299999924	1033.3333354	n/a	n/a	n/a	n/a	"False"	n/a	n/a	"2021-01-20 14:18:21.402743"	"2021-01-20 14:18:22.060616"	130	6.77123323333333
"S210120"	"Conflict_Resolution"	"LEFT"	"LEFT"	592.762199999925	666.666668	n/a	n/a	n/a	n/a	"True"	n/a	n/a	"2021-01-20 14:18:22.747742"	"2021-01-20 14:18:23.547798"	131	6.77123323333333
"S210120"	"Conflict_Resolution"	"RIGHT"	"RIGHT"	691.25310000004	1050.0000021	n/a	n/a	n/a	n/a	"True"	n/a	n/a	"2021-01-20 14:18:24.616828"	"2021-01-20 14:18:25.516736"	132	6.77123323333333
"S210120"	"Conflict_Resolution"	"RIGHT"	"RIGHT"	491.478500000085	1000.000002	n/a	n/a	n/a	n/a	"False"	n/a	n/a	"2021-01-20 14:18:26.537043"	"2021-01-20 14:18:27.237599"	133	6.77123323333333
"S210120"	"Conflict_Resolution"	"LEFT"	"LEFT"	613.511799999969	683.3333347	n/a	n/a	n/a	n/a	"True"	n/a	n/a	"2021-01-20 14:18:27.942139"	"2021-01-20 14:18:28.764376"	134	6.77123323333333
"S210120"	"Conflict_Resolution"	"LEFT"	"LEFT"	717.04550000004	566.6666678	n/a	n/a	n/a	n/a	"True"	n/a	n/a	"2021-01-20 14:18:29.350785"	"2021-01-20 14:18:30.276599"	135	6.77123323333333
"S210120"	"Conflict_Resolution"	"LEFT"	"LEFT"	730.364999999892	1250.0000025	n/a	n/a	n/a	n/a	"False"	n/a	n/a	"2021-01-20 14:18:31.546193"	"2021-01-20 14:18:32.484936"	136	6.77123323333333
"S210120"	"Conflict_Resolution"	"RIGHT"	"RIGHT"	1005.82869999994	750.0000015	n/a	n/a	n/a	n/a	"True"	n/a	n/a	"2021-01-20 14:18:33.254711"	"2021-01-20 14:18:34.467785"	137	6.77123323333333
"S210120"	"Conflict_Resolution"	"LEFT"	"LEFT"	554.815299999973	816.6666683	n/a	n/a	n/a	n/a	"False"	n/a	n/a	"2021-01-20 14:18:35.305022"	"2021-01-20 14:18:36.068486"	138	6.77123323333333
"S210120"	"Conflict_Resolution"	"RIGHT"	"RIGHT"	625.901200000044	800.0000016	n/a	n/a	n/a	n/a	"True"	n/a	n/a	"2021-01-20 14:18:36.889998"	"2021-01-20 14:18:37.725332"	139	6.77123323333333
"S210120"	"Conflict_Resolution"	"RIGHT"	"RIGHT"	562.582900000052	800.0000016	n/a	n/a	n/a	n/a	"False"	n/a	n/a	"2021-01-20 14:18:38.545647"	"2021-01-20 14:18:39.317378"	140	6.77123323333333
"S210120"	"Conflict_Resolution"	"LEFT"	"LEFT"	594.886600000109	616.6666679	n/a	n/a	n/a	n/a	"True"	n/a	n/a	"2021-01-20 14:18:39.953147"	"2021-01-20 14:18:40.755152"	141	6.77123323333333
"S210120"	"Conflict_Resolution"	"RIGHT"	"RIGHT"	815.072899999905	533.3333344	n/a	n/a	n/a	n/a	"True"	n/a	n/a	"2021-01-20 14:18:41.308626"	"2021-01-20 14:18:42.332646"	142	6.77123323333333
"S210120"	"Conflict_Resolution"	"RIGHT"	"RIGHT"	648.417399999971	1100.0000022	n/a	n/a	n/a	n/a	"True"	n/a	n/a	"2021-01-20 14:18:43.451848"	"2021-01-20 14:18:44.308206"	143	6.77123323333333
"S210120"	"Conflict_Resolution"	"RIGHT"	"RIGHT"	549.083399999972	1366.6666694	n/a	n/a	n/a	n/a	"False"	n/a	n/a	"2021-01-20 14:18:45.695087"	"2021-01-20 14:18:46.452222"	144	6.77123323333333
"S210120"	"Conflict_Resolution"	"LEFT"	"LEFT"	514.090399999986	850.0000017	n/a	n/a	n/a	n/a	"False"	n/a	n/a	"2021-01-20 14:18:47.322027"	"2021-01-20 14:18:48.045755"	145	6.77123323333333
"S210120"	"Conflict_Resolution"	"LEFT"	"LEFT"	613.194400000111	533.3333344	n/a	n/a	n/a	n/a	"False"	n/a	n/a	"2021-01-20 14:18:48.598654"	"2021-01-20 14:18:49.419891"	146	6.77123323333333
"S210120"	"Conflict_Resolution"	"LEFT"	"LEFT"	426.505099999986	1466.6666696	n/a	n/a	n/a	n/a	"False"	n/a	n/a	"2021-01-20 14:18:50.906095"	"2021-01-20 14:18:51.540535"	147	6.77123323333333
"S210120"	"Conflict_Resolution"	"RIGHT"	"RIGHT"	526.785100000097	1333.333336	n/a	n/a	n/a	n/a	"False"	n/a	n/a	"2021-01-20 14:18:52.893754"	"2021-01-20 14:18:53.628005"	148	6.77123323333333
"S210120"	"Conflict_Resolution"	"RIGHT"	"RIGHT"	522.563300000002	1233.3333358	n/a	n/a	n/a	n/a	"False"	n/a	n/a	"2021-01-20 14:18:54.881632"	"2021-01-20 14:18:55.612187"	149	6.77123323333333
"S210120"	"Conflict_Resolution"	"RIGHT"	"RIGHT"	458.152299999938	1466.6666696	n/a	n/a	n/a	n/a	"False"	n/a	n/a	"2021-01-20 14:18:57.098685"	"2021-01-20 14:18:57.765073"	150	6.77123323333333
"S210120"	"Conflict_Resolution"	"RIGHT"	"RIGHT"	423.475300000064	1316.6666693	n/a	n/a	n/a	n/a	"False"	n/a	n/a	"2021-01-20 14:18:59.100542"	"2021-01-20 14:18:59.732174"	151	6.77123323333333
"S210120"	"Conflict_Resolution"	"LEFT"	"LEFT"	624.114299999974	1300.0000026	n/a	n/a	n/a	n/a	"True"	n/a	n/a	"2021-01-20 14:19:01.051827"	"2021-01-20 14:19:01.885695"	152	6.77123323333333
"S210120"	"Conflict_Resolution"	"RIGHT"	"RIGHT"	540.863900000204	700.0000014	n/a	n/a	n/a	n/a	"False"	n/a	n/a	"2021-01-20 14:19:02.606838"	"2021-01-20 14:19:03.357421"	153	6.77123323333333
"S210120"	"Conflict_Resolution"	"RIGHT"	"RIGHT"	873.685900000055	1266.6666692	n/a	n/a	n/a	n/a	"True"	n/a	n/a	"2021-01-20 14:19:04.642673"	"2021-01-20 14:19:05.723881"	154	6.77123323333333
"S210120"	"Conflict_Resolution"	"LEFT"	"LEFT"	479.041600000073	1150.0000023	n/a	n/a	n/a	n/a	"False"	n/a	n/a	"2021-01-20 14:19:06.893550"	"2021-01-20 14:19:07.579983"	155	6.77123323333333
"S210120"	"Conflict_Resolution"	"RIGHT"	"RIGHT"	733.518300000014	933.3333352	n/a	n/a	n/a	n/a	"True"	n/a	n/a	"2021-01-20 14:19:08.534477"	"2021-01-20 14:19:09.475846"	156	6.77123323333333
"S210120"	"Conflict_Resolution"	"LEFT"	"LEFT"	550.511099999994	1166.666669	n/a	n/a	n/a	n/a	"False"	n/a	n/a	"2021-01-20 14:19:10.661591"	"2021-01-20 14:19:11.419889"	157	6.77123323333333
"S210120"	"Conflict_Resolution"	"RIGHT"	"RIGHT"	559.588100000155	533.3333344	n/a	n/a	n/a	n/a	"False"	n/a	n/a	"2021-01-20 14:19:11.972425"	"2021-01-20 14:19:12.741367"	158	6.77123323333333
"S210120"	"Conflict_Resolution"	"LEFT"	"LEFT"	422.462699999869	900.0000018	n/a	n/a	n/a	n/a	"False"	n/a	n/a	"2021-01-20 14:19:13.661428"	"2021-01-20 14:19:14.292557"	159	6.77123323333333
"S210120"	"Conflict_Resolution"	"LEFT"	"LEFT"	553.033799999866	1266.6666692	n/a	n/a	n/a	n/a	"False"	n/a	n/a	"2021-01-20 14:19:15.579291"	"2021-01-20 14:19:16.340629"	160	6.77123323333333
"S210120"	"Processing_Speed"	"RIGHT"	"DOWN"	1359.3114	600.0000012	n/a	n/a	n/a	n/a	n/a	n/a	n/a	"2021-01-20 14:02:07.134239"	"2021-01-20 14:02:08.718234"	1	2.6660512
"S210120"	"Processing_Speed"	"LEFT"	"DOWN"	941.950400000025	816.6666683	n/a	n/a	n/a	n/a	n/a	n/a	n/a	"2021-01-20 14:02:09.543285"	"2021-01-20 14:02:10.693113"	2	2.6660512
"S210120"	"Processing_Speed"	"LEFT"	"DOWN"	406.831300000022	600.0000012	n/a	n/a	n/a	n/a	n/a	n/a	n/a	"2021-01-20 14:02:11.302710"	"2021-01-20 14:02:11.918163"	3	2.6660512
"S210120"	"Processing_Speed"	"LEFT"	"DOWN"	376.7067	1150.0000023	n/a	n/a	n/a	n/a	n/a	n/a	n/a	"2021-01-20 14:02:13.076664"	"2021-01-20 14:02:13.660895"	4	2.6660512
"S210120"	"Processing_Speed"	"RIGHT"	"DOWN"	364.342399999998	1300.0000026	n/a	n/a	n/a	n/a	n/a	n/a	n/a	"2021-01-20 14:02:14.968501"	"2021-01-20 14:02:15.541532"	5	2.6660512
"S210120"	"Processing_Speed"	"LEFT"	"DOWN"	363.803700000005	666.666668	n/a	n/a	n/a	n/a	n/a	n/a	n/a	"2021-01-20 14:02:16.217378"	"2021-01-20 14:02:16.790683"	6	2.6660512
"S210120"	"Processing_Speed"	"RIGHT"	"DOWN"	253.778799999992	1400.0000028	n/a	n/a	n/a	n/a	n/a	n/a	n/a	"2021-01-20 14:02:18.199521"	"2021-01-20 14:02:18.661224"	7	2.6660512
"S210120"	"Processing_Speed"	"RIGHT"	"DOWN"	517.912699999982	633.3333346	n/a	n/a	n/a	n/a	n/a	n/a	n/a	"2021-01-20 14:02:19.303675"	"2021-01-20 14:02:20.030599"	8	2.6660512
"S210120"	"Processing_Speed"	"RIGHT"	"DOWN"	321.312899999981	916.6666685	n/a	n/a	n/a	n/a	n/a	n/a	n/a	"2021-01-20 14:02:20.956165"	"2021-01-20 14:02:21.485818"	9	2.6660512
"S210120"	"Processing_Speed"	"LEFT"	"DOWN"	308.487799999995	1433.3333362	n/a	n/a	n/a	n/a	n/a	n/a	n/a	"2021-01-20 14:02:22.928833"	"2021-01-20 14:02:23.445539"	10	2.6660512
"S210120"	"Processing_Speed"	"RIGHT"	"DOWN"	319.701500000008	783.3333349	n/a	n/a	n/a	n/a	n/a	n/a	n/a	"2021-01-20 14:02:24.237298"	"2021-01-20 14:02:24.764969"	11	2.6660512
"S210120"	"Processing_Speed"	"RIGHT"	"DOWN"	261.63360000001	850.0000017	n/a	n/a	n/a	n/a	n/a	n/a	n/a	"2021-01-20 14:02:25.623228"	"2021-01-20 14:02:26.093179"	12	2.6660512
"S210120"	"Processing_Speed"	"LEFT"	"DOWN"	240.293800000018	983.3333353	n/a	n/a	n/a	n/a	n/a	n/a	n/a	"2021-01-20 14:02:27.084499"	"2021-01-20 14:02:27.534222"	13	2.6660512
"S210120"	"Processing_Speed"	"RIGHT"	"DOWN"	259.6135	1466.6666696	n/a	n/a	n/a	n/a	n/a	n/a	n/a	"2021-01-20 14:02:29.009382"	"2021-01-20 14:02:29.476889"	14	2.6660512
"S210120"	"Processing_Speed"	"RIGHT"	"DOWN"	285.538099999997	1433.3333362	n/a	n/a	n/a	n/a	n/a	n/a	n/a	"2021-01-20 14:02:30.920164"	"2021-01-20 14:02:31.413382"	15	2.6660512
"S210120"	"Processing_Speed"	"LEFT"	"DOWN"	341.737499999994	783.3333349	n/a	n/a	n/a	n/a	n/a	n/a	n/a	"2021-01-20 14:02:32.207559"	"2021-01-20 14:02:32.757473"	16	2.6660512
"S210120"	"Processing_Speed"	"RIGHT"	"DOWN"	439.513599999998	1366.6666694	n/a	n/a	n/a	n/a	n/a	n/a	n/a	"2021-01-20 14:02:34.133363"	"2021-01-20 14:02:34.780877"	17	2.6660512
"S210120"	"Processing_Speed"	"LEFT"	"DOWN"	420.690899999983	850.0000017	n/a	n/a	n/a	n/a	n/a	n/a	n/a	"2021-01-20 14:02:35.640536"	"2021-01-20 14:02:36.269279"	18	2.6660512
"S210120"	"Processing_Speed"	"LEFT"	"DOWN"	377.400699999981	916.6666685	n/a	n/a	n/a	n/a	n/a	n/a	n/a	"2021-01-20 14:02:37.196058"	"2021-01-20 14:02:37.780215"	19	2.6660512
"S210120"	"Processing_Speed"	"LEFT"	"DOWN"	283.492700000011	700.0000014	n/a	n/a	n/a	n/a	n/a	n/a	n/a	"2021-01-20 14:02:38.489840"	"2021-01-20 14:02:38.981696"	20	2.6660512
"S210120"	"Processing_Speed"	"RIGHT"	"DOWN"	238.855599999994	950.0000019	n/a	n/a	n/a	n/a	n/a	n/a	n/a	"2021-01-20 14:02:39.942669"	"2021-01-20 14:02:40.389905"	21	2.6660512
"S210120"	"Processing_Speed"	"LEFT"	"DOWN"	301.893199999995	1216.6666691	n/a	n/a	n/a	n/a	n/a	n/a	n/a	"2021-01-20 14:02:41.615768"	"2021-01-20 14:02:42.124956"	22	2.6660512
"S210120"	"Processing_Speed"	"LEFT"	"DOWN"	291.11309999999	1300.0000026	n/a	n/a	n/a	n/a	n/a	n/a	n/a	"2021-01-20 14:02:43.434010"	"2021-01-20 14:02:43.933753"	23	2.6660512
"S210120"	"Processing_Speed"	"LEFT"	"DOWN"	262.415400000009	950.0000019	n/a	n/a	n/a	n/a	n/a	n/a	n/a	"2021-01-20 14:02:44.894401"	"2021-01-20 14:02:45.364179"	24	2.6660512
"S210120"	"Processing_Speed"	"LEFT"	"DOWN"	293.622699999986	1266.6666692	n/a	n/a	n/a	n/a	n/a	n/a	n/a	"2021-01-20 14:02:46.639641"	"2021-01-20 14:02:47.142312"	25	2.6660512
"S210120"	"Processing_Speed"	"RIGHT"	"DOWN"	291.224	1083.3333355	n/a	n/a	n/a	n/a	n/a	n/a	n/a	"2021-01-20 14:02:48.234276"	"2021-01-20 14:02:48.732986"	26	2.6660512
"S210120"	"Processing_Speed"	"LEFT"	"DOWN"	286.868999999996	1016.6666687	n/a	n/a	n/a	n/a	n/a	n/a	n/a	"2021-01-20 14:02:49.757930"	"2021-01-20 14:02:50.253522"	27	2.6660512
"S210120"	"Processing_Speed"	"RIGHT"	"DOWN"	352.350000000001	566.6666678	n/a	n/a	n/a	n/a	n/a	n/a	n/a	"2021-01-20 14:02:50.828645"	"2021-01-20 14:02:51.388906"	28	2.6660512
"S210120"	"Processing_Speed"	"LEFT"	"DOWN"	238.31229999999	1050.0000021	n/a	n/a	n/a	n/a	n/a	n/a	n/a	"2021-01-20 14:02:52.447269"	"2021-01-20 14:02:52.894696"	29	2.6660512
"S210120"	"Processing_Speed"	"RIGHT"	"DOWN"	288.985099999991	1500.000003	n/a	n/a	n/a	n/a	n/a	n/a	n/a	"2021-01-20 14:02:54.404715"	"2021-01-20 14:02:54.900936"	30	2.6660512
"S210120"	"Processing_Speed"	"LEFT"	"DOWN"	303.388000000012	566.6666678	n/a	n/a	n/a	n/a	n/a	n/a	n/a	"2021-01-20 14:02:55.477464"	"2021-01-20 14:02:55.989262"	31	2.6660512
"S210120"	"Processing_Speed"	"LEFT"	"DOWN"	331.704900000005	1083.3333355	n/a	n/a	n/a	n/a	n/a	n/a	n/a	"2021-01-20 14:02:57.081859"	"2021-01-20 14:02:57.621366"	32	2.6660512
"S210120"	"Processing_Speed"	"RIGHT"	"DOWN"	278.697899999997	1216.6666691	n/a	n/a	n/a	n/a	n/a	n/a	n/a	"2021-01-20 14:02:58.846707"	"2021-01-20 14:02:59.334750"	33	2.6660512
"S210120"	"Processing_Speed"	"RIGHT"	"DOWN"	339.216499999992	1050.0000021	n/a	n/a	n/a	n/a	n/a	n/a	n/a	"2021-01-20 14:03:00.394118"	"2021-01-20 14:03:00.942249"	34	2.6660512
"S210120"	"Processing_Speed"	"LEFT"	"DOWN"	305.315199999995	1333.333336	n/a	n/a	n/a	n/a	n/a	n/a	n/a	"2021-01-20 14:03:02.283803"	"2021-01-20 14:03:02.796277"	35	2.6660512
"S210120"	"Processing_Speed"	"LEFT"	"DOWN"	248.443500000008	1400.0000028	n/a	n/a	n/a	n/a	n/a	n/a	n/a	"2021-01-20 14:03:04.204378"	"2021-01-20 14:03:04.661132"	36	2.6660512
"S210120"	"Processing_Speed"	"RIGHT"	"DOWN"	261.696300000011	1016.6666687	n/a	n/a	n/a	n/a	n/a	n/a	n/a	"2021-01-20 14:03:05.687528"	"2021-01-20 14:03:06.157308"	37	2.6660512
"S210120"	"Processing_Speed"	"RIGHT"	"DOWN"	273.453100000012	1150.0000023	n/a	n/a	n/a	n/a	n/a	n/a	n/a	"2021-01-20 14:03:07.315857"	"2021-01-20 14:03:07.796901"	38	2.6660512
"S210120"	"Processing_Speed"	"LEFT"	"DOWN"	256.161100000014	1366.6666694	n/a	n/a	n/a	n/a	n/a	n/a	n/a	"2021-01-20 14:03:09.172756"	"2021-01-20 14:03:09.637655"	39	2.6660512
"S210120"	"Processing_Speed"	"LEFT"	"DOWN"	258.960200000018	883.3333351	n/a	n/a	n/a	n/a	n/a	n/a	n/a	"2021-01-20 14:03:10.530229"	"2021-01-20 14:03:10.997014"	40	2.6660512
"S210120"	"Processing_Speed"	"LEFT"	"DOWN"	283.778799999993	1500.000003	n/a	n/a	n/a	n/a	n/a	n/a	n/a	"2021-01-20 14:03:12.505256"	"2021-01-20 14:03:12.997804"	41	2.6660512
"S210120"	"Processing_Speed"	"RIGHT"	"DOWN"	262.830499999978	1183.3333357	n/a	n/a	n/a	n/a	n/a	n/a	n/a	"2021-01-20 14:03:14.190578"	"2021-01-20 14:03:14.661615"	42	2.6660512
"S210120"	"Processing_Speed"	"LEFT"	"DOWN"	331.100000000021	500.000001	n/a	n/a	n/a	n/a	n/a	n/a	n/a	"2021-01-20 14:03:15.169859"	"2021-01-20 14:03:15.708443"	43	2.6660512
"S210120"	"Processing_Speed"	"RIGHT"	"DOWN"	274.535799999995	1116.6666689	n/a	n/a	n/a	n/a	n/a	n/a	n/a	"2021-01-20 14:03:16.834259"	"2021-01-20 14:03:17.317057"	44	2.6660512
"S210120"	"Processing_Speed"	"RIGHT"	"DOWN"	278.767299999998	816.6666683	n/a	n/a	n/a	n/a	n/a	n/a	n/a	"2021-01-20 14:03:18.141900"	"2021-01-20 14:03:18.628794"	45	2.6660512
"S210120"	"Processing_Speed"	"RIGHT"	"DOWN"	331.116199999997	666.666668	n/a	n/a	n/a	n/a	n/a	n/a	n/a	"2021-01-20 14:03:19.306113"	"2021-01-20 14:03:19.845207"	46	2.6660512
"S210120"	"Processing_Speed"	"RIGHT"	"DOWN"	265.236299999998	1333.333336	n/a	n/a	n/a	n/a	n/a	n/a	n/a	"2021-01-20 14:03:21.187982"	"2021-01-20 14:03:21.661734"	47	2.6660512
"S210120"	"Processing_Speed"	"LEFT"	"DOWN"	321.553100000017	1116.6666689	n/a	n/a	n/a	n/a	n/a	n/a	n/a	"2021-01-20 14:03:22.787234"	"2021-01-20 14:03:23.317368"	48	2.6660512
"S210120"	"Processing_Speed"	"LEFT"	"DOWN"	392.656499999987	533.3333344	n/a	n/a	n/a	n/a	n/a	n/a	n/a	"2021-01-20 14:03:23.860218"	"2021-01-20 14:03:24.460531"	49	2.6660512
"S210120"	"Processing_Speed"	"LEFT"	"DOWN"	259.588600000029	1466.6666696	n/a	n/a	n/a	n/a	n/a	n/a	n/a	"2021-01-20 14:03:25.937762"	"2021-01-20 14:03:26.405530"	50	2.6660512
"S210120"	"Processing_Speed"	"RIGHT"	"DOWN"	339.211999999975	500.000001	n/a	n/a	n/a	n/a	n/a	n/a	n/a	"2021-01-20 14:03:26.913661"	"2021-01-20 14:03:27.461380"	51	2.6660512
"S210120"	"Processing_Speed"	"RIGHT"	"DOWN"	328.400799999997	733.3333348	n/a	n/a	n/a	n/a	n/a	n/a	n/a	"2021-01-20 14:03:28.205048"	"2021-01-20 14:03:28.741426"	52	2.6660512
"S210120"	"Processing_Speed"	"RIGHT"	"DOWN"	347.1902	700.0000014	n/a	n/a	n/a	n/a	n/a	n/a	n/a	"2021-01-20 14:03:29.450010"	"2021-01-20 14:03:30.005666"	53	2.6660512
"S210120"	"Processing_Speed"	"RIGHT"	"DOWN"	377.289200000007	533.3333344	n/a	n/a	n/a	n/a	n/a	n/a	n/a	"2021-01-20 14:03:30.547799"	"2021-01-20 14:03:31.134231"	54	2.6660512
"S210120"	"Processing_Speed"	"RIGHT"	"DOWN"	254.835799999967	983.3333353	n/a	n/a	n/a	n/a	n/a	n/a	n/a	"2021-01-20 14:03:32.126719"	"2021-01-20 14:03:32.589240"	55	2.6660512
"S210120"	"Processing_Speed"	"RIGHT"	"DOWN"	307.744300000024	883.3333351	n/a	n/a	n/a	n/a	n/a	n/a	n/a	"2021-01-20 14:03:33.480963"	"2021-01-20 14:03:33.997336"	56	2.6660512
"S210120"	"Processing_Speed"	"LEFT"	"DOWN"	286.193500000024	633.3333346	n/a	n/a	n/a	n/a	n/a	n/a	n/a	"2021-01-20 14:03:34.639285"	"2021-01-20 14:03:35.133996"	57	2.6660512
"S210120"	"Processing_Speed"	"LEFT"	"DOWN"	296.401299999957	733.3333348	n/a	n/a	n/a	n/a	n/a	n/a	n/a	"2021-01-20 14:03:35.877054"	"2021-01-20 14:03:36.381654"	58	2.6660512
"S210120"	"Processing_Speed"	"LEFT"	"DOWN"	230.565499999955	1183.3333357	n/a	n/a	n/a	n/a	n/a	n/a	n/a	"2021-01-20 14:03:37.574920"	"2021-01-20 14:03:38.012906"	59	2.6660512
"S210120"	"Processing_Speed"	"RIGHT"	"DOWN"	277.40689999996	1266.6666692	n/a	n/a	n/a	n/a	n/a	n/a	n/a	"2021-01-20 14:03:39.287558"	"2021-01-20 14:03:39.772787"	60	2.6660512
"S210120"	"Response_Inhibition"	"LEFT"	"LEFT"	626.148599999965	583.3333345	n/a	n/a	n/a	n/a	n/a	n/a	n/a	"2021-01-20 14:07:08.682530"	"2021-01-20 14:07:09.517006"	1	5.98992703333333
"S210120"	"Response_Inhibition"	"RIGHT"	"RIGHT"	328.753300600005	1250.0000025	n/a	n/a	n/a	n/a	n/a	n/a	n/a	"2021-01-20 14:07:10.776685"	"2021-01-20 14:07:11.317320"	2	5.98992703333333
"S210120"	"Response_Inhibition"	"LEFT"	"LEFT"	424.022900000011	516.6666677	n/a	n/a	n/a	n/a	n/a	n/a	n/a	"2021-01-20 14:07:11.845066"	"2021-01-20 14:07:12.477375"	3	5.98992703333333
"S210120"	"Response_Inhibition"	"RIGHT"	"Time_Max_Exceeded"	1500.06093359999	1283.3333359	n/a	n/a	n/a	n/a	n/a	n/a	n/a	"2021-01-20 14:07:13.770041"	"2021-01-20 14:07:15.272999"	4	5.98992703333333
"S210120"	"Response_Inhibition"	"LEFT"	"LEFT"	416.964433700025	533.3333344	n/a	n/a	n/a	n/a	n/a	n/a	n/a	"2021-01-20 14:07:15.816828"	"2021-01-20 14:07:16.445479"	5	5.98992703333333
"S210120"	"Response_Inhibition"	"RIGHT"	"RIGHT"	986.976999999968	700.0000014	n/a	n/a	n/a	n/a	n/a	n/a	n/a	"2021-01-20 14:07:17.153602"	"2021-01-20 14:07:18.347901"	6	5.98992703333333
"S210120"	"Response_Inhibition"	"LEFT"	"LEFT"	405.639299999962	1266.6666692	n/a	n/a	n/a	n/a	n/a	n/a	n/a	"2021-01-20 14:07:19.623391"	"2021-01-20 14:07:20.237112"	7	5.98992703333333
"S210120"	"Response_Inhibition"	"RIGHT"	"RIGHT"	656.537700000001	933.3333352	n/a	n/a	n/a	n/a	n/a	n/a	n/a	"2021-01-20 14:07:21.180161"	"2021-01-20 14:07:22.045385"	8	5.98992703333333
"S210120"	"Response_Inhibition"	"RIGHT"	"RIGHT"	463.498799999968	800.0000016	n/a	n/a	n/a	n/a	n/a	n/a	n/a	"2021-01-20 14:07:22.853721"	"2021-01-20 14:07:23.526478"	9	5.98992703333333
"S210120"	"Response_Inhibition"	"RIGHT"	"RIGHT"	736.594500000024	533.3333344	n/a	n/a	n/a	n/a	n/a	n/a	n/a	"2021-01-20 14:07:24.068559"	"2021-01-20 14:07:25.013540"	10	5.98992703333333
"S210120"	"Response_Inhibition"	"RIGHT"	"Time_Max_Exceeded"	1500.04966689998	1066.6666688	n/a	n/a	n/a	n/a	n/a	n/a	n/a	"2021-01-20 14:07:26.089147"	"2021-01-20 14:07:27.592515"	11	5.98992703333333
"S210120"	"Response_Inhibition"	"LEFT"	"LEFT"	589.069600000016	533.3333344	n/a	n/a	n/a	n/a	n/a	n/a	n/a	"2021-01-20 14:07:28.136077"	"2021-01-20 14:07:28.932936"	12	5.98992703333333
"S210120"	"Response_Inhibition"	"LEFT"	"LEFT"	420.061599999997	1083.3333355	n/a	n/a	n/a	n/a	n/a	n/a	n/a	"2021-01-20 14:07:30.025072"	"2021-01-20 14:07:30.653753"	13	5.98992703333333
"S210120"	"Response_Inhibition"	"LEFT"	"Time_Max_Exceeded"	1500.05746679998	1150.0000023	n/a	n/a	n/a	n/a	n/a	n/a	n/a	"2021-01-20 14:07:31.812979"	"2021-01-20 14:07:33.316419"	14	5.98992703333333
"S210120"	"Response_Inhibition"	"LEFT"	"LEFT"	647.196500000007	1016.6666687	n/a	n/a	n/a	n/a	n/a	n/a	n/a	"2021-01-20 14:07:34.341143"	"2021-01-20 14:07:35.196796"	15	5.98992703333333
"S210120"	"Response_Inhibition"	"LEFT"	"LEFT"	482.843333800043	816.6666683	n/a	n/a	n/a	n/a	n/a	n/a	n/a	"2021-01-20 14:07:36.023048"	"2021-01-20 14:07:36.717596"	16	5.98992703333333
"S210120"	"Response_Inhibition"	"LEFT"	"LEFT"	915.305200000034	1050.0000021	n/a	n/a	n/a	n/a	n/a	n/a	n/a	"2021-01-20 14:07:37.777933"	"2021-01-20 14:07:38.901101"	17	5.98992703333333
"S210120"	"Response_Inhibition"	"RIGHT"	"RIGHT"	548.508100000049	850.0000017	n/a	n/a	n/a	n/a	n/a	n/a	n/a	"2021-01-20 14:07:39.760419"	"2021-01-20 14:07:40.517673"	18	5.98992703333333
"S210120"	"Response_Inhibition"	"LEFT"	"Time_Max_Exceeded"	1500.16156709994	1066.6666688	n/a	n/a	n/a	n/a	n/a	n/a	n/a	"2021-01-20 14:07:41.594530"	"2021-01-20 14:07:43.098129"	19	5.98992703333333
"S210120"	"Response_Inhibition"	"LEFT"	"LEFT"	631.014199999981	833.333335	n/a	n/a	n/a	n/a	n/a	n/a	n/a	"2021-01-20 14:07:43.941938"	"2021-01-20 14:07:44.781329"	20	5.98992703333333
"S210120"	"Response_Inhibition"	"LEFT"	"LEFT"	519.326299999989	1383.3333361	n/a	n/a	n/a	n/a	n/a	n/a	n/a	"2021-01-20 14:07:46.174134"	"2021-01-20 14:07:46.902617"	21	5.98992703333333
"S210120"	"Response_Inhibition"	"RIGHT"	"RIGHT"	666.571400000066	666.666668	n/a	n/a	n/a	n/a	n/a	n/a	n/a	"2021-01-20 14:07:47.578367"	"2021-01-20 14:07:48.453275"	22	5.98992703333333
"S210120"	"Response_Inhibition"	"LEFT"	"LEFT"	482.112699999902	1300.0000026	n/a	n/a	n/a	n/a	n/a	n/a	n/a	"2021-01-20 14:07:49.762476"	"2021-01-20 14:07:50.453589"	23	5.98992703333333
"S210120"	"Response_Inhibition"	"LEFT"	"Time_Max_Exceeded"	1500.05666680003	1416.6666695	n/a	n/a	n/a	n/a	n/a	n/a	n/a	"2021-01-20 14:07:51.879711"	"2021-01-20 14:07:53.382359"	24	5.98992703333333
"S210120"	"Response_Inhibition"	"LEFT"	"LEFT"	357.099000000062	1000.000002	n/a	n/a	n/a	n/a	n/a	n/a	n/a	"2021-01-20 14:07:54.391411"	"2021-01-20 14:07:54.956262"	25	5.98992703333333
"S210120"	"Response_Inhibition"	"LEFT"	"LEFT"	516.693400000008	1466.6666696	n/a	n/a	n/a	n/a	n/a	n/a	n/a	"2021-01-20 14:07:56.431980"	"2021-01-20 14:07:57.157409"	26	5.98992703333333
"S210120"	"Response_Inhibition"	"RIGHT"	"RIGHT"	654.624499999954	983.3333353	n/a	n/a	n/a	n/a	n/a	n/a	n/a	"2021-01-20 14:07:58.150072"	"2021-01-20 14:07:59.012146"	27	5.98992703333333
"S210120"	"Response_Inhibition"	"RIGHT"	"Time_Max_Exceeded"	1500.05190040009	650.0000013	n/a	n/a	n/a	n/a	n/a	n/a	n/a	"2021-01-20 14:07:59.670340"	"2021-01-20 14:08:01.173688"	28	5.98992703333333
"S210120"	"Response_Inhibition"	"RIGHT"	"RIGHT"	636.409399999934	633.3333346	n/a	n/a	n/a	n/a	n/a	n/a	n/a	"2021-01-20 14:08:01.816495"	"2021-01-20 14:08:02.661742"	29	5.98992703333333
"S210120"	"Response_Inhibition"	"RIGHT"	"Time_Max_Exceeded"	1500.21876729993	1416.6666695	n/a	n/a	n/a	n/a	n/a	n/a	n/a	"2021-01-20 14:08:04.087561"	"2021-01-20 14:08:05.591782"	30	5.98992703333333
"S210120"	"Response_Inhibition"	"RIGHT"	"Time_Max_Exceeded"	1500.05856700004	1350.0000027	n/a	n/a	n/a	n/a	n/a	n/a	n/a	"2021-01-20 14:08:06.950783"	"2021-01-20 14:08:08.454612"	31	5.98992703333333
"S210120"	"Response_Inhibition"	"RIGHT"	"RIGHT"	485.061500000029	1200.0000024	n/a	n/a	n/a	n/a	n/a	n/a	n/a	"2021-01-20 14:08:09.663774"	"2021-01-20 14:08:10.357878"	32	5.98992703333333
"S210120"	"Response_Inhibition"	"LEFT"	"LEFT"	422.597600000017	1183.3333357	n/a	n/a	n/a	n/a	n/a	n/a	n/a	"2021-01-20 14:08:11.550287"	"2021-01-20 14:08:12.180914"	33	5.98992703333333
"S210120"	"Response_Inhibition"	"LEFT"	"LEFT"	712.708799999973	566.6666678	n/a	n/a	n/a	n/a	n/a	n/a	n/a	"2021-01-20 14:08:12.756389"	"2021-01-20 14:08:13.677371"	34	5.98992703333333
"S210120"	"Response_Inhibition"	"RIGHT"	"RIGHT"	558.370399999944	766.6666682	n/a	n/a	n/a	n/a	n/a	n/a	n/a	"2021-01-20 14:08:14.454877"	"2021-01-20 14:08:15.220426"	35	5.98992703333333
"S210120"	"Response_Inhibition"	"RIGHT"	"RIGHT"	585.474100000056	550.0000011	n/a	n/a	n/a	n/a	n/a	n/a	n/a	"2021-01-20 14:08:15.779122"	"2021-01-20 14:08:16.573308"	36	5.98992703333333
"S210120"	"Response_Inhibition"	"RIGHT"	"RIGHT"	455.160800000044	583.3333345	n/a	n/a	n/a	n/a	n/a	n/a	n/a	"2021-01-20 14:08:17.165705"	"2021-01-20 14:08:17.828978"	37	5.98992703333333
"S210120"	"Response_Inhibition"	"LEFT"	"LEFT"	553.142500000035	1150.0000023	n/a	n/a	n/a	n/a	n/a	n/a	n/a	"2021-01-20 14:08:18.987140"	"2021-01-20 14:08:19.748331"	38	5.98992703333333
"S210120"	"Response_Inhibition"	"RIGHT"	"RIGHT"	478.725800000007	1216.6666691	n/a	n/a	n/a	n/a	n/a	n/a	n/a	"2021-01-20 14:08:20.974311"	"2021-01-20 14:08:21.660782"	39	5.98992703333333
"S210120"	"Response_Inhibition"	"LEFT"	"LEFT"	445.413400000007	1450.0000029	n/a	n/a	n/a	n/a	n/a	n/a	n/a	"2021-01-20 14:08:23.119208"	"2021-01-20 14:08:23.773457"	40	5.98992703333333
"S210120"	"Response_Inhibition"	"LEFT"	"LEFT"	504.204900699968	1283.3333359	n/a	n/a	n/a	n/a	n/a	n/a	n/a	"2021-01-20 14:08:25.065188"	"2021-01-20 14:08:25.780294"	41	5.98992703333333
"S210120"	"Response_Inhibition"	"RIGHT"	"RIGHT"	523.4375	1316.6666693	n/a	n/a	n/a	n/a	n/a	n/a	n/a	"2021-01-20 14:08:27.105764"	"2021-01-20 14:08:27.837256"	42	5.98992703333333
"S210120"	"Response_Inhibition"	"LEFT"	"Time_Max_Exceeded"	1500.05150059997	633.3333346	n/a	n/a	n/a	n/a	n/a	n/a	n/a	"2021-01-20 14:08:28.482556"	"2021-01-20 14:08:29.985944"	43	5.98992703333333
"S210120"	"Response_Inhibition"	"LEFT"	"LEFT"	721.188499999926	633.3333346	n/a	n/a	n/a	n/a	n/a	n/a	n/a	"2021-01-20 14:08:30.627273"	"2021-01-20 14:08:31.557225"	44	5.98992703333333
"S210120"	"Response_Inhibition"	"RIGHT"	"Time_Max_Exceeded"	1500.05760030001	600.0000012	n/a	n/a	n/a	n/a	n/a	n/a	n/a	"2021-01-20 14:08:32.166555"	"2021-01-20 14:08:33.670084"	45	5.98992703333333
"S210120"	"Response_Inhibition"	"RIGHT"	"RIGHT"	603.754400000071	1033.3333354	n/a	n/a	n/a	n/a	n/a	n/a	n/a	"2021-01-20 14:08:34.713391"	"2021-01-20 14:08:35.525199"	46	5.98992703333333
"S210120"	"Response_Inhibition"	"LEFT"	"Time_Max_Exceeded"	1500.08213359998	800.0000016	n/a	n/a	n/a	n/a	n/a	n/a	n/a	"2021-01-20 14:08:36.337050"	"2021-01-20 14:08:37.839992"	47	5.98992703333333
"S210120"	"Response_Inhibition"	"LEFT"	"Time_Max_Exceeded"	1500.05796730004	1416.6666695	n/a	n/a	n/a	n/a	n/a	n/a	n/a	"2021-01-20 14:08:39.266372"	"2021-01-20 14:08:40.770008"	48	5.98992703333333
"S210120"	"Response_Inhibition"	"RIGHT"	"RIGHT"	568.749400000002	583.3333345	n/a	n/a	n/a	n/a	n/a	n/a	n/a	"2021-01-20 14:08:41.363848"	"2021-01-20 14:08:42.142140"	49	5.98992703333333
"S210120"	"Response_Inhibition"	"RIGHT"	"RIGHT"	666.506300000037	1266.6666692	n/a	n/a	n/a	n/a	n/a	n/a	n/a	"2021-01-20 14:08:43.418280"	"2021-01-20 14:08:44.293942"	50	5.98992703333333
"S210120"	"Response_Inhibition"	"RIGHT"	"RIGHT"	617.983700000082	1100.0000022	n/a	n/a	n/a	n/a	n/a	n/a	n/a	"2021-01-20 14:08:45.403248"	"2021-01-20 14:08:46.229075"	51	5.98992703333333
"S210120"	"Response_Inhibition"	"RIGHT"	"RIGHT"	573.676800000044	1216.6666691	n/a	n/a	n/a	n/a	n/a	n/a	n/a	"2021-01-20 14:08:47.455534"	"2021-01-20 14:08:48.236054"	52	5.98992703333333
"S210120"	"Response_Inhibition"	"LEFT"	"LEFT"	606.162300000051	1233.3333358	n/a	n/a	n/a	n/a	n/a	n/a	n/a	"2021-01-20 14:08:49.478836"	"2021-01-20 14:08:50.293035"	53	5.98992703333333
"S210120"	"Response_Inhibition"	"RIGHT"	"Time_Max_Exceeded"	1500.04913390009	1050.0000021	n/a	n/a	n/a	n/a	n/a	n/a	n/a	"2021-01-20 14:08:51.351293"	"2021-01-20 14:08:52.854421"	54	5.98992703333333
"S210120"	"Response_Inhibition"	"RIGHT"	"Time_Max_Exceeded"	1500.05346689993	783.3333349	n/a	n/a	n/a	n/a	n/a	n/a	n/a	"2021-01-20 14:08:53.647300"	"2021-01-20 14:08:55.150089"	55	5.98992703333333
"S210120"	"Response_Inhibition"	"RIGHT"	"RIGHT"	722.026500000084	866.6666684	n/a	n/a	n/a	n/a	n/a	n/a	n/a	"2021-01-20 14:08:56.026264"	"2021-01-20 14:08:56.957574"	56	5.98992703333333
"S210120"	"Response_Inhibition"	"RIGHT"	"RIGHT"	799.758899999915	516.6666677	n/a	n/a	n/a	n/a	n/a	n/a	n/a	"2021-01-20 14:08:57.485183"	"2021-01-20 14:08:58.492507"	57	5.98992703333333
"S210120"	"Response_Inhibition"	"LEFT"	"LEFT"	543.570700000032	1333.333336	n/a	n/a	n/a	n/a	n/a	n/a	n/a	"2021-01-20 14:08:59.836659"	"2021-01-20 14:09:00.589626"	58	5.98992703333333
"S210120"	"Response_Inhibition"	"LEFT"	"Time_Max_Exceeded"	1500.05930019995	500.000001	n/a	n/a	n/a	n/a	n/a	n/a	n/a	"2021-01-20 14:09:01.100237"	"2021-01-20 14:09:02.603397"	59	5.98992703333333
"S210120"	"Response_Inhibition"	"RIGHT"	"RIGHT"	548.10980000002	1300.0000026	n/a	n/a	n/a	n/a	n/a	n/a	n/a	"2021-01-20 14:09:03.912770"	"2021-01-20 14:09:04.669124"	60	5.98992703333333
"S210120"	"Response_Inhibition"	"RIGHT"	"RIGHT"	500.490799999966	1016.6666687	n/a	n/a	n/a	n/a	n/a	n/a	n/a	"2021-01-20 14:09:05.696696"	"2021-01-20 14:09:06.404898"	61	5.98992703333333
"S210120"	"Response_Inhibition"	"RIGHT"	"RIGHT"	521.590599999968	1333.333336	n/a	n/a	n/a	n/a	n/a	n/a	n/a	"2021-01-20 14:09:07.747633"	"2021-01-20 14:09:08.477163"	62	5.98992703333333
"S210120"	"Response_Inhibition"	"LEFT"	"LEFT"	592.800800000077	1350.0000027	n/a	n/a	n/a	n/a	n/a	n/a	n/a	"2021-01-20 14:09:09.836045"	"2021-01-20 14:09:10.637693"	63	5.98992703333333
"S210120"	"Response_Inhibition"	"RIGHT"	"Time_Max_Exceeded"	1500.0477339	916.6666685	n/a	n/a	n/a	n/a	n/a	n/a	n/a	"2021-01-20 14:09:11.563277"	"2021-01-20 14:09:13.067237"	64	5.98992703333333
"S210120"	"Response_Inhibition"	"RIGHT"	"Time_Max_Exceeded"	1500.0592667	633.3333346	n/a	n/a	n/a	n/a	n/a	n/a	n/a	"2021-01-20 14:09:13.710517"	"2021-01-20 14:09:15.213280"	65	5.98992703333333
"S210120"	"Response_Inhibition"	"RIGHT"	"RIGHT"	593.415700000037	716.6666681	n/a	n/a	n/a	n/a	n/a	n/a	n/a	"2021-01-20 14:09:15.939578"	"2021-01-20 14:09:16.741544"	66	5.98992703333333
"S210120"	"Response_Inhibition"	"RIGHT"	"RIGHT"	627.464799999984	1466.6666696	n/a	n/a	n/a	n/a	n/a	n/a	n/a	"2021-01-20 14:09:18.217288"	"2021-01-20 14:09:19.052587"	67	5.98992703333333
"S210120"	"Response_Inhibition"	"LEFT"	"Time_Max_Exceeded"	1500.11139999992	1100.0000022	n/a	n/a	n/a	n/a	n/a	n/a	n/a	"2021-01-20 14:09:20.162389"	"2021-01-20 14:09:21.662895"	68	5.98992703333333
"S210120"	"Response_Inhibition"	"RIGHT"	"RIGHT"	527.152499999943	950.0000019	n/a	n/a	n/a	n/a	n/a	n/a	n/a	"2021-01-20 14:09:22.621928"	"2021-01-20 14:09:23.357347"	69	5.98992703333333
"S210120"	"Response_Inhibition"	"RIGHT"	"Time_Max_Exceeded"	1500.06156709996	683.3333347	n/a	n/a	n/a	n/a	n/a	n/a	n/a	"2021-01-20 14:09:24.049819"	"2021-01-20 14:09:25.553572"	70	5.98992703333333
"S210120"	"Response_Inhibition"	"LEFT"	"Time_Max_Exceeded"	1500.05450050003	983.3333353	n/a	n/a	n/a	n/a	n/a	n/a	n/a	"2021-01-20 14:09:26.545959"	"2021-01-20 14:09:28.049676"	71	5.98992703333333
"S210120"	"Response_Inhibition"	"LEFT"	"Time_Max_Exceeded"	1500.06223340002	550.0000011	n/a	n/a	n/a	n/a	n/a	n/a	n/a	"2021-01-20 14:09:28.609259"	"2021-01-20 14:09:30.112132"	72	5.98992703333333
"S210120"	"Response_Inhibition"	"RIGHT"	"Time_Max_Exceeded"	1500.07123359998	1183.3333357	n/a	n/a	n/a	n/a	n/a	n/a	n/a	"2021-01-20 14:09:31.306982"	"2021-01-20 14:09:32.810022"	73	5.98992703333333
"S210120"	"Response_Inhibition"	"LEFT"	"LEFT"	687.142200000039	600.0000012	n/a	n/a	n/a	n/a	n/a	n/a	n/a	"2021-01-20 14:09:33.421467"	"2021-01-20 14:09:34.316757"	74	5.98992703333333
"S210120"	"Response_Inhibition"	"RIGHT"	"RIGHT"	552.419399999962	783.3333349	n/a	n/a	n/a	n/a	n/a	n/a	n/a	"2021-01-20 14:09:35.108605"	"2021-01-20 14:09:35.868494"	75	5.98992703333333
"S210120"	"Response_Inhibition"	"RIGHT"	"Time_Max_Exceeded"	1500.0522338	900.0000018	n/a	n/a	n/a	n/a	n/a	n/a	n/a	"2021-01-20 14:09:36.777737"	"2021-01-20 14:09:38.281401"	76	5.98992703333333
"S210120"	"Response_Inhibition"	"LEFT"	"Time_Max_Exceeded"	1500.0530003	900.0000018	n/a	n/a	n/a	n/a	n/a	n/a	n/a	"2021-01-20 14:09:39.191484"	"2021-01-20 14:09:40.695742"	77	5.98992703333333
"S210120"	"Response_Inhibition"	"LEFT"	"Time_Max_Exceeded"	1500.05490050001	1250.0000025	n/a	n/a	n/a	n/a	n/a	n/a	n/a	"2021-01-20 14:09:41.956001"	"2021-01-20 14:09:43.459642"	78	5.98992703333333
"S210120"	"Response_Inhibition"	"RIGHT"	"RIGHT"	619.891000000052	1483.3333363	n/a	n/a	n/a	n/a	n/a	n/a	n/a	"2021-01-20 14:09:44.952830"	"2021-01-20 14:09:45.780829"	79	5.98992703333333
"S210120"	"Response_Inhibition"	"LEFT"	"LEFT"	655.912100000023	966.6666686	n/a	n/a	n/a	n/a	n/a	n/a	n/a	"2021-01-20 14:09:46.756513"	"2021-01-20 14:09:47.621124"	80	5.98992703333333
"S210120"	"Response_Inhibition"	"LEFT"	"Time_Max_Exceeded"	1500.05713339995	733.3333348	n/a	n/a	n/a	n/a	n/a	n/a	n/a	"2021-01-20 14:09:48.363243"	"2021-01-20 14:09:49.866600"	81	5.98992703333333
"S210120"	"Response_Inhibition"	"LEFT"	"Time_Max_Exceeded"	1500.07493349991	1366.6666694	n/a	n/a	n/a	n/a	n/a	n/a	n/a	"2021-01-20 14:09:51.244007"	"2021-01-20 14:09:52.747532"	82	5.98992703333333
"S210120"	"Response_Inhibition"	"RIGHT"	"Time_Max_Exceeded"	1500.06656669999	1316.6666693	n/a	n/a	n/a	n/a	n/a	n/a	n/a	"2021-01-20 14:09:54.074791"	"2021-01-20 14:09:55.579143"	83	5.98992703333333
"S210120"	"Response_Inhibition"	"LEFT"	"LEFT"	660.414199999991	700.0000014	n/a	n/a	n/a	n/a	n/a	n/a	n/a	"2021-01-20 14:09:56.288529"	"2021-01-20 14:09:57.156853"	84	5.98992703333333
"S210120"	"Response_Inhibition"	"LEFT"	"Time_Max_Exceeded"	1500.05486700006	1033.3333354	n/a	n/a	n/a	n/a	n/a	n/a	n/a	"2021-01-20 14:09:58.198477"	"2021-01-20 14:09:59.702185"	85	5.98992703333333
"S210120"	"Response_Inhibition"	"LEFT"	"LEFT"	626.319800000033	1483.3333363	n/a	n/a	n/a	n/a	n/a	n/a	n/a	"2021-01-20 14:10:01.194517"	"2021-01-20 14:10:02.029099"	86	5.98992703333333
"S210120"	"Response_Inhibition"	"RIGHT"	"Time_Max_Exceeded"	1500.04883400001	850.0000017	n/a	n/a	n/a	n/a	n/a	n/a	n/a	"2021-01-20 14:10:02.887827"	"2021-01-20 14:10:04.391486"	87	5.98992703333333
"S210120"	"Response_Inhibition"	"RIGHT"	"RIGHT"	770.702700000015	1050.0000021	n/a	n/a	n/a	n/a	n/a	n/a	n/a	"2021-01-20 14:10:05.451208"	"2021-01-20 14:10:06.429368"	88	5.98992703333333
"S210120"	"Response_Inhibition"	"LEFT"	"LEFT"	660.125900000025	650.0000013	n/a	n/a	n/a	n/a	n/a	n/a	n/a	"2021-01-20 14:10:07.088577"	"2021-01-20 14:10:07.957133"	89	5.98992703333333
"S210120"	"Response_Inhibition"	"LEFT"	"LEFT"	421.065099999964	1050.0000021	n/a	n/a	n/a	n/a	n/a	n/a	n/a	"2021-01-20 14:10:09.015949"	"2021-01-20 14:10:09.644935"	90	5.98992703333333
"S210120"	"Response_Inhibition"	"RIGHT"	"RIGHT"	552.143500700034	1100.0000022	n/a	n/a	n/a	n/a	n/a	n/a	n/a	"2021-01-20 14:10:10.753186"	"2021-01-20 14:10:11.516188"	91	5.98992703333333
"S210120"	"Response_Inhibition"	"RIGHT"	"RIGHT"	966.250299999956	1383.3333361	n/a	n/a	n/a	n/a	n/a	n/a	n/a	"2021-01-20 14:10:12.910113"	"2021-01-20 14:10:14.084965"	92	5.98992703333333
"S210120"	"Response_Inhibition"	"LEFT"	"LEFT"	619.289500000036	1316.6666693	n/a	n/a	n/a	n/a	n/a	n/a	n/a	"2021-01-20 14:10:15.409747"	"2021-01-20 14:10:16.237205"	93	5.98992703333333
"S210120"	"Response_Inhibition"	"LEFT"	"Time_Max_Exceeded"	1500.08753389997	683.3333347	n/a	n/a	n/a	n/a	n/a	n/a	n/a	"2021-01-20 14:10:16.929329"	"2021-01-20 14:10:18.432255"	94	5.98992703333333
"S210120"	"Response_Inhibition"	"RIGHT"	"RIGHT"	549.635099999932	1116.6666689	n/a	n/a	n/a	n/a	n/a	n/a	n/a	"2021-01-20 14:10:19.558908"	"2021-01-20 14:10:20.316190"	95	5.98992703333333
"S210120"	"Response_Inhibition"	"LEFT"	"Time_Max_Exceeded"	1500.04976710004	1166.666669	n/a	n/a	n/a	n/a	n/a	n/a	n/a	"2021-01-20 14:10:21.491647"	"2021-01-20 14:10:22.994132"	96	5.98992703333333
"S210120"	"Response_Inhibition"	"RIGHT"	"Time_Max_Exceeded"	1500.04990009995	1450.0000029	n/a	n/a	n/a	n/a	n/a	n/a	n/a	"2021-01-20 14:10:24.455004"	"2021-01-20 14:10:25.958261"	97	5.98992703333333
"S210120"	"Response_Inhibition"	"RIGHT"	"RIGHT"	726.730799999928	1150.0000023	n/a	n/a	n/a	n/a	n/a	n/a	n/a	"2021-01-20 14:10:27.118081"	"2021-01-20 14:10:28.053353"	98	5.98992703333333
"S210120"	"Response_Inhibition"	"RIGHT"	"Time_Max_Exceeded"	1500.05310009999	833.333335	n/a	n/a	n/a	n/a	n/a	n/a	n/a	"2021-01-20 14:10:28.895908"	"2021-01-20 14:10:30.398842"	99	5.98992703333333
"S210120"	"Response_Inhibition"	"LEFT"	"Time_Max_Exceeded"	1500.0563334	950.0000019	n/a	n/a	n/a	n/a	n/a	n/a	n/a	"2021-01-20 14:10:31.357872"	"2021-01-20 14:10:32.861514"	100	5.98992703333333
"S210120"	"Response_Inhibition"	"RIGHT"	"RIGHT"	689.735100000007	683.3333347	n/a	n/a	n/a	n/a	n/a	n/a	n/a	"2021-01-20 14:10:33.554478"	"2021-01-20 14:10:34.453759"	101	5.98992703333333
"S210120"	"Response_Inhibition"	"LEFT"	"LEFT"	661.376099999984	783.3333349	n/a	n/a	n/a	n/a	n/a	n/a	n/a	"2021-01-20 14:10:35.247475"	"2021-01-20 14:10:36.116197"	102	5.98992703333333
"S210120"	"Response_Inhibition"	"RIGHT"	"RIGHT"	596.938600000044	883.3333351	n/a	n/a	n/a	n/a	n/a	n/a	n/a	"2021-01-20 14:10:37.008007"	"2021-01-20 14:10:37.813385"	103	5.98992703333333
"S210120"	"Response_Inhibition"	"RIGHT"	"RIGHT"	743.939100000034	1366.6666694	n/a	n/a	n/a	n/a	n/a	n/a	n/a	"2021-01-20 14:10:39.188658"	"2021-01-20 14:10:40.141153"	104	5.98992703333333
"S210120"	"Response_Inhibition"	"LEFT"	"LEFT"	546.374700000001	683.3333347	n/a	n/a	n/a	n/a	n/a	n/a	n/a	"2021-01-20 14:10:40.834779"	"2021-01-20 14:10:41.587783"	105	5.98992703333333
"S210120"	"Response_Inhibition"	"RIGHT"	"RIGHT"	429.471599999943	616.6666679	n/a	n/a	n/a	n/a	n/a	n/a	n/a	"2021-01-20 14:10:42.214533"	"2021-01-20 14:10:42.852370"	106	5.98992703333333
"S210120"	"Response_Inhibition"	"LEFT"	"LEFT"	639.210299999945	583.3333345	n/a	n/a	n/a	n/a	n/a	n/a	n/a	"2021-01-20 14:10:43.445807"	"2021-01-20 14:10:44.293280"	107	5.98992703333333
"S210120"	"Response_Inhibition"	"LEFT"	"LEFT"	549.842199999944	1216.6666691	n/a	n/a	n/a	n/a	n/a	n/a	n/a	"2021-01-20 14:10:45.518726"	"2021-01-20 14:10:46.276972"	108	5.98992703333333
"S210120"	"Response_Inhibition"	"RIGHT"	"RIGHT"	464.977799999929	1133.3333356	n/a	n/a	n/a	n/a	n/a	n/a	n/a	"2021-01-20 14:10:47.420065"	"2021-01-20 14:10:48.094661"	109	5.98992703333333
"S210120"	"Response_Inhibition"	"LEFT"	"LEFT"	425.1584000001	900.0000018	n/a	n/a	n/a	n/a	n/a	n/a	n/a	"2021-01-20 14:10:49.003738"	"2021-01-20 14:10:49.636371"	110	5.98992703333333
"S210120"	"Response_Inhibition"	"RIGHT"	"RIGHT"	618.067399999973	750.0000015	n/a	n/a	n/a	n/a	n/a	n/a	n/a	"2021-01-20 14:10:50.394845"	"2021-01-20 14:10:51.221229"	111	5.98992703333333
"S210120"	"Response_Inhibition"	"RIGHT"	"RIGHT"	606.623000000013	1000.000002	n/a	n/a	n/a	n/a	n/a	n/a	n/a	"2021-01-20 14:10:52.230149"	"2021-01-20 14:10:53.045305"	112	5.98992703333333
"S210120"	"Response_Inhibition"	"LEFT"	"LEFT"	488.971900000024	750.0000015	n/a	n/a	n/a	n/a	n/a	n/a	n/a	"2021-01-20 14:10:53.803292"	"2021-01-20 14:10:54.503485"	113	5.98992703333333
"S210120"	"Response_Inhibition"	"RIGHT"	"RIGHT"	481.29890000007	1083.3333355	n/a	n/a	n/a	n/a	n/a	n/a	n/a	"2021-01-20 14:10:55.595670"	"2021-01-20 14:10:56.285015"	114	5.98992703333333
"S210120"	"Response_Inhibition"	"RIGHT"	"Time_Max_Exceeded"	1500.05516719993	1000.000002	n/a	n/a	n/a	n/a	n/a	n/a	n/a	"2021-01-20 14:10:57.294180"	"2021-01-20 14:10:58.797772"	115	5.98992703333333
"S210120"	"Response_Inhibition"	"RIGHT"	"Time_Max_Exceeded"	1500.05253349999	966.6666686	n/a	n/a	n/a	n/a	n/a	n/a	n/a	"2021-01-20 14:10:59.773703"	"2021-01-20 14:11:01.276886"	116	5.98992703333333
"S210120"	"Response_Inhibition"	"RIGHT"	"Time_Max_Exceeded"	1500.0728	500.000001	n/a	n/a	n/a	n/a	n/a	n/a	n/a	"2021-01-20 14:11:01.786062"	"2021-01-20 14:11:03.286516"	117	5.98992703333333
"S210120"	"Response_Inhibition"	"RIGHT"	"RIGHT"	654.505500000027	950.0000019	n/a	n/a	n/a	n/a	n/a	n/a	n/a	"2021-01-20 14:11:04.246573"	"2021-01-20 14:11:05.109273"	118	5.98992703333333
"S210120"	"Response_Inhibition"	"LEFT"	"LEFT"	728.757100000053	733.3333348	n/a	n/a	n/a	n/a	n/a	n/a	n/a	"2021-01-20 14:11:05.852267"	"2021-01-20 14:11:06.790676"	119	5.98992703333333
"S210120"	"Response_Inhibition"	"RIGHT"	"Time_Max_Exceeded"	1500.05766719998	1366.6666694	n/a	n/a	n/a	n/a	n/a	n/a	n/a	"2021-01-20 14:11:08.166174"	"2021-01-20 14:11:09.670333"	120	5.98992703333333
"S210120"	"Response_Inhibition"	"LEFT"	"LEFT"	527.653600000008	950.0000019	n/a	n/a	n/a	n/a	n/a	n/a	n/a	"2021-01-20 14:11:10.628562"	"2021-01-20 14:11:11.365632"	121	5.98992703333333
"S210120"	"Response_Inhibition"	"LEFT"	"Time_Max_Exceeded"	1500.05253399999	1216.6666691	n/a	n/a	n/a	n/a	n/a	n/a	n/a	"2021-01-20 14:11:12.591509"	"2021-01-20 14:11:14.095037"	122	5.98992703333333
"S210120"	"Response_Inhibition"	"LEFT"	"LEFT"	749.670199999969	783.3333349	n/a	n/a	n/a	n/a	n/a	n/a	n/a	"2021-01-20 14:11:14.886566"	"2021-01-20 14:11:15.844065"	123	5.98992703333333
"S210120"	"Response_Inhibition"	"LEFT"	"LEFT"	537.376499999937	933.3333352	n/a	n/a	n/a	n/a	n/a	n/a	n/a	"2021-01-20 14:11:16.787324"	"2021-01-20 14:11:17.533615"	124	5.98992703333333
"S210120"	"Response_Inhibition"	"LEFT"	"LEFT"	583.791200000064	766.6666682	n/a	n/a	n/a	n/a	n/a	n/a	n/a	"2021-01-20 14:11:18.308958"	"2021-01-20 14:11:19.100256"	125	5.98992703333333
"S210120"	"Response_Inhibition"	"LEFT"	"LEFT"	516.02969999999	866.6666684	n/a	n/a	n/a	n/a	n/a	n/a	n/a	"2021-01-20 14:11:19.976385"	"2021-01-20 14:11:20.700669"	126	5.98992703333333
"S210120"	"Response_Inhibition"	"RIGHT"	"RIGHT"	662.873200000035	1416.6666695	n/a	n/a	n/a	n/a	n/a	n/a	n/a	"2021-01-20 14:11:22.125528"	"2021-01-20 14:11:22.997246"	127	5.98992703333333
"S210120"	"Response_Inhibition"	"RIGHT"	"RIGHT"	652.645099999972	1433.3333362	n/a	n/a	n/a	n/a	n/a	n/a	n/a	"2021-01-20 14:11:24.440418"	"2021-01-20 14:11:25.301321"	128	5.98992703333333
"S210120"	"Response_Inhibition"	"LEFT"	"LEFT"	473.955199999978	1100.0000022	n/a	n/a	n/a	n/a	n/a	n/a	n/a	"2021-01-20 14:11:26.410638"	"2021-01-20 14:11:27.092311"	129	5.98992703333333
"S210120"	"Response_Inhibition"	"RIGHT"	"RIGHT"	475.186699999995	1266.6666692	n/a	n/a	n/a	n/a	n/a	n/a	n/a	"2021-01-20 14:11:28.369492"	"2021-01-20 14:11:29.053054"	130	5.98992703333333
"S210120"	"Response_Inhibition"	"LEFT"	"LEFT"	369.3806	1116.6666689	n/a	n/a	n/a	n/a	n/a	n/a	n/a	"2021-01-20 14:11:30.179047"	"2021-01-20 14:11:30.757567"	131	5.98992703333333
"S210120"	"Response_Inhibition"	"LEFT"	"LEFT"	594.527199999902	1500.000003	n/a	n/a	n/a	n/a	n/a	n/a	n/a	"2021-01-20 14:11:32.265800"	"2021-01-20 14:11:33.068957"	132	5.98992703333333
"S210120"	"Response_Inhibition"	"RIGHT"	"RIGHT"	622.229999999945	816.6666683	n/a	n/a	n/a	n/a	n/a	n/a	n/a	"2021-01-20 14:11:33.894773"	"2021-01-20 14:11:34.725776"	133	5.98992703333333
"S210120"	"Response_Inhibition"	"RIGHT"	"RIGHT"	664.613400000007	1500.000003	n/a	n/a	n/a	n/a	n/a	n/a	n/a	"2021-01-20 14:11:36.236180"	"2021-01-20 14:11:37.109097"	134	5.98992703333333
"S210120"	"Response_Inhibition"	"LEFT"	"LEFT"	645.066499999984	1433.3333362	n/a	n/a	n/a	n/a	n/a	n/a	n/a	"2021-01-20 14:11:38.551447"	"2021-01-20 14:11:39.404241"	135	5.98992703333333
"S210120"	"Response_Inhibition"	"RIGHT"	"Time_Max_Exceeded"	1500.06340020002	733.3333348	n/a	n/a	n/a	n/a	n/a	n/a	n/a	"2021-01-20 14:11:40.146418"	"2021-01-20 14:11:41.649930"	136	5.98992703333333
"S210120"	"Response_Inhibition"	"RIGHT"	"RIGHT"	639.828899999998	1466.6666696	n/a	n/a	n/a	n/a	n/a	n/a	n/a	"2021-01-20 14:11:43.126516"	"2021-01-20 14:11:43.975045"	137	5.98992703333333
"S210120"	"Response_Inhibition"	"RIGHT"	"RIGHT"	671.855299999947	900.0000018	n/a	n/a	n/a	n/a	n/a	n/a	n/a	"2021-01-20 14:11:44.884631"	"2021-01-20 14:11:45.763966"	138	5.98992703333333
"S210120"	"Response_Inhibition"	"RIGHT"	"RIGHT"	897.846500000014	733.3333348	n/a	n/a	n/a	n/a	n/a	n/a	n/a	"2021-01-20 14:11:46.506534"	"2021-01-20 14:11:47.612956"	139	5.98992703333333
"S210120"	"Response_Inhibition"	"LEFT"	"LEFT"	550.51549999996	1000.000002	n/a	n/a	n/a	n/a	n/a	n/a	n/a	"2021-01-20 14:11:48.621928"	"2021-01-20 14:11:49.381204"	140	5.98992703333333
"S210120"	"Response_Inhibition"	"LEFT"	"LEFT"	611.723499999925	850.0000017	n/a	n/a	n/a	n/a	n/a	n/a	n/a	"2021-01-20 14:11:50.240845"	"2021-01-20 14:11:51.060685"	141	5.98992703333333
"S210120"	"Response_Inhibition"	"LEFT"	"Time_Max_Exceeded"	1500.05350039999	716.6666681	n/a	n/a	n/a	n/a	n/a	n/a	n/a	"2021-01-20 14:11:51.787874"	"2021-01-20 14:11:53.291793"	142	5.98992703333333
"S210120"	"Response_Inhibition"	"RIGHT"	"Time_Max_Exceeded"	1500.05490050001	533.3333344	n/a	n/a	n/a	n/a	n/a	n/a	n/a	"2021-01-20 14:11:53.834305"	"2021-01-20 14:11:55.338424"	143	5.98992703333333
"S210120"	"Response_Inhibition"	"LEFT"	"Time_Max_Exceeded"	1500.05246699997	850.0000017	n/a	n/a	n/a	n/a	n/a	n/a	n/a	"2021-01-20 14:11:56.197831"	"2021-01-20 14:11:57.700880"	144	5.98992703333333
"S210120"	"Response_Inhibition"	"LEFT"	"LEFT"	613.395500000024	1200.0000024	n/a	n/a	n/a	n/a	n/a	n/a	n/a	"2021-01-20 14:11:58.911782"	"2021-01-20 14:11:59.733584"	145	5.98992703333333
"S210120"	"Response_Inhibition"	"LEFT"	"LEFT"	547.073300000079	883.3333351	n/a	n/a	n/a	n/a	n/a	n/a	n/a	"2021-01-20 14:12:00.625888"	"2021-01-20 14:12:01.380683"	146	5.98992703333333
"S210120"	"Response_Inhibition"	"RIGHT"	"RIGHT"	766.781300000048	566.6666678	n/a	n/a	n/a	n/a	n/a	n/a	n/a	"2021-01-20 14:12:01.957122"	"2021-01-20 14:12:02.932858"	147	5.98992703333333
"S210120"	"Response_Inhibition"	"LEFT"	"LEFT"	377.049199999988	1266.6666692	n/a	n/a	n/a	n/a	n/a	n/a	n/a	"2021-01-20 14:12:04.212000"	"2021-01-20 14:12:04.796088"	148	5.98992703333333
"S210120"	"Response_Inhibition"	"LEFT"	"LEFT"	375.75789999994	1400.0000028	n/a	n/a	n/a	n/a	n/a	n/a	n/a	"2021-01-20 14:12:06.204308"	"2021-01-20 14:12:06.788658"	149	5.98992703333333
"S210120"	"Response_Inhibition"	"LEFT"	"LEFT"	482.326300000068	916.6666685	n/a	n/a	n/a	n/a	n/a	n/a	n/a	"2021-01-20 14:12:07.714290"	"2021-01-20 14:12:08.406481"	150	5.98992703333333
"S210120"	"Response_Inhibition"	"LEFT"	"LEFT"	370.588699999985	666.666668	n/a	n/a	n/a	n/a	n/a	n/a	n/a	"2021-01-20 14:12:09.081727"	"2021-01-20 14:12:09.662266"	151	5.98992703333333
"S210120"	"Response_Inhibition"	"RIGHT"	"RIGHT"	469.292600000017	1400.0000028	n/a	n/a	n/a	n/a	n/a	n/a	n/a	"2021-01-20 14:12:11.071629"	"2021-01-20 14:12:11.748676"	152	5.98992703333333
"S210120"	"Response_Inhibition"	"RIGHT"	"RIGHT"	444.008967300009	1166.666669	n/a	n/a	n/a	n/a	n/a	n/a	n/a	"2021-01-20 14:12:12.925124"	"2021-01-20 14:12:13.581720"	153	5.98992703333333
"S210120"	"Response_Inhibition"	"LEFT"	"Time_Max_Exceeded"	1500.04736680004	1466.6666696	n/a	n/a	n/a	n/a	n/a	n/a	n/a	"2021-01-20 14:12:15.057308"	"2021-01-20 14:12:16.560927"	154	5.98992703333333
"S210120"	"Response_Inhibition"	"RIGHT"	"RIGHT"	795.940499999915	1150.0000023	n/a	n/a	n/a	n/a	n/a	n/a	n/a	"2021-01-20 14:12:17.720624"	"2021-01-20 14:12:18.724347"	155	5.98992703333333
"S210120"	"Response_Inhibition"	"LEFT"	"LEFT"	639.780599999995	1366.6666694	n/a	n/a	n/a	n/a	n/a	n/a	n/a	"2021-01-20 14:12:20.101255"	"2021-01-20 14:12:20.949780"	156	5.98992703333333
"S210120"	"Response_Inhibition"	"LEFT"	"LEFT"	502.286899999945	1133.3333356	n/a	n/a	n/a	n/a	n/a	n/a	n/a	"2021-01-20 14:12:22.094400"	"2021-01-20 14:12:22.805495"	157	5.98992703333333
"S210120"	"Response_Inhibition"	"RIGHT"	"RIGHT"	765.480599999933	1233.3333358	n/a	n/a	n/a	n/a	n/a	n/a	n/a	"2021-01-20 14:12:24.047054"	"2021-01-20 14:12:25.022363"	158	5.98992703333333
"S210120"	"Response_Inhibition"	"LEFT"	"Time_Max_Exceeded"	1500.05003370003	1316.6666693	n/a	n/a	n/a	n/a	n/a	n/a	n/a	"2021-01-20 14:12:26.348465"	"2021-01-20 14:12:27.852218"	159	5.98992703333333
"S210120"	"Response_Inhibition"	"LEFT"	"Time_Max_Exceeded"	1500.09330019998	616.6666679	n/a	n/a	n/a	n/a	n/a	n/a	n/a	"2021-01-20 14:12:28.478827"	"2021-01-20 14:12:29.982179"	160	5.98992703333333
"S210120"	"Response_Selection"	"LEFT"	"LEFT"	370.507499999974	700.0000014	n/a	n/a	n/a	n/a	n/a	n/a	n/a	"2021-01-20 14:04:25.410769"	"2021-01-20 14:04:25.989196"	1	2.8135175
"S210120"	"Response_Selection"	"LEFT"	"LEFT"	374.573600000019	1416.6666695	n/a	n/a	n/a	n/a	n/a	n/a	n/a	"2021-01-20 14:04:27.414112"	"2021-01-20 14:04:27.997649"	2	2.8135175
"S210120"	"Response_Selection"	"LEFT"	"LEFT"	310.423299999968	1200.0000024	n/a	n/a	n/a	n/a	n/a	n/a	n/a	"2021-01-20 14:04:29.206953"	"2021-01-20 14:04:29.725112"	3	2.8135175
"S210120"	"Response_Selection"	"RIGHT"	"RIGHT"	315.272599999957	1300.0000026	n/a	n/a	n/a	n/a	n/a	n/a	n/a	"2021-01-20 14:04:31.033932"	"2021-01-20 14:04:31.558486"	4	2.8135175
"S210120"	"Response_Selection"	"LEFT"	"LEFT"	265.927299999987	1300.0000026	n/a	n/a	n/a	n/a	n/a	n/a	n/a	"2021-01-20 14:04:32.867098"	"2021-01-20 14:04:33.342589"	5	2.8135175
"S210120"	"Response_Selection"	"RIGHT"	"RIGHT"	397.112600000014	600.0000012	n/a	n/a	n/a	n/a	n/a	n/a	n/a	"2021-01-20 14:04:33.951859"	"2021-01-20 14:04:34.556797"	6	2.8135175
"S210120"	"Response_Selection"	"LEFT"	"LEFT"	274.507799999981	933.3333352	n/a	n/a	n/a	n/a	n/a	n/a	n/a	"2021-01-20 14:04:35.498781"	"2021-01-20 14:04:35.981611"	7	2.8135175
"S210120"	"Response_Selection"	"LEFT"	"LEFT"	400.756800000011	733.3333348	n/a	n/a	n/a	n/a	n/a	n/a	n/a	"2021-01-20 14:04:36.724110"	"2021-01-20 14:04:37.333777"	8	2.8135175
"S210120"	"Response_Selection"	"RIGHT"	"RIGHT"	302.699300000029	983.3333353	n/a	n/a	n/a	n/a	n/a	n/a	n/a	"2021-01-20 14:04:38.326533"	"2021-01-20 14:04:38.837713"	9	2.8135175
"S210120"	"Response_Selection"	"LEFT"	"LEFT"	265.786600000013	1500.000003	n/a	n/a	n/a	n/a	n/a	n/a	n/a	"2021-01-20 14:04:40.347336"	"2021-01-20 14:04:40.821825"	10	2.8135175
"S210120"	"Response_Selection"	"RIGHT"	"RIGHT"	312.915000000032	916.6666685	n/a	n/a	n/a	n/a	n/a	n/a	n/a	"2021-01-20 14:04:41.748411"	"2021-01-20 14:04:42.269018"	11	2.8135175
"S210120"	"Response_Selection"	"RIGHT"	"RIGHT"	589.48730000003	833.333335	n/a	n/a	n/a	n/a	n/a	n/a	n/a	"2021-01-20 14:04:43.111855"	"2021-01-20 14:04:43.908814"	12	2.8135175
"S210120"	"Response_Selection"	"RIGHT"	"RIGHT"	416.580100000033	1366.6666694	n/a	n/a	n/a	n/a	n/a	n/a	n/a	"2021-01-20 14:04:45.285077"	"2021-01-20 14:04:45.910063"	13	2.8135175
"S210120"	"Response_Selection"	"RIGHT"	"RIGHT"	373.7663	800.0000016	n/a	n/a	n/a	n/a	n/a	n/a	n/a	"2021-01-20 14:04:46.718984"	"2021-01-20 14:04:47.301350"	14	2.8135175
"S210120"	"Response_Selection"	"RIGHT"	"RIGHT"	312.54389999998	966.6666686	n/a	n/a	n/a	n/a	n/a	n/a	n/a	"2021-01-20 14:04:48.276694"	"2021-01-20 14:04:48.797895"	15	2.8135175
"S210120"	"Response_Selection"	"LEFT"	"LEFT"	379.787099999987	866.6666684	n/a	n/a	n/a	n/a	n/a	n/a	n/a	"2021-01-20 14:04:49.674071"	"2021-01-20 14:04:50.265520"	16	2.8135175
"S210120"	"Response_Selection"	"RIGHT"	"RIGHT"	298.295399999972	1416.6666695	n/a	n/a	n/a	n/a	n/a	n/a	n/a	"2021-01-20 14:04:51.690709"	"2021-01-20 14:04:52.197650"	17	2.8135175
"S210120"	"Response_Selection"	"LEFT"	"LEFT"	327.516100000025	583.3333345	n/a	n/a	n/a	n/a	n/a	n/a	n/a	"2021-01-20 14:04:52.789077"	"2021-01-20 14:04:53.325685"	18	2.8135175
"S210120"	"Response_Selection"	"RIGHT"	"RIGHT"	262.97059999996	783.3333349	n/a	n/a	n/a	n/a	n/a	n/a	n/a	"2021-01-20 14:04:54.117798"	"2021-01-20 14:04:54.589093"	19	2.8135175
"S210120"	"Response_Selection"	"RIGHT"	"RIGHT"	416.928900000016	550.0000011	n/a	n/a	n/a	n/a	n/a	n/a	n/a	"2021-01-20 14:04:55.148554"	"2021-01-20 14:04:55.774499"	20	2.8135175
"S210120"	"Response_Selection"	"LEFT"	"LEFT"	276.501899999971	1366.6666694	n/a	n/a	n/a	n/a	n/a	n/a	n/a	"2021-01-20 14:04:57.151913"	"2021-01-20 14:04:57.640570"	21	2.8135175
"S210120"	"Response_Selection"	"RIGHT"	"RIGHT"	338.256900000033	583.3333345	n/a	n/a	n/a	n/a	n/a	n/a	n/a	"2021-01-20 14:04:58.235048"	"2021-01-20 14:04:58.784116"	22	2.8135175
"S210120"	"Response_Selection"	"LEFT"	"LEFT"	272.334699999988	1216.6666691	n/a	n/a	n/a	n/a	n/a	n/a	n/a	"2021-01-20 14:05:00.013040"	"2021-01-20 14:05:00.492782"	23	2.8135175
"S210120"	"Response_Selection"	"RIGHT"	"RIGHT"	251.496599999996	883.3333351	n/a	n/a	n/a	n/a	n/a	n/a	n/a	"2021-01-20 14:05:01.385381"	"2021-01-20 14:05:01.844493"	24	2.8135175
"S210120"	"Response_Selection"	"LEFT"	"LEFT"	265.538100000015	1116.6666689	n/a	n/a	n/a	n/a	n/a	n/a	n/a	"2021-01-20 14:05:02.971523"	"2021-01-20 14:05:03.445265"	25	2.8135175
"S210120"	"Response_Selection"	"RIGHT"	"RIGHT"	273.826799999995	1350.0000027	n/a	n/a	n/a	n/a	n/a	n/a	n/a	"2021-01-20 14:05:04.804229"	"2021-01-20 14:05:05.284960"	26	2.8135175
"S210120"	"Response_Selection"	"RIGHT"	"RIGHT"	531.597599999998	700.0000014	n/a	n/a	n/a	n/a	n/a	n/a	n/a	"2021-01-20 14:05:05.993003"	"2021-01-20 14:05:06.733788"	27	2.8135175
"S210120"	"Response_Selection"	"LEFT"	"LEFT"	279.946500000051	966.6666686	n/a	n/a	n/a	n/a	n/a	n/a	n/a	"2021-01-20 14:05:07.708738"	"2021-01-20 14:05:08.195981"	28	2.8135175
"S210120"	"Response_Selection"	"RIGHT"	"RIGHT"	304.902800000036	750.0000015	n/a	n/a	n/a	n/a	n/a	n/a	n/a	"2021-01-20 14:05:08.956472"	"2021-01-20 14:05:09.468335"	29	2.8135175
"S210120"	"Response_Selection"	"RIGHT"	"RIGHT"	423.265399999991	633.3333346	n/a	n/a	n/a	n/a	n/a	n/a	n/a	"2021-01-20 14:05:10.110704"	"2021-01-20 14:05:10.741330"	30	2.8135175
"S210120"	"Response_Selection"	"LEFT"	"LEFT"	301.343800000041	650.0000013	n/a	n/a	n/a	n/a	n/a	n/a	n/a	"2021-01-20 14:05:11.399632"	"2021-01-20 14:05:11.908920"	31	2.8135175
"S210120"	"Response_Selection"	"RIGHT"	"RIGHT"	320.978700000012	1133.3333356	n/a	n/a	n/a	n/a	n/a	n/a	n/a	"2021-01-20 14:05:13.051972"	"2021-01-20 14:05:13.582321"	32	2.8135175
"S210120"	"Response_Selection"	"RIGHT"	"RIGHT"	431.145100000037	533.3333344	n/a	n/a	n/a	n/a	n/a	n/a	n/a	"2021-01-20 14:05:14.125824"	"2021-01-20 14:05:14.765665"	33	2.8135175
"S210120"	"Response_Selection"	"RIGHT"	"RIGHT"	386.517900000001	683.3333347	n/a	n/a	n/a	n/a	n/a	n/a	n/a	"2021-01-20 14:05:15.458760"	"2021-01-20 14:05:16.054368"	34	2.8135175
"S210120"	"Response_Selection"	"LEFT"	"LEFT"	342.951999999968	783.3333349	n/a	n/a	n/a	n/a	n/a	n/a	n/a	"2021-01-20 14:05:16.846345"	"2021-01-20 14:05:17.397335"	35	2.8135175
"S210120"	"Response_Selection"	"LEFT"	"LEFT"	438.382100000013	1016.6666687	n/a	n/a	n/a	n/a	n/a	n/a	n/a	"2021-01-20 14:05:18.422874"	"2021-01-20 14:05:19.069361"	36	2.8135175
"S210120"	"Response_Selection"	"RIGHT"	"RIGHT"	346.220700000003	1316.6666693	n/a	n/a	n/a	n/a	n/a	n/a	n/a	"2021-01-20 14:05:20.394541"	"2021-01-20 14:05:20.948112"	37	2.8135175
"S210120"	"Response_Selection"	"LEFT"	"LEFT"	387.657700000034	500.000001	n/a	n/a	n/a	n/a	n/a	n/a	n/a	"2021-01-20 14:05:21.457763"	"2021-01-20 14:05:22.053109"	38	2.8135175
"S210120"	"Response_Selection"	"RIGHT"	"RIGHT"	298.331699999949	933.3333352	n/a	n/a	n/a	n/a	n/a	n/a	n/a	"2021-01-20 14:05:22.995001"	"2021-01-20 14:05:23.502666"	39	2.8135175
"S210120"	"Response_Selection"	"LEFT"	"LEFT"	348.595999999986	633.3333346	n/a	n/a	n/a	n/a	n/a	n/a	n/a	"2021-01-20 14:05:24.144135"	"2021-01-20 14:05:24.700198"	40	2.8135175
"S210120"	"Response_Selection"	"RIGHT"	"RIGHT"	255.641999999966	1016.6666687	n/a	n/a	n/a	n/a	n/a	n/a	n/a	"2021-01-20 14:05:25.725354"	"2021-01-20 14:05:26.189172"	41	2.8135175
"S210120"	"Response_Selection"	"LEFT"	"LEFT"	295.35629999998	1166.666669	n/a	n/a	n/a	n/a	n/a	n/a	n/a	"2021-01-20 14:05:27.365589"	"2021-01-20 14:05:27.869414"	42	2.8135175
"S210120"	"Response_Selection"	"RIGHT"	"RIGHT"	341.52720000003	1033.3333354	n/a	n/a	n/a	n/a	n/a	n/a	n/a	"2021-01-20 14:05:28.911909"	"2021-01-20 14:05:29.460065"	43	2.8135175
"S210120"	"Response_Selection"	"LEFT"	"LEFT"	343.279999999993	833.333335	n/a	n/a	n/a	n/a	n/a	n/a	n/a	"2021-01-20 14:05:30.302201"	"2021-01-20 14:05:30.853012"	44	2.8135175
"S210120"	"Response_Selection"	"RIGHT"	"RIGHT"	355.624200000022	500.000001	n/a	n/a	n/a	n/a	n/a	n/a	n/a	"2021-01-20 14:05:31.361357"	"2021-01-20 14:05:31.924970"	45	2.8135175
"S210120"	"Response_Selection"	"RIGHT"	"RIGHT"	405.744300000038	1250.0000025	n/a	n/a	n/a	n/a	n/a	n/a	n/a	"2021-01-20 14:05:33.183903"	"2021-01-20 14:05:33.799039"	46	2.8135175
"S210120"	"Response_Selection"	"RIGHT"	"RIGHT"	355.80230000005	1400.0000028	n/a	n/a	n/a	n/a	n/a	n/a	n/a	"2021-01-20 14:05:35.209077"	"2021-01-20 14:05:35.773608"	47	2.8135175
"S210120"	"Response_Selection"	"RIGHT"	"RIGHT"	331.143900000029	1450.0000029	n/a	n/a	n/a	n/a	n/a	n/a	n/a	"2021-01-20 14:05:37.234124"	"2021-01-20 14:05:37.773669"	48	2.8135175
"S210120"	"Response_Selection"	"LEFT"	"LEFT"	403.904300000022	1066.6666688	n/a	n/a	n/a	n/a	n/a	n/a	n/a	"2021-01-20 14:05:38.849559"	"2021-01-20 14:05:39.461563"	49	2.8135175
"S210120"	"Response_Selection"	"LEFT"	"LEFT"	352.021100000002	1316.6666693	n/a	n/a	n/a	n/a	n/a	n/a	n/a	"2021-01-20 14:05:40.789346"	"2021-01-20 14:05:41.349405"	50	2.8135175
"S210120"	"Response_Selection"	"LEFT"	"LEFT"	380.944600000021	1450.0000029	n/a	n/a	n/a	n/a	n/a	n/a	n/a	"2021-01-20 14:05:42.808257"	"2021-01-20 14:05:43.398587"	51	2.8135175
"S210120"	"Response_Selection"	"RIGHT"	"RIGHT"	297.967400000005	1066.6666688	n/a	n/a	n/a	n/a	n/a	n/a	n/a	"2021-01-20 14:05:44.475383"	"2021-01-20 14:05:44.981600"	52	2.8135175
"S210120"	"Response_Selection"	"RIGHT"	"RIGHT"	492.3359	1083.3333355	n/a	n/a	n/a	n/a	n/a	n/a	n/a	"2021-01-20 14:05:46.073220"	"2021-01-20 14:05:46.774376"	53	2.8135175
"S210120"	"Response_Selection"	"LEFT"	"LEFT"	372.833200000002	800.0000016	n/a	n/a	n/a	n/a	n/a	n/a	n/a	"2021-01-20 14:05:47.583992"	"2021-01-20 14:05:48.165111"	54	2.8135175
"S210120"	"Response_Selection"	"LEFT"	"LEFT"	500.163600000008	1083.3333355	n/a	n/a	n/a	n/a	n/a	n/a	n/a	"2021-01-20 14:05:49.256496"	"2021-01-20 14:05:49.966577"	55	2.8135175
"S210120"	"Response_Selection"	"LEFT"	"LEFT"	397.258700000009	1400.0000028	n/a	n/a	n/a	n/a	n/a	n/a	n/a	"2021-01-20 14:05:51.375472"	"2021-01-20 14:05:51.980924"	56	2.8135175
"S210120"	"Response_Selection"	"RIGHT"	"RIGHT"	326.607599999988	1216.6666691	n/a	n/a	n/a	n/a	n/a	n/a	n/a	"2021-01-20 14:05:53.206262"	"2021-01-20 14:05:53.742464"	57	2.8135175
"S210120"	"Response_Selection"	"LEFT"	"LEFT"	320.713400000045	683.3333347	n/a	n/a	n/a	n/a	n/a	n/a	n/a	"2021-01-20 14:05:54.436085"	"2021-01-20 14:05:54.964435"	58	2.8135175
"S210120"	"Response_Selection"	"LEFT"	"LEFT"	445.732099999987	1250.0000025	n/a	n/a	n/a	n/a	n/a	n/a	n/a	"2021-01-20 14:05:56.222992"	"2021-01-20 14:05:56.876954"	59	2.8135175
"S210120"	"Response_Selection"	"RIGHT"	"RIGHT"	355.19469999997	1466.6666696	n/a	n/a	n/a	n/a	n/a	n/a	n/a	"2021-01-20 14:05:58.353607"	"2021-01-20 14:05:58.916840"	60	2.8135175
"S210120"	"Response_Selection"	"LEFT"	"LEFT"	309.318299999973	1033.3333354	n/a	n/a	n/a	n/a	n/a	n/a	n/a	"2021-01-20 14:05:59.960036"	"2021-01-20 14:06:00.477291"	61	2.8135175
"S210120"	"Response_Selection"	"LEFT"	"LEFT"	412.24150000005	1466.6666696	n/a	n/a	n/a	n/a	n/a	n/a	n/a	"2021-01-20 14:06:01.952395"	"2021-01-20 14:06:02.573008"	62	2.8135175
"S210120"	"Response_Selection"	"RIGHT"	"RIGHT"	284.939200000053	1266.6666692	n/a	n/a	n/a	n/a	n/a	n/a	n/a	"2021-01-20 14:06:03.847649"	"2021-01-20 14:06:04.340224"	63	2.8135175
"S210120"	"Response_Selection"	"LEFT"	"LEFT"	293.757000000028	1266.6666692	n/a	n/a	n/a	n/a	n/a	n/a	n/a	"2021-01-20 14:06:05.615473"	"2021-01-20 14:06:06.117227"	64	2.8135175
"S210120"	"Response_Selection"	"LEFT"	"LEFT"	387.923199999989	883.3333351	n/a	n/a	n/a	n/a	n/a	n/a	n/a	"2021-01-20 14:06:07.008798"	"2021-01-20 14:06:07.604663"	65	2.8135175
"S210120"	"Response_Selection"	"RIGHT"	"RIGHT"	340.086400000018	650.0000013	n/a	n/a	n/a	n/a	n/a	n/a	n/a	"2021-01-20 14:06:08.264905"	"2021-01-20 14:06:08.813304"	66	2.8135175
"S210120"	"Response_Selection"	"LEFT"	"LEFT"	285.133299999984	750.0000015	n/a	n/a	n/a	n/a	n/a	n/a	n/a	"2021-01-20 14:06:09.575778"	"2021-01-20 14:06:10.069126"	67	2.8135175
"S210120"	"Response_Selection"	"RIGHT"	"RIGHT"	315.282000000025	866.6666684	n/a	n/a	n/a	n/a	n/a	n/a	n/a	"2021-01-20 14:06:10.945705"	"2021-01-20 14:06:11.468853"	68	2.8135175
"S210120"	"Response_Selection"	"LEFT"	"LEFT"	385.2081	533.3333344	n/a	n/a	n/a	n/a	n/a	n/a	n/a	"2021-01-20 14:06:12.011624"	"2021-01-20 14:06:12.604092"	69	2.8135175
"S210120"	"Response_Selection"	"RIGHT"	"RIGHT"	276.43599999999	1500.000003	n/a	n/a	n/a	n/a	n/a	n/a	n/a	"2021-01-20 14:06:14.112826"	"2021-01-20 14:06:14.597772"	70	2.8135175
"S210120"	"Response_Selection"	"LEFT"	"LEFT"	296.645100000035	1133.3333356	n/a	n/a	n/a	n/a	n/a	n/a	n/a	"2021-01-20 14:06:15.740407"	"2021-01-20 14:06:16.246609"	71	2.8135175
"S210120"	"Response_Selection"	"LEFT"	"LEFT"	455.906300000038	916.6666685	n/a	n/a	n/a	n/a	n/a	n/a	n/a	"2021-01-20 14:06:17.172945"	"2021-01-20 14:06:17.836304"	72	2.8135175
"S210120"	"Response_Selection"	"LEFT"	"LEFT"	473.557199999959	550.0000011	n/a	n/a	n/a	n/a	n/a	n/a	n/a	"2021-01-20 14:06:18.395809"	"2021-01-20 14:06:19.077715"	73	2.8135175
"S210120"	"Response_Selection"	"LEFT"	"LEFT"	366.39550000001	983.3333353	n/a	n/a	n/a	n/a	n/a	n/a	n/a	"2021-01-20 14:06:20.070611"	"2021-01-20 14:06:20.644325"	74	2.8135175
"S210120"	"Response_Selection"	"RIGHT"	"RIGHT"	360.266500000023	1200.0000024	n/a	n/a	n/a	n/a	n/a	n/a	n/a	"2021-01-20 14:06:21.852591"	"2021-01-20 14:06:22.420118"	75	2.8135175
"S210120"	"Response_Selection"	"RIGHT"	"RIGHT"	401.356399999997	1166.666669	n/a	n/a	n/a	n/a	n/a	n/a	n/a	"2021-01-20 14:06:23.596004"	"2021-01-20 14:06:24.205046"	76	2.8135175
"S210120"	"Response_Selection"	"RIGHT"	"RIGHT"	426.382900000021	1116.6666689	n/a	n/a	n/a	n/a	n/a	n/a	n/a	"2021-01-20 14:06:25.330360"	"2021-01-20 14:06:25.964558"	77	2.8135175
"S210120"	"Response_Selection"	"RIGHT"	"RIGHT"	426.655599999947	733.3333348	n/a	n/a	n/a	n/a	n/a	n/a	n/a	"2021-01-20 14:06:26.706616"	"2021-01-20 14:06:27.340918"	78	2.8135175
"S210120"	"Response_Selection"	"LEFT"	"LEFT"	287.628900000016	1350.0000027	n/a	n/a	n/a	n/a	n/a	n/a	n/a	"2021-01-20 14:06:28.700897"	"2021-01-20 14:06:29.197136"	79	2.8135175
"S210120"	"Response_Selection"	"LEFT"	"LEFT"	486.384700000031	600.0000012	n/a	n/a	n/a	n/a	n/a	n/a	n/a	"2021-01-20 14:06:29.806502"	"2021-01-20 14:06:30.501005"	80	2.8135175
