Participant	Task	Stimulus_Side	Response	RT	ITI	Previous_Response	Previous_RT	Trial_Onset	Trial_End	Trial_Order	Duration	Conflict	Cue_Response	Cue_Response_RT	Stop_Signal	Stop_Signal_RT
S200217	Conflict_Resolution	RIGHT	RIGHT	640.534800000069	883.3333351	n/a	n/a	2020-02-17 10:33:59.109521	2020-02-17 10:33:59.956915	1	5.70636315	True	n/a	n/a	n/a	n/a
S200217	Conflict_Resolution	RIGHT	RIGHT	342.658599999936	783.3333349	n/a	n/a	2020-02-17 10:34:00.759491	2020-02-17 10:34:01.309914	2	5.70636315	False	n/a	n/a	n/a	n/a
S200217	Conflict_Resolution	RIGHT	LEFT	360.763399999996	683.3333347	n/a	n/a	2020-02-17 10:34:02.013241	2020-02-17 10:34:02.582668	3	5.70636315	True	n/a	n/a	n/a	n/a
S200217	Conflict_Resolution	RIGHT	RIGHT	553.952200000026	1483.3333363	n/a	n/a	2020-02-17 10:34:04.083969	2020-02-17 10:34:04.845397	4	5.70636315	True	n/a	n/a	n/a	n/a
S200217	Conflict_Resolution	RIGHT	RIGHT	398.980800000004	700.0000014	n/a	n/a	2020-02-17 10:34:05.566569	2020-02-17 10:34:06.173250	5	5.70636315	True	n/a	n/a	n/a	n/a
S200217	Conflict_Resolution	RIGHT	RIGHT	329.499100000021	1266.6666692	n/a	n/a	2020-02-17 10:34:07.459964	2020-02-17 10:34:07.998679	6	5.70636315	False	n/a	n/a	n/a	n/a
S200217	Conflict_Resolution	LEFT	LEFT	404.18139999997	783.3333349	n/a	n/a	2020-02-17 10:34:08.801726	2020-02-17 10:34:09.413731	7	5.70636315	True	n/a	n/a	n/a	n/a
S200217	Conflict_Resolution	LEFT	LEFT	564.194499999985	1400.0000028	n/a	n/a	2020-02-17 10:34:10.832997	2020-02-17 10:34:11.606462	8	5.70636315	True	n/a	n/a	n/a	n/a
S200217	Conflict_Resolution	LEFT	LEFT	413.281600000005	1200.0000024	n/a	n/a	2020-02-17 10:34:12.824431	2020-02-17 10:34:13.445510	9	5.70636315	False	n/a	n/a	n/a	n/a
S200217	Conflict_Resolution	RIGHT	RIGHT	358.987899999988	950.0000019	n/a	n/a	2020-02-17 10:34:14.414894	2020-02-17 10:34:14.981026	10	5.70636315	True	n/a	n/a	n/a	n/a
S200217	Conflict_Resolution	RIGHT	RIGHT	369.304400000033	683.3333347	n/a	n/a	2020-02-17 10:34:15.684142	2020-02-17 10:34:16.261507	11	5.70636315	False	n/a	n/a	n/a	n/a
S200217	Conflict_Resolution	RIGHT	LEFT	352.867199999991	900.0000018	n/a	n/a	2020-02-17 10:34:17.180955	2020-02-17 10:34:17.742413	12	5.70636315	True	n/a	n/a	n/a	n/a
S200217	Conflict_Resolution	RIGHT	RIGHT	513.823300000013	800.0000016	n/a	n/a	2020-02-17 10:34:18.563851	2020-02-17 10:34:19.284911	13	5.70636315	True	n/a	n/a	n/a	n/a
S200217	Conflict_Resolution	RIGHT	RIGHT	412.314600000059	1233.3333358	n/a	n/a	2020-02-17 10:34:20.537600	2020-02-17 10:34:21.156809	14	5.70636315	True	n/a	n/a	n/a	n/a
S200217	Conflict_Resolution	RIGHT	RIGHT	284.93560000004	1033.3333354	n/a	n/a	2020-02-17 10:34:22.208679	2020-02-17 10:34:22.701943	15	5.70636315	False	n/a	n/a	n/a	n/a
S200217	Conflict_Resolution	LEFT	LEFT	341.547300000002	1166.666669	n/a	n/a	2020-02-17 10:34:23.888452	2020-02-17 10:34:24.437006	16	5.70636315	False	n/a	n/a	n/a	n/a
S200217	Conflict_Resolution	LEFT	LEFT	533.826800000043	1166.666669	n/a	n/a	2020-02-17 10:34:25.624221	2020-02-17 10:34:26.367407	17	5.70636315	True	n/a	n/a	n/a	n/a
S200217	Conflict_Resolution	LEFT	LEFT	372.49010000005	966.6666686	n/a	n/a	2020-02-17 10:34:27.352889	2020-02-17 10:34:27.934300	18	5.70636315	False	n/a	n/a	n/a	n/a
S200217	Conflict_Resolution	LEFT	LEFT	460.1136	1366.6666694	n/a	n/a	2020-02-17 10:34:29.321095	2020-02-17 10:34:29.989153	19	5.70636315	True	n/a	n/a	n/a	n/a
S200217	Conflict_Resolution	RIGHT	RIGHT	464.669500000014	1316.6666693	n/a	n/a	2020-02-17 10:34:31.324677	2020-02-17 10:34:31.998600	20	5.70636315	True	n/a	n/a	n/a	n/a
S200217	Conflict_Resolution	RIGHT	RIGHT	410.309400000074	833.333335	n/a	n/a	2020-02-17 10:34:32.851745	2020-02-17 10:34:33.469250	21	5.70636315	True	n/a	n/a	n/a	n/a
S200217	Conflict_Resolution	LEFT	LEFT	641.067099999987	533.3333344	n/a	n/a	2020-02-17 10:34:34.020809	2020-02-17 10:34:34.869766	22	5.70636315	True	n/a	n/a	n/a	n/a
S200217	Conflict_Resolution	LEFT	LEFT	515.939000000003	616.6666679	n/a	n/a	2020-02-17 10:34:35.505259	2020-02-17 10:34:36.229979	23	5.70636315	True	n/a	n/a	n/a	n/a
S200217	Conflict_Resolution	LEFT	LEFT	452.287800000022	1200.0000024	n/a	n/a	2020-02-17 10:34:37.449207	2020-02-17 10:34:38.109431	24	5.70636315	True	n/a	n/a	n/a	n/a
S200217	Conflict_Resolution	LEFT	LEFT	461.791799999901	1150.0000023	n/a	n/a	2020-02-17 10:34:39.279908	2020-02-17 10:34:39.949339	25	5.70636315	True	n/a	n/a	n/a	n/a
S200217	Conflict_Resolution	RIGHT	RIGHT	464.180800000008	533.3333344	n/a	n/a	2020-02-17 10:34:40.501852	2020-02-17 10:34:41.172979	26	5.70636315	False	n/a	n/a	n/a	n/a
S200217	Conflict_Resolution	LEFT	LEFT	657.387299999982	1466.6666696	n/a	n/a	2020-02-17 10:34:42.660401	2020-02-17 10:34:43.526353	27	5.70636315	True	n/a	n/a	n/a	n/a
S200217	Conflict_Resolution	LEFT	LEFT	435.590600000069	850.0000017	n/a	n/a	2020-02-17 10:34:44.394092	2020-02-17 10:34:45.037319	28	5.70636315	True	n/a	n/a	n/a	n/a
S200217	Conflict_Resolution	LEFT	LEFT	392.743499999938	733.3333348	n/a	n/a	2020-02-17 10:34:45.789296	2020-02-17 10:34:46.390015	29	5.70636315	True	n/a	n/a	n/a	n/a
S200217	Conflict_Resolution	RIGHT	RIGHT	478.288199999952	1383.3333361	n/a	n/a	2020-02-17 10:34:47.791514	2020-02-17 10:34:48.478660	30	5.70636315	True	n/a	n/a	n/a	n/a
S200217	Conflict_Resolution	LEFT	LEFT	383.55219999994	900.0000018	n/a	n/a	2020-02-17 10:34:49.398180	2020-02-17 10:34:49.989730	31	5.70636315	False	n/a	n/a	n/a	n/a
S200217	Conflict_Resolution	LEFT	LEFT	319.29249999996	533.3333344	n/a	n/a	2020-02-17 10:34:50.542221	2020-02-17 10:34:51.070403	32	5.70636315	False	n/a	n/a	n/a	n/a
S200217	Conflict_Resolution	LEFT	LEFT	318.285800000012	1350.0000027	n/a	n/a	2020-02-17 10:34:52.439453	2020-02-17 10:34:52.965165	33	5.70636315	False	n/a	n/a	n/a	n/a
S200217	Conflict_Resolution	LEFT	LEFT	435.069399999975	1450.0000029	n/a	n/a	2020-02-17 10:34:54.434317	2020-02-17 10:34:55.077805	34	5.70636315	True	n/a	n/a	n/a	n/a
S200217	Conflict_Resolution	RIGHT	RIGHT	369.513099999949	1483.3333363	n/a	n/a	2020-02-17 10:34:56.580295	2020-02-17 10:34:57.157395	35	5.70636315	False	n/a	n/a	n/a	n/a
S200217	Conflict_Resolution	RIGHT	RIGHT	451.652699999954	1216.6666691	n/a	n/a	2020-02-17 10:34:58.394098	2020-02-17 10:34:59.053316	36	5.70636315	True	n/a	n/a	n/a	n/a
S200217	Conflict_Resolution	LEFT	LEFT	377.166899999906	1266.6666692	n/a	n/a	2020-02-17 10:35:00.340156	2020-02-17 10:35:00.925692	37	5.70636315	False	n/a	n/a	n/a	n/a
S200217	Conflict_Resolution	RIGHT	RIGHT	307.430999999951	1466.6666696	n/a	n/a	2020-02-17 10:35:02.409950	2020-02-17 10:35:02.925427	38	5.70636315	False	n/a	n/a	n/a	n/a
S200217	Conflict_Resolution	LEFT	LEFT	354.759300000069	1050.0000021	n/a	n/a	2020-02-17 10:35:03.994484	2020-02-17 10:35:04.558159	39	5.70636315	False	n/a	n/a	n/a	n/a
S200217	Conflict_Resolution	LEFT	LEFT	339.254900000014	1016.6666687	n/a	n/a	2020-02-17 10:35:05.594659	2020-02-17 10:35:06.141094	40	5.70636315	False	n/a	n/a	n/a	n/a
S200217	Conflict_Resolution	RIGHT	RIGHT	391.432800000075	750.0000015	n/a	n/a	2020-02-17 10:35:06.910654	2020-02-17 10:35:07.509280	41	5.70636315	True	n/a	n/a	n/a	n/a
S200217	Conflict_Resolution	RIGHT	RIGHT	294.033199999944	983.3333353	n/a	n/a	2020-02-17 10:35:08.511948	2020-02-17 10:35:09.013135	42	5.70636315	False	n/a	n/a	n/a	n/a
S200217	Conflict_Resolution	LEFT	LEFT	365.586099999973	566.6666678	n/a	n/a	2020-02-17 10:35:09.600369	2020-02-17 10:35:10.173474	43	5.70636315	False	n/a	n/a	n/a	n/a
S200217	Conflict_Resolution	RIGHT	RIGHT	340.606499999922	600.0000012	n/a	n/a	2020-02-17 10:35:10.793061	2020-02-17 10:35:11.341526	44	5.70636315	False	n/a	n/a	n/a	n/a
S200217	Conflict_Resolution	RIGHT	RIGHT	487.409699999944	733.3333348	n/a	n/a	2020-02-17 10:35:12.093825	2020-02-17 10:35:12.789589	45	5.70636315	True	n/a	n/a	n/a	n/a
S200217	Conflict_Resolution	LEFT	LEFT	463.476499999956	716.6666681	n/a	n/a	2020-02-17 10:35:13.525729	2020-02-17 10:35:14.197547	46	5.70636315	True	n/a	n/a	n/a	n/a
S200217	Conflict_Resolution	RIGHT	RIGHT	435.485399999948	633.3333346	n/a	n/a	2020-02-17 10:35:14.849785	2020-02-17 10:35:15.494067	47	5.70636315	True	n/a	n/a	n/a	n/a
S200217	Conflict_Resolution	RIGHT	RIGHT	314.032399999974	900.0000018	n/a	n/a	2020-02-17 10:35:16.411885	2020-02-17 10:35:16.932850	48	5.70636315	False	n/a	n/a	n/a	n/a
S200217	Conflict_Resolution	LEFT	LEFT	372.817000000055	1416.6666695	n/a	n/a	2020-02-17 10:35:18.369217	2020-02-17 10:35:18.948976	49	5.70636315	False	n/a	n/a	n/a	n/a
S200217	Conflict_Resolution	LEFT	LEFT	530.890800000066	666.666668	n/a	n/a	2020-02-17 10:35:19.635188	2020-02-17 10:35:20.373571	50	5.70636315	True	n/a	n/a	n/a	n/a
S200217	Conflict_Resolution	RIGHT	RIGHT	360.226300000022	1383.3333361	n/a	n/a	2020-02-17 10:35:21.774694	2020-02-17 10:35:22.342275	51	5.70636315	False	n/a	n/a	n/a	n/a
S200217	Conflict_Resolution	RIGHT	RIGHT	404.508200000009	1183.3333357	n/a	n/a	2020-02-17 10:35:23.544846	2020-02-17 10:35:24.158464	52	5.70636315	False	n/a	n/a	n/a	n/a
S200217	Conflict_Resolution	RIGHT	RIGHT	442.39970000001	650.0000013	n/a	n/a	2020-02-17 10:35:24.827653	2020-02-17 10:35:25.477438	53	5.70636315	False	n/a	n/a	n/a	n/a
S200217	Conflict_Resolution	RIGHT	RIGHT	429.177900000013	1183.3333357	n/a	n/a	2020-02-17 10:35:26.680680	2020-02-17 10:35:27.316979	54	5.70636315	True	n/a	n/a	n/a	n/a
S200217	Conflict_Resolution	LEFT	LEFT	504.27250000007	566.6666678	n/a	n/a	2020-02-17 10:35:27.901416	2020-02-17 10:35:28.614694	55	5.70636315	True	n/a	n/a	n/a	n/a
S200217	Conflict_Resolution	LEFT	LEFT	332.739699999934	783.3333349	n/a	n/a	2020-02-17 10:35:29.416545	2020-02-17 10:35:29.956868	56	5.70636315	False	n/a	n/a	n/a	n/a
S200217	Conflict_Resolution	LEFT	LEFT	310.411899999963	583.3333345	n/a	n/a	2020-02-17 10:35:30.558908	2020-02-17 10:35:31.078547	57	5.70636315	False	n/a	n/a	n/a	n/a
S200217	Conflict_Resolution	LEFT	LEFT	313.54639999995	1100.0000022	n/a	n/a	2020-02-17 10:35:32.196295	2020-02-17 10:35:32.716974	58	5.70636315	False	n/a	n/a	n/a	n/a
S200217	Conflict_Resolution	RIGHT	RIGHT	334.893100000045	1366.6666694	n/a	n/a	2020-02-17 10:35:34.102626	2020-02-17 10:35:34.646727	59	5.70636315	False	n/a	n/a	n/a	n/a
S200217	Conflict_Resolution	RIGHT	LEFT	387.781799999971	600.0000012	n/a	n/a	2020-02-17 10:35:35.266106	2020-02-17 10:35:35.861362	60	5.70636315	True	n/a	n/a	n/a	n/a
S200217	Conflict_Resolution	LEFT	LEFT	370.438599999943	866.6666684	n/a	n/a	2020-02-17 10:35:36.746967	2020-02-17 10:35:37.325453	61	5.70636315	False	n/a	n/a	n/a	n/a
S200217	Conflict_Resolution	LEFT	LEFT	359.047099999998	1150.0000023	n/a	n/a	2020-02-17 10:35:38.494109	2020-02-17 10:35:39.061623	62	5.70636315	False	n/a	n/a	n/a	n/a
S200217	Conflict_Resolution	LEFT	LEFT	360.147500000039	516.6666677	n/a	n/a	2020-02-17 10:35:39.597848	2020-02-17 10:35:40.165473	63	5.70636315	False	n/a	n/a	n/a	n/a
S200217	Conflict_Resolution	RIGHT	RIGHT	386.55330000006	633.3333346	n/a	n/a	2020-02-17 10:35:40.818753	2020-02-17 10:35:41.414510	64	5.70636315	False	n/a	n/a	n/a	n/a
S200217	Conflict_Resolution	RIGHT	RIGHT	456.844199999978	1266.6666692	n/a	n/a	2020-02-17 10:35:42.700296	2020-02-17 10:35:43.366035	65	5.70636315	True	n/a	n/a	n/a	n/a
S200217	Conflict_Resolution	RIGHT	RIGHT	327.390400000013	1333.333336	n/a	n/a	2020-02-17 10:35:44.718300	2020-02-17 10:35:45.253782	66	5.70636315	False	n/a	n/a	n/a	n/a
S200217	Conflict_Resolution	LEFT	LEFT	338.539200000014	1450.0000029	n/a	n/a	2020-02-17 10:35:46.723534	2020-02-17 10:35:47.269503	67	5.70636315	False	n/a	n/a	n/a	n/a
S200217	Conflict_Resolution	RIGHT	RIGHT	396.758100000056	583.3333345	n/a	n/a	2020-02-17 10:35:47.872522	2020-02-17 10:35:48.477324	68	5.70636315	False	n/a	n/a	n/a	n/a
S200217	Conflict_Resolution	LEFT	LEFT	407.621199999994	966.6666686	n/a	n/a	2020-02-17 10:35:49.462230	2020-02-17 10:35:50.077914	69	5.70636315	True	n/a	n/a	n/a	n/a
S200217	Conflict_Resolution	LEFT	LEFT	303.481899999952	950.0000019	n/a	n/a	2020-02-17 10:35:51.045835	2020-02-17 10:35:51.557830	70	5.70636315	False	n/a	n/a	n/a	n/a
S200217	Conflict_Resolution	RIGHT	RIGHT	408.524299999954	1333.333336	n/a	n/a	2020-02-17 10:35:52.908557	2020-02-17 10:35:53.525184	71	5.70636315	True	n/a	n/a	n/a	n/a
S200217	Conflict_Resolution	LEFT	LEFT	381.459800000016	633.3333346	n/a	n/a	2020-02-17 10:35:54.176483	2020-02-17 10:35:54.766118	72	5.70636315	False	n/a	n/a	n/a	n/a
S200217	Conflict_Resolution	RIGHT	RIGHT	303.71660000003	1283.3333359	n/a	n/a	2020-02-17 10:35:56.069706	2020-02-17 10:35:56.581438	73	5.70636315	False	n/a	n/a	n/a	n/a
S200217	Conflict_Resolution	LEFT	LEFT	372.916499999974	1366.6666694	n/a	n/a	2020-02-17 10:35:57.969052	2020-02-17 10:35:58.549332	74	5.70636315	False	n/a	n/a	n/a	n/a
S200217	Conflict_Resolution	LEFT	LEFT	365.635400000087	766.6666682	n/a	n/a	2020-02-17 10:35:59.335886	2020-02-17 10:35:59.909557	75	5.70636315	False	n/a	n/a	n/a	n/a
S200217	Conflict_Resolution	RIGHT	RIGHT	554.766400000062	650.0000013	n/a	n/a	2020-02-17 10:36:00.578995	2020-02-17 10:36:01.341625	76	5.70636315	True	n/a	n/a	n/a	n/a
S200217	Conflict_Resolution	RIGHT	RIGHT	399.074499999983	750.0000015	n/a	n/a	2020-02-17 10:36:02.111303	2020-02-17 10:36:02.718766	77	5.70636315	False	n/a	n/a	n/a	n/a
S200217	Conflict_Resolution	RIGHT	RIGHT	381.843300000014	933.3333352	n/a	n/a	2020-02-17 10:36:03.671440	2020-02-17 10:36:04.261876	78	5.70636315	False	n/a	n/a	n/a	n/a
S200217	Conflict_Resolution	LEFT	LEFT	416.759400000046	916.6666685	n/a	n/a	2020-02-17 10:36:05.196511	2020-02-17 10:36:05.820889	79	5.70636315	True	n/a	n/a	n/a	n/a
S200217	Conflict_Resolution	RIGHT	RIGHT	324.265799999921	1433.3333362	n/a	n/a	2020-02-17 10:36:07.273762	2020-02-17 10:36:07.805957	80	5.70636315	False	n/a	n/a	n/a	n/a
S200217	Conflict_Resolution	RIGHT	RIGHT	452.882799999998	1150.0000023	n/a	n/a	2020-02-17 10:36:08.976429	2020-02-17 10:36:09.638639	81	5.70636315	True	n/a	n/a	n/a	n/a
S200217	Conflict_Resolution	RIGHT	RIGHT	383.377699999983	1100.0000022	n/a	n/a	2020-02-17 10:36:10.758500	2020-02-17 10:36:11.350029	82	5.70636315	False	n/a	n/a	n/a	n/a
S200217	Conflict_Resolution	RIGHT	RIGHT	507.508500000085	533.3333344	n/a	n/a	2020-02-17 10:36:11.906080	2020-02-17 10:36:12.620842	83	5.70636315	True	n/a	n/a	n/a	n/a
S200217	Conflict_Resolution	RIGHT	RIGHT	495.032199999969	1000.000002	n/a	n/a	2020-02-17 10:36:13.638531	2020-02-17 10:36:14.342498	84	5.70636315	True	n/a	n/a	n/a	n/a
S200217	Conflict_Resolution	LEFT	LEFT	346.963599999981	1216.6666691	n/a	n/a	2020-02-17 10:36:15.578766	2020-02-17 10:36:16.134706	85	5.70636315	False	n/a	n/a	n/a	n/a
S200217	Conflict_Resolution	LEFT	LEFT	396.144100000015	616.6666679	n/a	n/a	2020-02-17 10:36:16.769231	2020-02-17 10:36:17.373566	86	5.70636315	False	n/a	n/a	n/a	n/a
S200217	Conflict_Resolution	LEFT	RIGHT	393.696099999943	866.6666684	n/a	n/a	2020-02-17 10:36:18.260196	2020-02-17 10:36:18.861001	87	5.70636315	True	n/a	n/a	n/a	n/a
S200217	Conflict_Resolution	RIGHT	RIGHT	332.576199999949	800.0000016	n/a	n/a	2020-02-17 10:36:19.681337	2020-02-17 10:36:20.221605	88	5.70636315	False	n/a	n/a	n/a	n/a
S200217	Conflict_Resolution	LEFT	LEFT	416.269499999999	516.6666677	n/a	n/a	2020-02-17 10:36:20.757204	2020-02-17 10:36:21.380979	89	5.70636315	True	n/a	n/a	n/a	n/a
S200217	Conflict_Resolution	LEFT	LEFT	522.162200000025	1050.0000021	n/a	n/a	2020-02-17 10:36:22.450980	2020-02-17 10:36:23.182087	90	5.70636315	True	n/a	n/a	n/a	n/a
S200217	Conflict_Resolution	RIGHT	RIGHT	410.907099999918	1033.3333354	n/a	n/a	2020-02-17 10:36:24.234430	2020-02-17 10:36:24.853269	91	5.70636315	True	n/a	n/a	n/a	n/a
S200217	Conflict_Resolution	LEFT	LEFT	478.666199999907	1100.0000022	n/a	n/a	2020-02-17 10:36:25.974736	2020-02-17 10:36:26.660964	92	5.70636315	True	n/a	n/a	n/a	n/a
S200217	Conflict_Resolution	RIGHT	RIGHT	511.376100000007	1133.3333356	n/a	n/a	2020-02-17 10:36:27.814261	2020-02-17 10:36:28.533695	93	5.70636315	True	n/a	n/a	n/a	n/a
S200217	Conflict_Resolution	RIGHT	RIGHT	334.305500000028	733.3333348	n/a	n/a	2020-02-17 10:36:29.287497	2020-02-17 10:36:29.829241	94	5.70636315	False	n/a	n/a	n/a	n/a
S200217	Conflict_Resolution	LEFT	LEFT	416.694699999994	1116.6666689	n/a	n/a	2020-02-17 10:36:30.965176	2020-02-17 10:36:31.590308	95	5.70636315	True	n/a	n/a	n/a	n/a
S200217	Conflict_Resolution	RIGHT	RIGHT	357.21239999998	550.0000011	n/a	n/a	2020-02-17 10:36:32.160810	2020-02-17 10:36:32.726465	96	5.70636315	False	n/a	n/a	n/a	n/a
S200217	Conflict_Resolution	LEFT	LEFT	339.605199999937	1000.000002	n/a	n/a	2020-02-17 10:36:33.746157	2020-02-17 10:36:34.292838	97	5.70636315	False	n/a	n/a	n/a	n/a
S200217	Conflict_Resolution	LEFT	LEFT	387.632699999926	1250.0000025	n/a	n/a	2020-02-17 10:36:35.562391	2020-02-17 10:36:36.157433	98	5.70636315	True	n/a	n/a	n/a	n/a
S200217	Conflict_Resolution	LEFT	LEFT	416.897000000063	900.0000018	n/a	n/a	2020-02-17 10:36:37.076296	2020-02-17 10:36:37.701403	99	5.70636315	True	n/a	n/a	n/a	n/a
S200217	Conflict_Resolution	LEFT	LEFT	407.301999999959	733.3333348	n/a	n/a	2020-02-17 10:36:38.453924	2020-02-17 10:36:39.068816	100	5.70636315	False	n/a	n/a	n/a	n/a
S200217	Conflict_Resolution	RIGHT	RIGHT	501.422600000069	983.3333353	n/a	n/a	2020-02-17 10:36:40.071800	2020-02-17 10:36:40.781623	101	5.70636315	True	n/a	n/a	n/a	n/a
S200217	Conflict_Resolution	LEFT	LEFT	464.275799999996	1500.000003	n/a	n/a	2020-02-17 10:36:42.300873	2020-02-17 10:36:42.974041	102	5.70636315	True	n/a	n/a	n/a	n/a
S200217	Conflict_Resolution	LEFT	LEFT	546.313699999928	1300.0000026	n/a	n/a	2020-02-17 10:36:44.292323	2020-02-17 10:36:45.046706	103	5.70636315	True	n/a	n/a	n/a	n/a
S200217	Conflict_Resolution	RIGHT	RIGHT	520.309099999963	1083.3333355	n/a	n/a	2020-02-17 10:36:46.149589	2020-02-17 10:36:46.877254	104	5.70636315	True	n/a	n/a	n/a	n/a
S200217	Conflict_Resolution	LEFT	LEFT	390.866899999992	766.6666682	n/a	n/a	2020-02-17 10:36:47.662304	2020-02-17 10:36:48.262009	105	5.70636315	True	n/a	n/a	n/a	n/a
S200217	Conflict_Resolution	LEFT	LEFT	336.30370000003	1500.000003	n/a	n/a	2020-02-17 10:36:49.781299	2020-02-17 10:36:50.325341	106	5.70636315	False	n/a	n/a	n/a	n/a
S200217	Conflict_Resolution	RIGHT	LEFT	379.769900000042	1433.3333362	n/a	n/a	2020-02-17 10:36:51.777815	2020-02-17 10:36:52.366539	107	5.70636315	True	n/a	n/a	n/a	n/a
S200217	Conflict_Resolution	LEFT	LEFT	529.484500000081	683.3333347	n/a	n/a	2020-02-17 10:36:53.067549	2020-02-17 10:36:53.805186	108	5.70636315	True	n/a	n/a	n/a	n/a
S200217	Conflict_Resolution	LEFT	LEFT	382.13630000007	583.3333345	n/a	n/a	2020-02-17 10:36:54.407167	2020-02-17 10:36:54.998789	109	5.70636315	True	n/a	n/a	n/a	n/a
S200217	Conflict_Resolution	LEFT	LEFT	322.635600000012	666.666668	n/a	n/a	2020-02-17 10:36:55.683132	2020-02-17 10:36:56.214337	110	5.70636315	False	n/a	n/a	n/a	n/a
S200217	Conflict_Resolution	RIGHT	RIGHT	433.640100000048	850.0000017	n/a	n/a	2020-02-17 10:36:57.084156	2020-02-17 10:36:57.725446	111	5.70636315	True	n/a	n/a	n/a	n/a
S200217	Conflict_Resolution	LEFT	LEFT	362.858599999981	1466.6666696	n/a	n/a	2020-02-17 10:36:59.210473	2020-02-17 10:36:59.781573	112	5.70636315	False	n/a	n/a	n/a	n/a
S200217	Conflict_Resolution	LEFT	LEFT	402.986999999939	850.0000017	n/a	n/a	2020-02-17 10:37:00.651019	2020-02-17 10:37:01.262516	113	5.70636315	False	n/a	n/a	n/a	n/a
S200217	Conflict_Resolution	RIGHT	RIGHT	410.261199999923	1050.0000021	n/a	n/a	2020-02-17 10:37:02.331623	2020-02-17 10:37:02.949587	114	5.70636315	False	n/a	n/a	n/a	n/a
S200217	Conflict_Resolution	RIGHT	RIGHT	311.223199999972	1316.6666693	n/a	n/a	2020-02-17 10:37:04.286366	2020-02-17 10:37:04.806350	115	5.70636315	False	n/a	n/a	n/a	n/a
S200217	Conflict_Resolution	RIGHT	RIGHT	339.504099999999	1416.6666695	n/a	n/a	2020-02-17 10:37:06.242043	2020-02-17 10:37:06.789444	116	5.70636315	False	n/a	n/a	n/a	n/a
S200217	Conflict_Resolution	RIGHT	RIGHT	379.408499999954	833.333335	n/a	n/a	2020-02-17 10:37:07.641825	2020-02-17 10:37:08.229261	117	5.70636315	False	n/a	n/a	n/a	n/a
S200217	Conflict_Resolution	RIGHT	RIGHT	496.579699999984	500.000001	n/a	n/a	2020-02-17 10:37:08.749014	2020-02-17 10:37:09.453761	118	5.70636315	True	n/a	n/a	n/a	n/a
S200217	Conflict_Resolution	LEFT	LEFT	352.027700000008	716.6666681	n/a	n/a	2020-02-17 10:37:10.189832	2020-02-17 10:37:10.749532	119	5.70636315	False	n/a	n/a	n/a	n/a
S200217	Conflict_Resolution	LEFT	LEFT	297.838699999943	1116.6666689	n/a	n/a	2020-02-17 10:37:11.883928	2020-02-17 10:37:12.389217	120	5.70636315	False	n/a	n/a	n/a	n/a
S200217	Conflict_Resolution	RIGHT	RIGHT	408.222000000023	1133.3333356	n/a	n/a	2020-02-17 10:37:13.541738	2020-02-17 10:37:14.156856	121	5.70636315	False	n/a	n/a	n/a	n/a
S200217	Conflict_Resolution	RIGHT	RIGHT	478.130399999941	1366.6666694	n/a	n/a	2020-02-17 10:37:15.542858	2020-02-17 10:37:16.229579	122	5.70636315	True	n/a	n/a	n/a	n/a
S200217	Conflict_Resolution	LEFT	LEFT	335.837699999956	1316.6666693	n/a	n/a	2020-02-17 10:37:17.565645	2020-02-17 10:37:18.109237	123	5.70636315	False	n/a	n/a	n/a	n/a
S200217	Conflict_Resolution	RIGHT	RIGHT	376.384200000075	950.0000019	n/a	n/a	2020-02-17 10:37:19.077647	2020-02-17 10:37:19.662261	124	5.70636315	False	n/a	n/a	n/a	n/a
S200217	Conflict_Resolution	RIGHT	RIGHT	464.168599999994	1283.3333359	n/a	n/a	2020-02-17 10:37:20.964993	2020-02-17 10:37:21.638795	125	5.70636315	True	n/a	n/a	n/a	n/a
S200217	Conflict_Resolution	LEFT	LEFT	376.394699999992	916.6666685	n/a	n/a	2020-02-17 10:37:22.573510	2020-02-17 10:37:23.157109	126	5.70636315	False	n/a	n/a	n/a	n/a
S200217	Conflict_Resolution	RIGHT	RIGHT	329.978499999925	1083.3333355	n/a	n/a	2020-02-17 10:37:24.259816	2020-02-17 10:37:24.797292	127	5.70636315	False	n/a	n/a	n/a	n/a
S200217	Conflict_Resolution	RIGHT	RIGHT	597.021499999983	783.3333349	n/a	n/a	2020-02-17 10:37:25.600133	2020-02-17 10:37:26.405172	128	5.70636315	True	n/a	n/a	n/a	n/a
S200217	Conflict_Resolution	LEFT	LEFT	607.286799999997	950.0000019	n/a	n/a	2020-02-17 10:37:27.374150	2020-02-17 10:37:28.189674	129	5.70636315	True	n/a	n/a	n/a	n/a
S200217	Conflict_Resolution	LEFT	LEFT	394.367099999954	1066.6666688	n/a	n/a	2020-02-17 10:37:29.274952	2020-02-17 10:37:29.876944	130	5.70636315	True	n/a	n/a	n/a	n/a
S200217	Conflict_Resolution	RIGHT	RIGHT	457.127499999956	500.000001	n/a	n/a	2020-02-17 10:37:30.396612	2020-02-17 10:37:31.061954	131	5.70636315	False	n/a	n/a	n/a	n/a
S200217	Conflict_Resolution	LEFT	LEFT	426.569900000004	1066.6666688	n/a	n/a	2020-02-17 10:37:32.146415	2020-02-17 10:37:32.782728	132	5.70636315	False	n/a	n/a	n/a	n/a
S200217	Conflict_Resolution	RIGHT	RIGHT	429.291399999897	550.0000011	n/a	n/a	2020-02-17 10:37:33.352449	2020-02-17 10:37:33.989105	133	5.70636315	True	n/a	n/a	n/a	n/a
S200217	Conflict_Resolution	RIGHT	RIGHT	344.63930000004	700.0000014	n/a	n/a	2020-02-17 10:37:34.708873	2020-02-17 10:37:35.260933	134	5.70636315	False	n/a	n/a	n/a	n/a
S200217	Conflict_Resolution	RIGHT	RIGHT	337.93229999992	883.3333351	n/a	n/a	2020-02-17 10:37:36.163543	2020-02-17 10:37:36.709422	135	5.70636315	False	n/a	n/a	n/a	n/a
S200217	Conflict_Resolution	LEFT	LEFT	450.963800000068	633.3333346	n/a	n/a	2020-02-17 10:37:37.362255	2020-02-17 10:37:38.021198	136	5.70636315	True	n/a	n/a	n/a	n/a
S200217	Conflict_Resolution	LEFT	LEFT	378.866099999982	683.3333347	n/a	n/a	2020-02-17 10:37:38.722497	2020-02-17 10:37:39.309168	137	5.70636315	False	n/a	n/a	n/a	n/a
S200217	Conflict_Resolution	RIGHT	RIGHT	341.16240000003	1000.000002	n/a	n/a	2020-02-17 10:37:40.328618	2020-02-17 10:37:40.877713	138	5.70636315	False	n/a	n/a	n/a	n/a
S200217	Conflict_Resolution	RIGHT	LEFT	344.76600000005	1100.0000022	n/a	n/a	2020-02-17 10:37:41.996864	2020-02-17 10:37:42.550549	139	5.70636315	True	n/a	n/a	n/a	n/a
S200217	Conflict_Resolution	LEFT	LEFT	500.323900000012	1216.6666691	n/a	n/a	2020-02-17 10:37:43.784899	2020-02-17 10:37:44.494703	140	5.70636315	True	n/a	n/a	n/a	n/a
S200217	Conflict_Resolution	RIGHT	RIGHT	393.373500000052	850.0000017	n/a	n/a	2020-02-17 10:37:45.364590	2020-02-17 10:37:45.966602	141	5.70636315	False	n/a	n/a	n/a	n/a
S200217	Conflict_Resolution	LEFT	LEFT	514.708000000041	1416.6666695	n/a	n/a	2020-02-17 10:37:47.403043	2020-02-17 10:37:48.125147	142	5.70636315	True	n/a	n/a	n/a	n/a
S200217	Conflict_Resolution	RIGHT	RIGHT	396.548700000039	1216.6666691	n/a	n/a	2020-02-17 10:37:49.361364	2020-02-17 10:37:49.966307	143	5.70636315	False	n/a	n/a	n/a	n/a
S200217	Conflict_Resolution	RIGHT	RIGHT	462.416200000007	933.3333352	n/a	n/a	2020-02-17 10:37:50.918973	2020-02-17 10:37:51.589151	144	5.70636315	True	n/a	n/a	n/a	n/a
S200217	Conflict_Resolution	RIGHT	RIGHT	468.690100000003	1416.6666695	n/a	n/a	2020-02-17 10:37:53.024624	2020-02-17 10:37:53.700855	145	5.70636315	True	n/a	n/a	n/a	n/a
S200217	Conflict_Resolution	LEFT	LEFT	380.150500000013	816.6666683	n/a	n/a	2020-02-17 10:37:54.536855	2020-02-17 10:37:55.124843	146	5.70636315	False	n/a	n/a	n/a	n/a
S200217	Conflict_Resolution	LEFT	LEFT	377.155199999947	1300.0000026	n/a	n/a	2020-02-17 10:37:56.444415	2020-02-17 10:37:57.029013	147	5.70636315	False	n/a	n/a	n/a	n/a
S200217	Conflict_Resolution	RIGHT	RIGHT	358.922399999983	1150.0000023	n/a	n/a	2020-02-17 10:37:58.199052	2020-02-17 10:37:58.766771	148	5.70636315	False	n/a	n/a	n/a	n/a
S200217	Conflict_Resolution	LEFT	LEFT	463.046100000042	1350.0000027	n/a	n/a	2020-02-17 10:38:00.133871	2020-02-17 10:38:00.806139	149	5.70636315	True	n/a	n/a	n/a	n/a
S200217	Conflict_Resolution	LEFT	LEFT	503.752299999974	1316.6666693	n/a	n/a	2020-02-17 10:38:02.141444	2020-02-17 10:38:02.852837	150	5.70636315	True	n/a	n/a	n/a	n/a
S200217	Conflict_Resolution	LEFT	LEFT	476.823099999933	1016.6666687	n/a	n/a	2020-02-17 10:38:03.889107	2020-02-17 10:38:04.573803	151	5.70636315	True	n/a	n/a	n/a	n/a
S200217	Conflict_Resolution	RIGHT	RIGHT	346.062999999958	1233.3333358	n/a	n/a	2020-02-17 10:38:05.827476	2020-02-17 10:38:06.381087	152	5.70636315	False	n/a	n/a	n/a	n/a
S200217	Conflict_Resolution	RIGHT	RIGHT	965.466200000037	583.3333345	n/a	n/a	2020-02-17 10:38:06.984454	2020-02-17 10:38:08.158528	153	5.70636315	True	n/a	n/a	n/a	n/a
S200217	Conflict_Resolution	LEFT	LEFT	556.51649999993	1000.000002	n/a	n/a	2020-02-17 10:38:09.176724	2020-02-17 10:38:09.942414	154	5.70636315	True	n/a	n/a	n/a	n/a
S200217	Conflict_Resolution	LEFT	LEFT	483.035099999938	816.6666683	n/a	n/a	2020-02-17 10:38:10.778184	2020-02-17 10:38:11.471665	155	5.70636315	True	n/a	n/a	n/a	n/a
S200217	Conflict_Resolution	RIGHT	RIGHT	450.454400000012	1050.0000021	n/a	n/a	2020-02-17 10:38:12.538464	2020-02-17 10:38:13.198545	156	5.70636315	True	n/a	n/a	n/a	n/a
S200217	Conflict_Resolution	LEFT	LEFT	447.786400000041	1266.6666692	n/a	n/a	2020-02-17 10:38:14.485235	2020-02-17 10:38:15.141603	157	5.70636315	True	n/a	n/a	n/a	n/a
S200217	Conflict_Resolution	LEFT	LEFT	348.453699999936	1400.0000028	n/a	n/a	2020-02-17 10:38:16.560941	2020-02-17 10:38:17.118595	158	5.70636315	False	n/a	n/a	n/a	n/a
S200217	Conflict_Resolution	LEFT	LEFT	361.609799999997	1250.0000025	n/a	n/a	2020-02-17 10:38:18.388608	2020-02-17 10:38:18.956993	159	5.70636315	False	n/a	n/a	n/a	n/a
S200217	Conflict_Resolution	RIGHT	LEFT	378.578900000093	1466.6666696	n/a	n/a	2020-02-17 10:38:20.442507	2020-02-17 10:38:21.029460	160	5.70636315	True	n/a	n/a	n/a	n/a
