index	Trial_Type	Participant_ID	Trial_Probability	Question_Position_Prediction_Correct	Question_Position_Prediction_Agent	Question_Position_Comparison_Self	Question_Position_Comparison_Irrelevant	Trial_Stake	Trial_Stake_Jitter	Trial_Type_Jitter	Trial_Result_Jitter	Balance_Update_Jitter	Question_Comparison_Condition	Question_Comparison_Type	Question_Comparison_Question	Question_Comparison_Label	Question_Comparison_Item	Question_Comparison_Proportion_Yes	Question_Factual_Condition	Question_Factual_Item	Question_Factual_Question	Question_Factual_Label	Question_Factual_Proportion_DontKnow	Question_Factual_Type	Answer_Prediction_Agent	Answer_Prediction_Agent_RT	Answer_Prediction_Correct	Answer_Prediction_Correct_RT	Answer_Irrelevant	Answer_Irrelevant_RT	Answer_Self	Answer_Self_RT	Trial_Balance	Trial_Balance_Effect	Trial_Condition	Trial_ProbableSide	Prediction_Choice	Prediction_Result	Prediction_RT	Trial_Order	Trial_Datetime
143	Computer	S200217	0.8333333333333334	2	1	2	1	0.6	1500.000003	1283.3333359	2350.0000047	1650.0000033	Major	Good_deeds	46	You have kept your promises	C2_23	0.7	Hard	I2_21	19	Beer is an alcoholic drink	0.0	Yes	LEFT	923.0837000000064	LEFT	945.012200000008	RIGHT	1711.9139000000132	RIGHT	1208.2476000000495	10.0	0.6	Probable_Lie	RIGHT	LEFT	3	722.2927824325466	0	2020-02-17 10:56:50.402643
117	Computer	S200217	0.6666666666666666	1	2	2	1	0.6	1500.000003	1150.0000023	2066.6666708	2500.000005	Major	Good_deeds	39	You have taken responsibility for your actions	C2_31	0.95	Hard	I2_49	14	Obama is the USA president now	0.0	No	LEFT	536.3434000000211	RIGHT	748.0680000000461	RIGHT	1493.558699999994	RIGHT	1608.0556999999658	10.0	0.6	Probable_Truth	LEFT	LEFT	2	634.0431296601454	1	2020-02-17 10:57:15.211937
116	Computer	S200217	0.6666666666666666	1	2	2	1	0.8	1216.6666691	1283.3333359	1500.000003	2066.6666708	Minor	Good_deeds	15	You have thrown your trash into the bin	C1_6	1.0	Easy	I1_14	44	The Franco-Prussian War occurred in the 19th century	0.0	Yes	LEFT	503.7932999999839	LEFT	617.016700000022	RIGHT	2143.814399999997	RIGHT	1662.2993999999949	10.0	0.8	Probable_Lie	RIGHT	LEFT	3	725.4373405203705	2	2020-02-17 10:57:39.507191
92	Self	S200217	0.8333333333333334	2	1	2	1	0.7	1066.6666688	1066.6666688	1500.000003	1783.3333369	Minor	Wrong_doings	43	You have pretended to be busy to avoid a social situation	C1_13	0.0	Hard	I1_8	23	Earth's atmosphere extends up to 10,000km into space	0.0	Yes	RIGHT	773.8415000000032	LEFT	688.3870999999999	RIGHT	2569.211100000018	LEFT	1767.9435999999669	9.3	0.7	Probable_Lie	RIGHT	RIGHT	1	374.3618999999967	3	2020-02-17 10:58:03.675079
85	Self	S200217	0.8333333333333334	1	2	2	1	0.6	1216.6666691	1216.6666691	2216.6666711000003	2500.000005	Minor	Wrong_doings	42	You have borrowed things and never returned	C1_27	0.05	Easy	I2_11	2	There are 6 million animal species on Earth	0.0555555555555556	No	RIGHT	456.50280000000976	RIGHT	567.9076999999779	RIGHT	1973.3577999999736	LEFT	1919.8807999999872	9.9	0.6	Probable_Truth	LEFT	LEFT	1	557.9528999999752	4	2020-02-17 10:58:28.874312
62	Self	S200217	0.5	2	1	2	1	0.4	1350.0000027	1150.0000023	1650.0000033	2350.0000047	Minor	Good_deeds	49	You have cheated on a test	C2_45	0.0	Hard	I1_31	44	A square has 3 corners	0.722222222222222	Yes	RIGHT	1271.200599999986	LEFT	344.34920000001057	LEFT	1684.1382000000067	LEFT	1151.6070999999783	9.5	0.4	Probable_Lie	RIGHT	RIGHT	2	872.3133999999959	5	2020-02-17 10:58:53.275090
15	Self	S200217	0.5	2	1	2	1	0.5	1216.6666691	1000.000002	2500.000005	1650.0000033	Major	Good_deeds	11	You have held the elevator doors for others	C1_37	0.0	Easy	I1_15	39	It takes 500 days to travel from Earth to Mars	0.722222222222222	Yes	RIGHT	781.8684000000076	RIGHT	321.2582000001021	RIGHT	1988.7149999999565	RIGHT	1750.9575999999925	10.0	0.5	Probable_Truth	LEFT	LEFT	3	1451.9616000000042	6	2020-02-17 10:59:18.514765
69	Self	S200217	0.6666666666666666	1	2	2	1	0.2	1433.3333362	1000.000002	1650.0000033	2066.6666708	Minor	Wrong_doings	3	You have deceived a loved one	C1_35	0.0	Hard	I1_17	4	December is the last month of the year	0.722222222222222	No	RIGHT	304.56550000008065	RIGHT	382.0905999999695	RIGHT	1405.539699999963	LEFT	2968.082299999992	10.2	0.2	Probable_Truth	LEFT	LEFT	1	446.0811000000149	7	2020-02-17 10:59:42.746543
49	Self	S200217	0.5	1	2	1	2	0.8	1283.3333359	1150.0000023	1783.3333369	1650.0000033	Major	Wrong_doings	24	You have switched off appliances when not in use	C2_56	0.5	Easy	I2_35	37	"Statue of Liberty is 151 feet tall"	0.888888888888889	Yes	RIGHT	943.7404000000242	LEFT	704.51079999998	LEFT	2159.367999999972	RIGHT	2854.2331999999533	9.4	0.8	Probable_Lie	LEFT	RIGHT	2	1162.337999999977	8	2020-02-17 11:00:09.010904
125	Computer	S200217	0.6666666666666666	2	1	2	1	0.4	1000.000002	1216.6666691	2350.0000047	2500.000005	Minor	Good_deeds	43	You have done something against your values	C1_43	1.0	Easy	I1_54	10	Singapore is a country	0.0555555555555556	Yes	LEFT	1011.4878000000544	RIGHT	398.91389999991134	RIGHT	1549.9419999999873	LEFT	1775.907400000051	9.4	0.4	Probable_Truth	LEFT	LEFT	2	785.4155769265992	9	2020-02-17 11:00:34.170425
94	Self	S200217	0.8333333333333334	2	1	2	1	0.1	1216.6666691	1150.0000023	2066.6666708	2350.0000047	Minor	Wrong_doings	24	You have extorted money from anyone	C2_28	0.85	Hard	I2_24	17	China is a part of Asia	0.944444444444444	Yes	RIGHT	830.3028999999924	RIGHT	247.5390999999263	RIGHT	1843.7794000000167	LEFT	2560.102700000016	9.499999999999998	0.1	Probable_Lie	LEFT	LEFT	3	680.6869999999208	10	2020-02-17 11:00:59.690281
1	Self	S200217	0.5	1	2	1	2	0.4	1350.0000027	1350.0000027	1783.3333369	1783.3333369	Major	Wrong_doings	40	You have intentionally let others cut in line	C2_54	0.85	Hard	I1_29	57	Christmas Day is in March	0.0555555555555556	No	RIGHT	648.4944999999698	LEFT	842.1172000000752	LEFT	1831.8011999999728	LEFT	3380.7583999999906	9.099999999999998	0.4	Probable_Lie	RIGHT	LEFT	5	1665.2048000000832	11	2020-02-17 11:01:26.890481
64	Self	S200217	0.6666666666666666	1	2	1	2	0.1	1350.0000027	1433.3333362	2216.6666711000003	1650.0000033	Major	Good_deeds	48	You have given up your seat in the MRT	C2_3	0.85	Easy	I1_12	54	It is 20th Century now	0.888888888888889	No	RIGHT	289.28689999997914	RIGHT	648.2416000000057	LEFT	1391.1977999999865	RIGHT	2567.625200000066	9.199999999999998	0.1	Probable_Lie	LEFT	LEFT	4	479.66519999999946	12	2020-02-17 11:01:51.490433
112	Computer	S200217	0.6666666666666666	1	2	1	2	0.7	1350.0000027	1066.6666688	1933.3333372	1933.3333372	Major	Wrong_doings	58	You have volunteered every week for many years	C2_10	0.95	Hard	I1_43	41	Astatine is the rarest element in the Earth's crust	0.888888888888889	Yes	LEFT	216.5507000000844	RIGHT	1013.6552999999822	LEFT	2526.69329999992	RIGHT	2078.1491999999844	9.199999999999998	0.7	Probable_Truth	LEFT	LEFT	1	895.40319218534	13	2020-02-17 11:02:17.074296
115	Computer	S200217	0.6666666666666666	1	2	1	2	0.4	1066.6666688	1350.0000027	1650.0000033	1650.0000033	Major	Wrong_doings	31	You have lied to your parents	C1_39	0.0	Easy	I1_4	43	Arabi is the oldest surviving breed of horse	0.764705882352941	No	LEFT	216.0121000000572	RIGHT	497.9112999999416	RIGHT	2159.950999999978	LEFT	982.9879999999775	9.199999999999998	0.4	Probable_Truth	RIGHT	RIGHT	5	805.4574268832789	14	2020-02-17 11:02:40.018365
29	Self	S200217	0.6666666666666666	2	1	2	1	0.3	1350.0000027	1216.6666691	2216.6666711000003	2500.000005	Minor	Good_deeds	43	You have done something against your values	C1_43	1.0	Easy	I1_54	10	Singapore is a country	0.0555555555555556	Yes	RIGHT	1007.1889000000738	LEFT	336.405300000024	RIGHT	990.515799999912	LEFT	1192.060799999922	8.899999999999997	0.3	Probable_Lie	LEFT	LEFT	6	872.840599999904	15	2020-02-17 11:03:04.274108
48	Self	S200217	0.5	1	2	1	2	0.7	1000.000002	1066.6666688	2216.6666711000003	1783.3333369	Major	Good_deeds	56	You have bought cigarettes for a minor	C1_53	0.9	Easy	I2_2	24	Fishes can swim in water	1.0	Yes	RIGHT	214.81330000005983	RIGHT	270.3049000000419	RIGHT	1584.4181999999591	LEFT	1433.4610000000794	9.599999999999996	0.7	Probable_Truth	RIGHT	RIGHT	6	450.082699999939	16	2020-02-17 11:03:26.873227
3	Self	S200217	0.5	1	2	1	2	0.7	1000.000002	1000.000002	1650.0000033	1650.0000033	Minor	Good_deeds	6	You have coveted things that belong to others	C1_9	1.0	Hard	I2_51	29	It sometimes snows in Singapore	0.611111111111111	Yes	RIGHT	240.4481000000942	RIGHT	287.0907999999872	LEFT	1248.2238999999709	LEFT	3888.21310000003	10.299999999999995	0.7	Probable_Truth	RIGHT	RIGHT	6	406.91640000000007	17	2020-02-17 11:03:50.818125
26	Self	S200217	0.6666666666666666	2	1	1	2	0.2	1216.6666691	1283.3333359	1933.3333372	1500.000003	Major	Good_deeds	9	You have been convicted in court	C1_4	0.05	Hard	I1_10	54	Bears have the biggest eyes among mammals	0.944444444444444	No	RIGHT	242.30049999994208	RIGHT	112.8979000000072	LEFT	2407.48050000002	LEFT	1207.1469999999636	10.499999999999996	0.2	Probable_Truth	RIGHT	RIGHT	5	1445.536700000048	18	2020-02-17 11:04:14.738477
121	Computer	S200217	0.6666666666666666	2	1	1	2	0.3	1066.6666688	1433.3333362	2216.6666711000003	1933.3333372	Major	Wrong_doings	33	You have rescued others from a catastrophe	C1_59	0.2	Easy	I2_40	28	Milwaukee Art Museum is located in California	0.0	Yes	LEFT	466.3773999999421	LEFT	192.41439999996143	LEFT	1670.1485000000955	RIGHT	2261.8250000000444	10.499999999999996	0.3	Probable_Lie	RIGHT	LEFT	5	659.7840072063794	19	2020-02-17 11:04:39.218569
40	Self	S200217	0.8333333333333334	2	1	1	2	0.1	1066.6666688	1066.6666688	1650.0000033	2216.6666711000003	Minor	Good_deeds	47	You have sign up to sponsor a needy child	C1_47	0.05	Hard	I2_34	21	R. Amundsen discovered the South Pole	0.111111111111111	No	RIGHT	254.4093999999859	RIGHT	289.4708000000037	RIGHT	1471.4878000000908	RIGHT	2402.6126999999638	10.599999999999994	0.1	Probable_Lie	LEFT	LEFT	4	857.3884999999564	20	2020-02-17 11:05:03.065236
65	Self	S200217	0.6666666666666666	1	2	1	2	0.6	1283.3333359	1216.6666691	2500.000005	2350.0000047	Minor	Wrong_doings	5	You have been sued	C2_36	0.0	Easy	I2_4	50	Most plants emit oxygen in the day	0.777777777777778	Yes	RIGHT	238.02760000000944	RIGHT	242.24480000009407	RIGHT	2863.9619999999013	LEFT	1059.0830999999523	11.199999999999994	0.6	Probable_Truth	RIGHT	RIGHT	6	435.8379999999897	21	2020-02-17 11:05:27.834776
39	Self	S200217	0.8333333333333334	1	2	2	1	0.5	1000.000002	1216.6666691	1933.3333372	1500.000003	Minor	Good_deeds	34	You have stopped using products tested on animals	C2_53	1.0	Easy	I1_26	6	It is snowing outside now	0.0	No	RIGHT	289.60330000006707	RIGHT	268.260699999928	LEFT	1607.7632999999878	RIGHT	2366.872599999965	11.699999999999994	0.5	Probable_Truth	LEFT	LEFT	1	980.4315000000088	22	2020-02-17 11:05:51.569124
18	Self	S200217	0.6666666666666666	1	2	1	2	0.4	1433.3333362	1500.000003	1933.3333372	2350.0000047	Major	Good_deeds	1	You have been arrested	C2_58	0.0	Hard	I2_41	4	Summer is hotter than winter	0.0	Yes	RIGHT	199.9757999999474	RIGHT	259.0779000000793	RIGHT	1720.165399999928	LEFT	812.706100000014	12.099999999999994	0.4	Probable_Lie	LEFT	LEFT	4	626.6866000000846	23	2020-02-17 11:06:14.978539
68	Self	S200217	0.6666666666666666	1	2	2	1	0.4	1000.000002	1066.6666688	1783.3333369	1933.3333372	Major	Wrong_doings	3	You have said sorry when you were rude	C1_5	0.65	Hard	I2_56	12	Singapore is a poor country	0.944444444444444	Yes	RIGHT	233.1342999999606	RIGHT	287.0341999999937	LEFT	1445.7464999999274	RIGHT	1511.2221000000543	12.499999999999996	0.4	Probable_Truth	RIGHT	RIGHT	4	421.7861999999286	24	2020-02-17 11:06:37.233609
105	Computer	S200217	0.5	2	1	1	2	0.8	1066.6666688	1350.0000027	1500.000003	1933.3333372	Minor	Wrong_doings	35	You have been restricting your electricity consumption	C2_35	1.0	Hard	I2_42	46	Singapore ranked 8th in World's smallest countries	0.0	Yes	LEFT	93.51060000005872	LEFT	8.53129999995872	RIGHT	3391.0710999999765	RIGHT	3938.48289999994	12.499999999999996	0.8	Probable_Lie	RIGHT	LEFT	6	637.5801116320862	25	2020-02-17 11:07:03.722817
30	Self	S200217	0.6666666666666666	2	1	2	1	0.8	1066.6666688	1150.0000023	2066.6666708	2216.6666711000003	Minor	Good_deeds	59	You have cheated on a national exam	C2_9	0.7	Hard	I2_22	40	The current century is 21st	0.0	Yes	RIGHT	221.640500000035	RIGHT	224.3988000000172	RIGHT	1205.7858999999098	LEFT	1103.149999999914	13.299999999999995	0.8	Probable_Lie	LEFT	LEFT	4	716.2048000000141	26	2020-02-17 11:07:26.273229
84	Self	S200217	0.8333333333333334	1	2	2	1	0.8	1500.000003	1433.3333362	2066.6666708	1650.0000033	Major	Good_deeds	58	You have provided shelter for stray animals	C1_23	1.0	Easy	I1_5	45	The human's inner ear is larger than a pencil eraser	0.888888888888889	Yes	RIGHT	7.765199999994365	RIGHT	661.9642999999087	LEFT	3245.479899999964	RIGHT	1657.1535000000497	14.099999999999996	0.8	Probable_Truth	RIGHT	RIGHT	5	354.6053000000029	27	2020-02-17 11:07:51.425439
141	Computer	S200217	0.8333333333333334	2	1	2	1	0.5	1216.6666691	1150.0000023	2216.6666711000003	2350.0000047	Minor	Good_deeds	8	You have bribed someone to improve a grade	C1_8	0.85	Easy	I2_52	34	Afghan Hound is the first cloned cat	0.0555555555555556	No	LEFT	651.9610000000284	RIGHT	232.56860000014967	RIGHT	2605.061599999999	LEFT	1783.0128000000514	14.099999999999996	0.5	Probable_Truth	LEFT	LEFT	1	837.7220233969624	28	2020-02-17 11:08:17.033330
20	Self	S200217	0.6666666666666666	1	2	2	1	0.6	1150.0000023	1216.6666691	1650.0000033	1783.3333369	Minor	Good_deeds	15	You have thrown your trash into the bin	C1_6	1.0	Easy	I1_14	44	The Franco-Prussian War occurred in the 19th century	0.0	Yes	RIGHT	704.0406000000985	LEFT	844.9725000000399	RIGHT	1475.3445000001193	RIGHT	1200.4382000000078	13.499999999999996	0.6	Probable_Lie	LEFT	LEFT	5	652.6602000001276	29	2020-02-17 11:08:40.290028
21	Self	S200217	0.6666666666666666	1	2	2	1	0.3	1066.6666688	1350.0000027	2066.6666708	1933.3333372	Major	Good_deeds	39	You have taken responsibility for your actions	C2_31	0.95	Hard	I2_49	14	Obama is the USA president now	0.0	No	RIGHT	240.7100000000355	LEFT	925.3379999997832	LEFT	1221.4926999999989	RIGHT	1223.9148000001023	13.199999999999996	0.3	Probable_Lie	RIGHT	RIGHT	1	614.6298000001025	30	2020-02-17 11:09:03.506195
41	Self	S200217	0.8333333333333334	2	1	1	2	0.2	1500.000003	1433.3333362	1933.3333372	2350.0000047	Major	Wrong_doings	16	You have cursed at your loved ones	C2_46	0.0	Hard	I1_21	52	Some owl species hunt fish	0.0	Yes	RIGHT	35.6763999998293	RIGHT	264.01319999990847	LEFT	2880.037800000082	LEFT	1852.2195999998985	13.399999999999997	0.2	Probable_Truth	LEFT	LEFT	1	504.7737000002144	31	2020-02-17 11:09:28.834459
12	Self	S200217	0.5	2	1	2	1	0.4	1066.6666688	1433.3333362	1783.3333369	1500.000003	Minor	Wrong_doings	42	You have organized a violent protest	C1_29	0.75	Hard	I2_30	60	Airbags in cars are filled with sodium azide	0.0	No	RIGHT	937.9619000001184	LEFT	175.84549999992305	LEFT	2430.156200000056	LEFT	1918.7744000000748	12.999999999999996	0.4	Probable_Lie	RIGHT	RIGHT	1	1627.167800000052	32	2020-02-17 11:09:54.283478
52	Self	S200217	0.5	1	2	2	1	0.4	1066.6666688	1000.000002	2350.0000047	2350.0000047	Minor	Wrong_doings	53	You have been donating all your excess food to a food bank	C2_30	0.05	Hard	I2_1	6	Singapore has four seasons	0.0	No	RIGHT	529.1227000000163	LEFT	939.207599999918	LEFT	1244.2919999998594	Time_Max_Exceeded	5000.212800000099	12.599999999999994	0.4	Probable_Lie	LEFT	RIGHT	3	980.065699999841	33	2020-02-17 11:10:22.314621
124	Computer	S200217	0.6666666666666666	2	1	2	1	0.5	1216.6666691	1500.000003	1500.000003	1650.0000033	Major	Wrong_doings	59	You have downloaded pirated movies	C2_59	0.0	Hard	I2_28	22	Hot chocolate was created by the Mayan culture	0.666666666666667	No	LEFT	516.2548999999217	LEFT	135.69619999998395	RIGHT	1806.6874000001008	LEFT	1160.1024999999936	12.599999999999994	0.5	Probable_Lie	LEFT	RIGHT	1	739.3292501033726	34	2020-02-17 11:10:45.106604
126	Computer	S200217	0.6666666666666666	2	1	2	1	0.1	1283.3333359	1000.000002	1650.0000033	2216.6666711000003	Minor	Good_deeds	59	You have cheated on a national exam	C2_9	0.7	Hard	I2_22	40	The current century is 21st	0.0	Yes	LEFT	2105.5791000001136	LEFT	407.9483000000437	RIGHT	967.104000000063	LEFT	773.8750999999411	12.599999999999994	0.1	Probable_Lie	LEFT	RIGHT	2	831.3697772377928	35	2020-02-17 11:11:08.921999
133	Computer	S200217	0.8333333333333334	1	2	2	1	0.1	1150.0000023	1150.0000023	2350.0000047	1650.0000033	Minor	Good_deeds	16	You have engaged in money laundering	C1_50	1.0	Easy	I1_50	3	Marijuana is legal in Singapore	0.0	No	LEFT	96.3361999999961	LEFT	1018.9437000001362	LEFT	1304.3351999999686	LEFT	1759.5315999999457	12.599999999999994	0.1	Probable_Lie	LEFT	RIGHT	1	949.6802508930386	36	2020-02-17 11:11:32.922069
11	Self	S200217	0.5	2	1	1	2	0.3	1500.000003	1500.000003	1933.3333372	2500.000005	Minor	Good_deeds	29	You have given way to the handicapped	C1_11	1.0	Easy	I1_48	42	There is typically 0.6 grams of mercury in glass thermometer	0.0	No	RIGHT	893.1919999999991	LEFT	65.43459999988954	RIGHT	2350.3915000001143	RIGHT	1787.8802000000178	12.299999999999994	0.3	Probable_Lie	RIGHT	LEFT	5	1979.4045000001008	37	2020-02-17 11:12:00.010932
55	Self	S200217	0.5	1	2	2	1	0.1	1433.3333362	1500.000003	1933.3333372	1500.000003	Minor	Good_deeds	30	You have risked your life to save another person's life	C1_24	0.0	Easy	I1_46	23	It takes 112 years to build the Pisa Tower	0.0555555555555556	Yes	RIGHT	93.8544999999067	RIGHT	20.41220000000976	LEFT	2187.286399999948	RIGHT	1815.34570000008	12.399999999999991	0.1	Probable_Truth	RIGHT	LEFT	2	1568.2934999999816	38	2020-02-17 11:12:24.650868
27	Self	S200217	0.6666666666666666	2	1	1	2	0.1	1283.3333359	1350.0000027	1500.000003	1783.3333369	Minor	Wrong_doings	4	You have said thank you when you have received help	C2_18	0.9	Easy	I1_28	28	French is Singapore's official language	0.0	No	RIGHT	156.48780000014995	RIGHT	287.93990000008307	LEFT	1448.1307000000925	RIGHT	1658.7687000001097	12.499999999999991	0.1	Probable_Truth	LEFT	LEFT	1	886.2977999999657	39	2020-02-17 11:12:47.578229
102	Computer	S200217	0.5	1	2	2	1	0.5	1066.6666688	1350.0000027	2500.000005	2500.000005	Major	Good_deeds	20	You have adopted a zero-waste lifestyle	C1_22	0.05	Hard	I2_26	58	Fibers in oranges can be used to make fabric	0.0	Yes	LEFT	127.7009000000362	LEFT	288.33800000006704	LEFT	2157.538299999942	RIGHT	2679.701600000044	12.499999999999991	0.5	Probable_Lie	LEFT	LEFT	6	817.0359207453396	40	2020-02-17 11:13:13.641853
6	Self	S200217	0.5	1	2	2	1	0.6	1216.6666691	1150.0000023	2216.6666711000003	1933.3333372	Major	Good_deeds	20	You have adopted a zero-waste lifestyle	C1_22	0.05	Hard	I2_26	58	Fibers in oranges can be used to make fabric	0.0	Yes	RIGHT	808.8038000000779	LEFT	2655.360800000153	RIGHT	2077.4635000000217	RIGHT	1031.4120999998977	11.899999999999991	0.6	Probable_Lie	RIGHT	RIGHT	1	1342.383499999869	41	2020-02-17 11:13:40.649198
106	Computer	S200217	0.5	2	1	1	2	0.3	1350.0000027	1150.0000023	2350.0000047	2066.6666708	Major	Good_deeds	60	You have violated a traffic law	C2_42	0.1	Hard	I1_60	48	The sun rises at night	0.833333333333333	Yes	LEFT	1371.3213999999423	LEFT	104.48650000012094	LEFT	1975.6239000000733	LEFT	1199.5934000001398	11.899999999999991	0.3	Probable_Lie	LEFT	RIGHT	1	948.8090058773308	42	2020-02-17 11:14:05.741054
22	Self	S200217	0.6666666666666666	1	2	2	1	0.5	1350.0000027	1066.6666688	1783.3333369	2216.6666711000003	Minor	Wrong_doings	6	You have made someone cry	C2_1	1.0	Easy	I2_44	49	Red is a color	0.0	No	RIGHT	25.224700000080706	RIGHT	226.70130000005884	RIGHT	1382.164800000055	LEFT	1241.25939999999	12.399999999999991	0.5	Probable_Truth	LEFT	LEFT	2	946.777099999963	43	2020-02-17 11:14:28.553613
36	Self	S200217	0.8333333333333334	1	2	2	1	0.4	1350.0000027	1350.0000027	1650.0000033	2350.0000047	Major	Good_deeds	53	You have helped a friend in need	C2_26	0.1	Hard	I1_3	8	Today is a weekday	0.611111111111111	Yes	RIGHT	112.1943000000556	RIGHT	239.3239000000449	RIGHT	1840.988599999946	RIGHT	1151.678899999979	12.799999999999994	0.4	Probable_Truth	LEFT	LEFT	1	640.5123999998068	44	2020-02-17 11:14:51.818151
140	Computer	S200217	0.8333333333333334	2	1	2	1	0.2	1000.000002	1000.000002	1783.3333369	1933.3333372	Minor	Wrong_doings	39	You have let a homeless man into your house	C1_33	0.0	Easy	I1_53	53	Mageirocophobia is a fear of deathly disease	0.944444444444444	No	LEFT	232.2284999997919	LEFT	367.1372999999676	RIGHT	2212.5851000000694	RIGHT	1734.3129000000772	12.799999999999994	0.2	Probable_Lie	LEFT	RIGHT	1	932.3903243028642	45	2020-02-17 11:15:15.586796
9	Self	S200217	0.5	2	1	1	2	0.2	1433.3333362	1066.6666688	2216.6666711000003	2216.6666711000003	Minor	Wrong_doings	35	You have been restricting your electricity consumption	C2_35	1.0	Hard	I2_42	46	Singapore ranked 8th in World's smallest countries	0.0	Yes	RIGHT	1054.9599999999373	LEFT	174.6135000000777	LEFT	1487.5687999999627	RIGHT	1288.299600000073	12.599999999999994	0.2	Probable_Lie	LEFT	RIGHT	1	1336.6786999999931	46	2020-02-17 11:15:40.441257
32	Self	S200217	0.8333333333333334	1	2	1	2	0.1	1283.3333359	1500.000003	2350.0000047	1783.3333369	Major	Wrong_doings	14	You have a non-judgmental attitude towards everyone	C2_27	0.8	Hard	I1_32	32	Africa is the continent with the least rainfall	0.0	Yes	RIGHT	167.78529999987768	RIGHT	171.8255999999201	RIGHT	2544.0128999998706	RIGHT	2729.880200000025	12.699999999999994	0.1	Probable_Truth	LEFT	LEFT	1	1127.694799999972	47	2020-02-17 11:16:06.674440
93	Self	S200217	0.8333333333333334	2	1	2	1	0.6	1000.000002	1433.3333362	2350.0000047	2066.6666708	Minor	Wrong_doings	20	You have held the door open for a stranger	C2_24	0.95	Easy	I1_36	36	The Seine river is 50 feet above sea level	0.0	No	RIGHT	265.8998000001702	RIGHT	239.49679999986984	LEFT	3336.453299999903	RIGHT	1631.2007000001358	13.299999999999994	0.6	Probable_Truth	LEFT	LEFT	1	622.4167999998826	48	2020-02-17 11:31:03.496712
50	Self	S200217	0.5	1	2	1	2	0.2	1150.0000023	1350.0000027	2500.000005	1933.3333372	Minor	Good_deeds	14	You have followed instructions	C2_47	0.0	Hard	I1_24	35	Lehman Brothers went bankrupt on 20th September	0.0	No	RIGHT	200.91869999987463	RIGHT	228.31260000020848	RIGHT	1943.195399999695	RIGHT	1116.4186000000882	13.499999999999991	0.2	Probable_Truth	LEFT	RIGHT	4	1469.4527999999991	49	2020-02-17 11:31:27.961830
130	Computer	S200217	0.8333333333333334	1	2	1	2	0.5	1216.6666691	1066.6666688	1933.3333372	1933.3333372	Minor	Wrong_doings	57	You have told someone's secret to others	C1_16	0.0	Hard	I2_55	26	Pyramid of Giza is 468 feet tall	0.777777777777778	No	LEFT	64.86410000024989	LEFT	710.2789999999004	RIGHT	1063.4430999998583	LEFT	2169.3248000001404	13.499999999999991	0.5	Probable_Lie	RIGHT	RIGHT	1	690.5668593651335	50	2020-02-17 11:31:51.377741
123	Computer	S200217	0.6666666666666666	2	1	1	2	0.2	1150.0000023	1150.0000023	2066.6666708	2350.0000047	Minor	Wrong_doings	4	You have said thank you when you have received help	C2_18	0.9	Easy	I1_28	28	French is Singapore's official language	0.0	No	LEFT	706.624599999941	RIGHT	175.38349999995262	LEFT	927.6396999998724	RIGHT	1467.1845000002577	13.499999999999991	0.2	Probable_Truth	LEFT	LEFT	1	776.8098015443841	51	2020-02-17 11:32:14.728191
81	Self	S200217	0.8333333333333334	1	2	1	2	0.3	1350.0000027	1000.000002	2350.0000047	2066.6666708	Minor	Wrong_doings	29	You have queued to enter the MRT train	C2_29	0.2	Easy	I2_59	40	It is night time now	0.666666666666667	Yes	RIGHT	208.0568999999741	RIGHT	250.17160000015792	LEFT	1080.6099000001268	RIGHT	1814.1623999999863	13.799999999999994	0.3	Probable_Truth	LEFT	LEFT	1	408.7835999998788	52	2020-02-17 11:32:37.833828
137	Computer	S200217	0.8333333333333334	2	1	1	2	0.7	1283.3333359	1350.0000027	2500.000005	1783.3333369	Major	Wrong_doings	16	You have cursed at your loved ones	C2_46	0.0	Hard	I1_21	52	Some owl species hunt fish	0.0	Yes	LEFT	1148.3318999999028	LEFT	111.45750000014232	RIGHT	1736.4510000002156	LEFT	2691.4004000000205	13.799999999999994	0.7	Probable_Lie	LEFT	LEFT	6	993.5900521099156	53	2020-02-17 11:33:04.008815
87	Self	S200217	0.8333333333333334	1	2	2	1	0.2	1433.3333362	1150.0000023	1783.3333369	1783.3333369	Major	Wrong_doings	60	You have sorted your trash into recycling bin	C2_60	0.0	Hard	I1_2	13	Polish is 20th most spoken language in the World	0.944444444444444	No	RIGHT	168.6200999997709	RIGHT	218.5804000000644	LEFT	2740.7419999999547	RIGHT	2055.3976000001057	13.999999999999991	0.2	Probable_Truth	LEFT	LEFT	1	442.3565000001872	54	2020-02-17 11:33:28.353975
114	Computer	S200217	0.6666666666666666	1	2	1	2	0.1	1000.000002	1500.000003	2216.6666711000003	1500.000003	Major	Good_deeds	1	You have been arrested	C2_58	0.0	Hard	I2_41	4	Summer is hotter than winter	0.0	Yes	LEFT	145.31040000019857	LEFT	403.6137000002782	RIGHT	1176.2165000000095	LEFT	951.033499999994	13.999999999999991	0.1	Probable_Lie	RIGHT	LEFT	6	573.591634424335	55	2020-02-17 11:33:50.384817
71	Self	S200217	0.6666666666666666	1	2	2	1	0.7	1150.0000023	1350.0000027	1500.000003	1500.000003	Minor	Good_deeds	35	You have engaged in arson	C1_36	0.0	Hard	I2_50	47	The first Grammy awards was held in 1959	0.0555555555555556	Yes	RIGHT	336.3038999996206	LEFT	956.2918000001446	RIGHT	1995.879000000059	LEFT	1184.0632000003095	13.299999999999994	0.7	Probable_Lie	LEFT	LEFT	5	369.95429999979024	56	2020-02-17 11:34:13.305522
111	Computer	S200217	0.5	2	1	2	1	0.5	1433.3333362	1433.3333362	2066.6666708	1500.000003	Major	Good_deeds	11	You have held the elevator doors for others	C1_37	0.0	Easy	I1_15	39	It takes 500 days to travel from Earth to Mars	0.722222222222222	Yes	LEFT	18.46750000004249	LEFT	365.8139999997729	RIGHT	1102.11419999996	RIGHT	1215.785999999753	13.299999999999994	0.5	Probable_Lie	LEFT	LEFT	4	513.3702326481865	57	2020-02-17 11:34:35.528287
25	Self	S200217	0.6666666666666666	2	1	1	2	0.6	1433.3333362	1066.6666688	2350.0000047	1933.3333372	Major	Wrong_doings	33	You have rescued others from a catastrophe	C1_59	0.2	Easy	I2_40	28	Milwaukee Art Museum is located in California	0.0	Yes	LEFT	841.8627999999444	LEFT	1120.1466000002256	RIGHT	2200.215599999865	RIGHT	2085.0432000002	13.299999999999994	0.6	Probable_Lie	LEFT	LEFT	5	586.2403000000995	58	2020-02-17 11:35:01.720869
24	Self	S200217	0.6666666666666666	2	1	1	2	0.5	1000.000002	1433.3333362	2500.000005	2066.6666708	Major	Good_deeds	18	You have returned your trays in food courts	C2_33	0.05	Easy	I2_18	18	Algeria is Africa's second largest country	0.666666666666667	No	RIGHT	1260.8320999997886	LEFT	224.3969000001016	RIGHT	1367.3988999998985	RIGHT	1847.1654999998464	12.799999999999994	0.5	Probable_Lie	LEFT	LEFT	6	1568.2885999999598	59	2020-02-17 11:35:27.561352
35	Self	S200217	0.8333333333333334	1	2	1	2	0.8	1433.3333362	1150.0000023	2500.000005	2500.000005	Minor	Good_deeds	26	You have helped your parents when asked to	C2_34	0.0	Hard	I2_8	50	Cernan was the second last man to walk on the Moon	0.944444444444444	Yes	RIGHT	184.9106999998185	LEFT	1236.9032999999945	RIGHT	2320.3575000002274	RIGHT	1956.232900000032	11.999999999999991	0.8	Probable_Lie	RIGHT	RIGHT	1	807.3190999998587	60	2020-02-17 11:35:54.225143
142	Computer	S200217	0.8333333333333334	2	1	2	1	0.3	1350.0000027	1500.000003	1933.3333372	1500.000003	Minor	Wrong_doings	23	You have shown your appreciation to your teachers	C1_17	0.65	Easy	I2_43	43	Last day of the year is 30th December	1.0	No	LEFT	1068.9320000001317	LEFT	206.53989999982517	LEFT	3628.4507999998814	RIGHT	1007.7298000001064	11.999999999999991	0.3	Probable_Lie	RIGHT	LEFT	2	510.5764707495169	61	2020-02-17 11:36:19.513016
136	Computer	S200217	0.8333333333333334	2	1	1	2	0.8	1150.0000023	1216.6666691	2066.6666708	2066.6666708	Minor	Good_deeds	47	You have sign up to sponsor a needy child	C1_47	0.05	Hard	I2_34	21	R. Amundsen discovered the South Pole	0.111111111111111	No	LEFT	929.6790000003056	RIGHT	327.5389999998879	RIGHT	1463.2759999999507	RIGHT	2101.924699999927	11.999999999999991	0.8	Probable_Truth	RIGHT	RIGHT	3	777.4657475501376	62	2020-02-17 11:36:44.192185
45	Self	S200217	0.8333333333333334	2	1	2	1	0.4	1433.3333362	1283.3333359	2500.000005	2066.6666708	Minor	Good_deeds	8	You have bribed someone to improve a grade	C1_8	0.85	Easy	I2_52	34	Afghan Hound is the first cloned cat	0.0555555555555556	No	RIGHT	253.64259999969363	RIGHT	199.19000000027157	LEFT	2096.3329999999587	LEFT	1375.1455000001442	12.399999999999991	0.4	Probable_Truth	RIGHT	RIGHT	4	1353.1082999998034	63	2020-02-17 11:37:09.328122
119	Computer	S200217	0.6666666666666666	1	2	2	1	0.5	1150.0000023	1216.6666691	1783.3333369	2350.0000047	Minor	Good_deeds	10	You have taken part in violent demonstration	C1_46	0.15	Hard	I1_39	60	Singapore is in Africa	0.888888888888889	No	LEFT	160.29740000021775	LEFT	1231.8363999997928	LEFT	1388.0773000000772	LEFT	1590.6683000002886	12.399999999999991	0.5	Probable_Lie	LEFT	RIGHT	2	757.6101404679189	64	2020-02-17 11:37:33.528553
134	Computer	S200217	0.8333333333333334	1	2	2	1	0.2	1350.0000027	1433.3333362	2066.6666708	1500.000003	Major	Wrong_doings	27	You have used a fake name online	C1_14	0.25	Easy	I2_36	55	Saturn's rings are between 30 and 300 feet thick	0.0	Yes	LEFT	158.5283999997955	LEFT	257.7051999996911	RIGHT	2390.0972999999794	LEFT	1062.7639999997882	12.399999999999991	0.2	Probable_Lie	RIGHT	LEFT	4	513.7419955109342	65	2020-02-17 11:37:56.842056
7	Self	S200217	0.5	1	2	2	1	0.3	1150.0000023	1500.000003	1933.3333372	2500.000005	Major	Good_deeds	54	You have donated a pay cheque to charity	C2_57	0.05	Hard	I2_48	33	The Earth turns the closest to the sun in May	0.0	No	RIGHT	33.355200000187324	LEFT	892.2771999996257	RIGHT	2325.338199999805	RIGHT	1912.0634000000791	12.099999999999993	0.3	Probable_Lie	LEFT	RIGHT	2	2082.902699999977	66	2020-02-17 11:38:23.746045
90	Self	S200217	0.8333333333333334	2	1	1	2	0.8	1350.0000027	1216.6666691	1650.0000033	2500.000005	Major	Good_deeds	37	You have given directions to a lost tourist	C1_38	0.05	Easy	I1_38	24	Dutch is the 6th Europe's most widely spoken language	0.888888888888889	Yes	RIGHT	240.07780000010823	RIGHT	191.2021000002824	RIGHT	2191.6912000001503	RIGHT	1708.6389999999485	12.899999999999991	0.8	Probable_Truth	LEFT	LEFT	1	760.2159999996729	67	2020-02-17 11:38:48.129227
53	Self	S200217	0.5	1	2	2	1	0.5	1350.0000027	1433.3333362	1650.0000033	2066.6666708	Major	Wrong_doings	47	You have faked an illness	C1_44	0.9	Easy	I1_37	46	Penguin can fly with their wings	0.0555555555555556	No	RIGHT	104.878699999972	LEFT	950.4799999999703	LEFT	1191.4719000001242	LEFT	1344.1204000000653	12.399999999999991	0.5	Probable_Lie	LEFT	LEFT	4	1728.134400000272	68	2020-02-17 11:39:12.520447
83	Self	S200217	0.8333333333333334	1	2	1	2	0.7	1000.000002	1283.3333359	1500.000003	2350.0000047	Minor	Wrong_doings	2	You have participated in a scamming business	C1_42	0.05	Hard	I2_25	5	Animals are living things	0.0555555555555556	Yes	RIGHT	254.88300000006348	LEFT	758.0422999999428	RIGHT	1160.7481000000917	LEFT	1593.2864999999765	11.699999999999994	0.7	Probable_Lie	RIGHT	RIGHT	1	592.3453000000336	69	2020-02-17 11:39:35.593487
28	Self	S200217	0.6666666666666666	2	1	2	1	0.7	1500.000003	1000.000002	1783.3333369	2350.0000047	Major	Wrong_doings	59	You have downloaded pirated movies	C2_59	0.0	Hard	I2_28	22	Hot chocolate was created by the Mayan culture	0.666666666666667	No	RIGHT	1122.9049999997187	LEFT	110.95090000026175	RIGHT	1706.778100000065	LEFT	1023.3531000003496	10.999999999999996	0.7	Probable_Lie	LEFT	LEFT	5	599.1673999997147	70	2020-02-17 11:39:59.369859
33	Self	S200217	0.8333333333333334	1	2	1	2	0.2	1150.0000023	1066.6666688	1783.3333369	2216.6666711000003	Major	Wrong_doings	50	You have assisted in a crime	C1_57	0.7	Easy	I2_6	36	Malay is one of the races in Singapore	1.0	No	RIGHT	48.52440000013303	RIGHT	281.3150000001769	RIGHT	1911.837200000264	LEFT	1343.0068000002393	11.199999999999994	0.2	Probable_Truth	LEFT	LEFT	1	898.6415999997917	71	2020-02-17 11:40:22.649879
59	Self	S200217	0.5	2	1	1	2	0.1	1066.6666688	1216.6666691	1500.000003	1933.3333372	Minor	Good_deeds	11	You have stopped using plastics completely	C2_11	0.65	Hard	I1_1	27	The first Olympic Games was held in the 5th century B.C	0.0	Yes	RIGHT	829.8930000000837	LEFT	129.36489999992773	RIGHT	1469.7963000003256	RIGHT	2741.8118999999024	11.099999999999994	0.1	Probable_Lie	LEFT	RIGHT	3	2184.6631999997044	72	2020-02-17 11:40:48.296903
73	Self	S200217	0.6666666666666666	2	1	1	2	0.1	1283.3333359	1150.0000023	1783.3333369	1650.0000033	Minor	Good_deeds	50	You have helped others to pick up their belongings	C2_40	0.0	Hard	I2_45	45	Mozambique is the world's poorest country	1.0	Yes	RIGHT	514.1429000000244	RIGHT	184.84699999999063	RIGHT	2558.676100000412	RIGHT	1960.1121000000603	11.199999999999994	0.1	Probable_Truth	LEFT	LEFT	2	1800.0928000001295	73	2020-02-17 11:41:13.753183
17	Self	S200217	0.6666666666666666	1	2	1	2	0.8	1216.6666691	1283.3333359	2216.6666711000003	2066.6666708	Minor	Wrong_doings	46	You have started an NGO using your savings	C1_15	0.0	Easy	I2_60	39	There are 20 bones in the human skull	0.888888888888889	Yes	RIGHT	79.80500000030588	LEFT	1377.2524999999405	LEFT	1273.028999999951	RIGHT	2420.5306999997447	10.399999999999991	0.8	Probable_Lie	LEFT	RIGHT	1	1359.646700000212	74	2020-02-17 11:41:39.624371
47	Self	S200217	0.8333333333333334	2	1	2	1	0.6	1283.3333359	1000.000002	2216.6666711000003	2500.000005	Major	Good_deeds	46	You have kept your promises	C2_23	0.7	Hard	I2_21	19	Beer is an alcoholic drink	0.0	Yes	RIGHT	232.69189999973605	RIGHT	151.55890000005456	RIGHT	805.2912000002834	RIGHT	879.7245999999177	10.999999999999991	0.6	Probable_Truth	RIGHT	RIGHT	4	1115.9523999999692	75	2020-02-17 11:42:02.384753
37	Self	S200217	0.8333333333333334	1	2	2	1	0.7	1216.6666691	1433.3333362	2066.6666708	2066.6666708	Minor	Good_deeds	16	You have engaged in money laundering	C1_50	1.0	Easy	I1_50	3	Marijuana is legal in Singapore	0.0	No	RIGHT	49.01299999983166	RIGHT	276.41300000004776	LEFT	1414.2413999998098	LEFT	1056.57519999977	11.699999999999992	0.7	Probable_Truth	LEFT	LEFT	1	1171.2485000002744	76	2020-02-17 11:42:25.712682
96	Computer	S200217	0.5	1	2	1	2	0.4	1150.0000023	1066.6666688	1650.0000033	2066.6666708	Major	Wrong_doings	57	You have made counterfeit money	C1_40	0.2	Easy	I1_58	25	The hardest bone in human body is the jawbone	0.0	No	LEFT	237.40330000009635	LEFT	1240.9367000000202	LEFT	2375.7621999998264	LEFT	2013.099799999964	11.699999999999992	0.4	Probable_Lie	LEFT	LEFT	4	914.3068230260252	77	2020-02-17 11:42:51.009996
122	Computer	S200217	0.6666666666666666	2	1	1	2	0.6	1433.3333362	1283.3333359	1783.3333369	1500.000003	Major	Good_deeds	9	You have been convicted in court	C1_4	0.05	Hard	I1_10	54	Bears have the biggest eyes among mammals	0.944444444444444	No	LEFT	2.0126999997955863	LEFT	15.322700000069744	LEFT	1470.7048000000214	LEFT	1392.910000000029	11.699999999999992	0.6	Probable_Lie	LEFT	RIGHT	2	881.8416456659291	78	2020-02-17 11:43:13.352639
108	Computer	S200217	0.5	2	1	2	1	0.4	1500.000003	1066.6666688	1650.0000033	2500.000005	Minor	Wrong_doings	42	You have organized a violent protest	C1_29	0.75	Hard	I2_30	60	Airbags in cars are filled with sodium azide	0.0	No	LEFT	1416.7766000000483	RIGHT	106.74900000003618	RIGHT	2548.6440999998194	LEFT	952.3303000000852	11.699999999999992	0.4	Probable_Truth	LEFT	RIGHT	5	897.5236945631917	79	2020-02-17 11:43:38.561409
51	Self	S200217	0.5	1	2	1	2	0.3	1500.000003	1283.3333359	2066.6666708	2216.6666711000003	Major	Good_deeds	44	You have fabricated facts about yourself	C1_12	0.05	Hard	I1_6	2	The Moon orbits around the Earth	0.888888888888889	Yes	RIGHT	80.73930000000473	RIGHT	165.63300000007075	RIGHT	2888.5724000001574	LEFT	1751.296899999943	11.999999999999991	0.3	Probable_Truth	RIGHT	RIGHT	4	1836.909900000137	80	2020-02-17 11:44:04.928253
135	Computer	S200217	0.8333333333333334	1	2	2	1	0.6	1283.3333359	1500.000003	1500.000003	2500.000005	Minor	Good_deeds	34	You have stopped using products tested on animals	C2_53	1.0	Easy	I1_26	6	It is snowing outside now	0.0	No	LEFT	135.2884000002632	LEFT	128.51679999994303	LEFT	1381.505500000003	RIGHT	1503.778499999953	11.999999999999991	0.6	Probable_Lie	LEFT	RIGHT	1	976.4238930936408	81	2020-02-17 11:44:28.416956
101	Computer	S200217	0.5	1	2	2	1	0.7	1433.3333362	1000.000002	2350.0000047	2350.0000047	Minor	Wrong_doings	31	You have helped with household chores	C1_31	0.7	Easy	I1_57	26	The Amazon forest covers an area of 1 billion acres	0.777777777777778	No	LEFT	231.5570999999181	RIGHT	956.3962000001992	RIGHT	2107.5058999999783	RIGHT	1544.5795999999063	11.999999999999991	0.7	Probable_Truth	RIGHT	RIGHT	4	843.3856891272995	82	2020-02-17 11:44:53.809323
4	Self	S200217	0.5	1	2	2	1	0.5	1433.3333362	1433.3333362	2350.0000047	1500.000003	Minor	Good_deeds	9	You have cursed at others	C2_6	0.85	Easy	I2_33	48	Vegetarians can eat vegetable products	0.777777777777778	Yes	RIGHT	352.8471999998146	LEFT	872.8383000002395	RIGHT	2241.3833000000523	LEFT	806.6819000000578	11.499999999999991	0.5	Probable_Lie	LEFT	LEFT	6	1498.2789000000594	83	2020-02-17 11:45:18.880821
75	Self	S200217	0.6666666666666666	2	1	1	2	0.8	1150.0000023	1216.6666691	2350.0000047	2066.6666708	Minor	Wrong_doings	45	You have used heroin	C1_1	1.0	Hard	I1_27	38	February has 30 days	0.111111111111111	No	RIGHT	875.4405999998198	LEFT	208.15140000013344	LEFT	1414.7007999999914	LEFT	1528.4127999998418	10.699999999999992	0.8	Probable_Lie	LEFT	LEFT	5	2278.04070000002	84	2020-02-17 11:45:44.544215
23	Self	S200217	0.6666666666666666	1	2	2	1	0.1	1500.000003	1000.000002	1500.000003	2500.000005	Minor	Good_deeds	10	You have taken part in violent demonstration	C1_46	0.15	Hard	I1_39	60	Singapore is in Africa	0.888888888888889	No	RIGHT	87.04089999991993	RIGHT	116.5395000002718	LEFT	852.9128000000128	LEFT	1047.0759999998336	10.799999999999992	0.1	Probable_Lie	LEFT	LEFT	3	1200.0527000000147	85	2020-02-17 11:46:06.928760
91	Self	S200217	0.8333333333333334	2	1	1	2	0.2	1500.000003	1000.000002	2500.000005	1650.0000033	Major	Good_deeds	34	You have sheltered others from disasters	C1_34	0.15	Hard	I1_23	16	Kangaroos live in Africa	0.944444444444444	Yes	RIGHT	893.908200000169	LEFT	184.826300000168	LEFT	2334.9207000001115	RIGHT	2263.3397999998124	10.599999999999993	0.2	Probable_Lie	RIGHT	RIGHT	1	641.5575000000899	86	2020-02-17 11:46:32.472590
129	Computer	S200217	0.8333333333333334	1	2	1	2	0.4	1500.000003	1216.6666691	1783.3333369	1783.3333369	Major	Wrong_doings	50	You have assisted in a crime	C1_57	0.7	Easy	I2_6	36	Malay is one of the races in Singapore	1.0	No	LEFT	135.02349999998842	LEFT	1639.082900000176	RIGHT	1231.7158999999265	LEFT	1194.1823000001932	10.599999999999993	0.4	Probable_Lie	RIGHT	RIGHT	1	990.0632165594828	87	2020-02-17 11:46:56.512812
14	Self	S200217	0.5	2	1	2	1	0.7	1350.0000027	1216.6666691	1650.0000033	1933.3333372	Major	Wrong_doings	13	You have watched a pirated movie	C2_8	0.45	Easy	I1_9	9	Carnivore refers to meat-eater	0.833333333333333	Yes	RIGHT	767.325400000118	LEFT	56.52839999993376	RIGHT	1421.9426999998177	LEFT	775.8435000000645	9.899999999999991	0.7	Probable_Lie	RIGHT	RIGHT	2	1844.0534999999727	88	2020-02-17 11:47:20.105452
58	Self	S200217	0.5	2	1	1	2	0.6	1500.000003	1350.0000027	2066.6666708	1500.000003	Minor	Wrong_doings	19	You have started a hotline for victims of bully	C1_30	0.0	Easy	I2_27	5	The hyoid bone is the only jointless bone	0.0	No	RIGHT	158.78070000007938	RIGHT	231.33469999993395	RIGHT	1694.706799999949	RIGHT	3275.460699999712	10.499999999999991	0.6	Probable_Truth	RIGHT	RIGHT	4	1513.4290000000874	89	2020-02-17 11:47:45.976186
86	Self	S200217	0.8333333333333334	1	2	2	1	0.1	1150.0000023	1500.000003	1933.3333372	1933.3333372	Major	Good_deeds	27	You have volunteered for a disaster-related humanitarian mission	C2_2	0.85	Hard	I2_13	11	Septicemia is a lung infection condition	0.888888888888889	Yes	RIGHT	32.94659999983196	RIGHT	204.683599999953	RIGHT	1760.9082999997554	RIGHT	1647.9419999996026	10.599999999999993	0.1	Probable_Truth	RIGHT	RIGHT	4	602.1526999998059	90	2020-02-17 11:48:09.320198
110	Computer	S200217	0.5	2	1	2	1	0.2	1150.0000023	1283.3333359	2216.6666711000003	2350.0000047	Major	Wrong_doings	13	You have watched a pirated movie	C2_8	0.45	Easy	I1_9	9	Carnivore refers to meat-eater	0.833333333333333	Yes	LEFT	841.2279999997736	RIGHT	208.20180000009717	RIGHT	867.3543999998401	LEFT	679.9189000003025	10.599999999999993	0.2	Probable_Truth	RIGHT	LEFT	3	848.2279577458858	91	2020-02-17 11:48:32.336389
97	Computer	S200217	0.5	1	2	1	2	0.2	1500.000003	1500.000003	1500.000003	2216.6666711000003	Major	Wrong_doings	40	You have intentionally let others cut in line	C2_54	0.85	Hard	I1_29	57	Christmas Day is in March	0.0555555555555556	No	LEFT	56.59710000009	LEFT	846.3227000002007	LEFT	1360.290200000236	LEFT	2952.155700000276	10.599999999999993	0.2	Probable_Lie	LEFT	RIGHT	3	971.3795105622538	92	2020-02-17 11:48:57.808208
107	Computer	S200217	0.5	2	1	1	2	0.1	1283.3333359	1500.000003	1933.3333372	2216.6666711000003	Minor	Good_deeds	29	You have given way to the handicapped	C1_11	1.0	Easy	I1_48	42	There is typically 0.6 grams of mercury in glass thermometer	0.0	No	LEFT	638.3779000002505	RIGHT	88.40719999989233	RIGHT	1815.0813000002015	RIGHT	1183.2917000001544	10.599999999999993	0.1	Probable_Truth	RIGHT	LEFT	2	933.367524949324	93	2020-02-17 11:49:21.977478
109	Computer	S200217	0.5	2	1	2	1	0.6	1216.6666691	1000.000002	2500.000005	1783.3333369	Minor	Good_deeds	8	You have sold illegal drugs	C2_13	0.0	Easy	I2_46	15	Nanyang Technological University is in Australia	0.0	No	LEFT	1130.0421000000824	LEFT	839.620400000058	LEFT	1452.0290999998906	LEFT	1216.4996000001338	10.599999999999993	0.6	Probable_Lie	LEFT	LEFT	4	609.9609823362229	94	2020-02-17 11:49:46.304809
67	Self	S200217	0.6666666666666666	1	2	1	2	0.8	1066.6666688	1283.3333359	2066.6666708	2216.6666711000003	Major	Good_deeds	36	You have been physically hurt to protect others	C2_48	0.95	Hard	I2_54	52	Acoustic Kitty refers to cat with implants	0.0	No	RIGHT	56.74869999984367	RIGHT	238.36350000010495	RIGHT	2104.0150999997422	RIGHT	3406.561000000238	11.399999999999991	0.8	Probable_Truth	RIGHT	RIGHT	6	936.3680000001297	95	2020-02-17 11:50:12.257824
0	Self	S200217	0.5	1	2	1	2	0.8	1066.6666688	1283.3333359	2066.6666708	2216.6666711000003	Major	Wrong_doings	57	You have made counterfeit money	C1_40	0.2	Easy	I1_58	25	The hardest bone in human body is the jawbone	0.0	No	RIGHT	246.4732000003096	RIGHT	293.87709999991785	LEFT	2759.082500000204	LEFT	1272.8267999996206	12.199999999999994	0.8	Probable_Truth	LEFT	RIGHT	4	1201.2217000001328	96	2020-02-17 11:51:23.152131
120	Computer	S200217	0.6666666666666666	2	1	1	2	0.7	1350.0000027	1066.6666688	2500.000005	2066.6666708	Major	Good_deeds	18	You have returned your trays in food courts	C2_33	0.05	Easy	I2_18	18	Algeria is Africa's second largest country	0.666666666666667	No	LEFT	79.06760000014401	LEFT	575.8645999999317	RIGHT	1335.8095000003232	RIGHT	1591.14929999987	12.199999999999994	0.7	Probable_Lie	LEFT	RIGHT	2	774.9829103974002	97	2020-02-17 11:51:47.056686
5	Self	S200217	0.5	1	2	2	1	0.2	1500.000003	1066.6666688	2500.000005	2350.0000047	Minor	Wrong_doings	31	You have helped with household chores	C1_31	0.7	Easy	I1_57	26	The Amazon forest covers an area of 1 billion acres	0.777777777777778	No	RIGHT	111.96319999999103	RIGHT	174.1557999998804	RIGHT	1707.5174999999945	RIGHT	1055.5501999997432	12.399999999999991	0.2	Probable_Truth	LEFT	LEFT	3	1274.968500000341	98	2020-02-17 11:52:11.376318
95	Self	S200217	0.8333333333333334	2	1	2	1	0.4	1433.3333362	1350.0000027	1933.3333372	1933.3333372	Minor	Good_deeds	13	You have illegally stayed in a country	C2_37	1.0	Easy	I2_16	38	Nomophobia is the fear of being without a phone or computer	0.666666666666667	No	RIGHT	236.3814000000275	RIGHT	40.163699999993696	RIGHT	2817.561100000148	LEFT	838.7322000003223	12.799999999999994	0.4	Probable_Truth	LEFT	LEFT	1	535.3955999999016	99	2020-02-17 11:52:35.071894
63	Self	S200217	0.5	2	1	2	1	0.3	1283.3333359	1283.3333359	2216.6666711000003	2216.6666711000003	Major	Wrong_doings	7	You have kidnapped someone	C1_51	1.0	Easy	I2_5	31	A dog has four legs	0.0	No	RIGHT	237.97369999965667	RIGHT	96.2333000002218	RIGHT	1152.591800000209	LEFT	687.9014999999526	13.099999999999994	0.3	Probable_Truth	RIGHT	LEFT	2	1241.7993999997634	100	2020-02-17 11:52:58.064902
89	Self	S200217	0.8333333333333334	2	1	1	2	0.3	1283.3333359	1500.000003	1783.3333369	2216.6666711000003	Major	Wrong_doings	38	You have failed to keep promises	C1_20	0.95	Hard	I2_17	8	There are 30 hours in a day	0.166666666666667	No	RIGHT	257.1115999999165	RIGHT	97.0895999998902	LEFT	1103.408599999966	LEFT	1250.1941999998962	13.399999999999997	0.3	Probable_Lie	LEFT	LEFT	3	829.8933000000943	101	2020-02-17 11:53:20.960503
132	Computer	S200217	0.8333333333333334	1	2	2	1	0.8	1000.000002	1350.0000027	1650.0000033	2066.6666708	Major	Good_deeds	53	You have helped a friend in need	C2_26	0.1	Hard	I1_3	8	Today is a weekday	0.611111111111111	Yes	LEFT	232.5889000003372	LEFT	509.3464000001404	RIGHT	1383.1686999997146	RIGHT	1160.1079000001846	13.399999999999997	0.8	Probable_Lie	LEFT	RIGHT	1	772.2266894954946	102	2020-02-17 11:53:43.648818
118	Computer	S200217	0.6666666666666666	1	2	2	1	0.3	1283.3333359	1000.000002	2350.0000047	2216.6666711000003	Minor	Wrong_doings	6	You have made someone cry	C2_1	1.0	Easy	I2_44	49	Red is a color	0.0	No	LEFT	168.68979999981093	LEFT	750.6307999997262	RIGHT	1256.6962999999305	LEFT	864.5860000001448	13.399999999999997	0.3	Probable_Lie	LEFT	LEFT	6	851.5614034606444	103	2020-02-17 11:54:06.961000
70	Self	S200217	0.6666666666666666	1	2	2	1	0.5	1216.6666691	1150.0000023	1933.3333372	1783.3333369	Minor	Good_deeds	36	You have started a movement to support a cause	C1_3	0.95	Easy	I1_47	17	There are 6000 spoken languages in the World	0.0	Yes	RIGHT	111.88020000008692	RIGHT	261.36970000015936	RIGHT	1950.7120000002944	RIGHT	2686.3807999998244	13.899999999999997	0.5	Probable_Lie	LEFT	LEFT	3	1404.5892999997704	104	2020-02-17 11:54:32.040538
31	Self	S200217	0.6666666666666666	2	1	2	1	0.4	1150.0000023	1500.000003	1650.0000033	1650.0000033	Minor	Wrong_doings	7	You have attended all lectures as a student	C1_7	1.0	Hard	I1_35	35	North Korea is more developed than South Korea	0.666666666666667	Yes	RIGHT	246.7642000001433	RIGHT	152.04810000022917	LEFT	2061.499100000219	RIGHT	1504.5208999999886	14.299999999999995	0.4	Probable_Truth	RIGHT	RIGHT	5	658.7050000002819	105	2020-02-17 11:54:55.192686
46	Self	S200217	0.8333333333333334	2	1	2	1	0.8	1216.6666691	1350.0000027	2066.6666708	1500.000003	Minor	Wrong_doings	23	You have shown your appreciation to your teachers	C1_17	0.65	Easy	I2_43	43	Last day of the year is 30th December	1.0	No	RIGHT	886.3563999998405	LEFT	25.920400000359223	LEFT	1923.534699999891	RIGHT	1343.510900000183	13.499999999999996	0.8	Probable_Lie	RIGHT	RIGHT	1	1115.3085000000829	106	2020-02-17 11:55:19.200559
104	Computer	S200217	0.5	2	1	1	2	0.7	1000.000002	1216.6666691	1783.3333369	1650.0000033	Major	Wrong_doings	37	You have donated blood every 6 months for many years	C1_60	0.95	Hard	I2_39	30	The Eiffel Tower is in Paris	0.833333333333333	No	LEFT	694.3896999996468	RIGHT	81.1161000001448	RIGHT	984.292000000096	RIGHT	1839.7978999996667	13.499999999999996	0.7	Probable_Truth	RIGHT	LEFT	2	718.9343958237174	107	2020-02-17 11:55:41.744207
82	Self	S200217	0.8333333333333334	1	2	1	2	0.4	1283.3333359	1350.0000027	2500.000005	2216.6666711000003	Minor	Good_deeds	23	You have gossiped about your best friend	C1_58	0.55	Hard	I1_40	59	There are 9 rings in the Olympic flag	0.0	No	RIGHT	552.2126999999273	LEFT	1044.817100000273	LEFT	1720.2331999997114	LEFT	880.810499999825	13.099999999999994	0.4	Probable_Lie	LEFT	LEFT	6	590.0526999998874	108	2020-02-17 11:56:06.456571
127	Computer	S200217	0.6666666666666666	2	1	2	1	0.8	1500.000003	1350.0000027	1933.3333372	1783.3333369	Minor	Wrong_doings	7	You have attended all lectures as a student	C1_7	1.0	Hard	I1_35	35	North Korea is more developed than South Korea	0.666666666666667	Yes	LEFT	1019.8881000001164	RIGHT	302.9787000000397	LEFT	978.5880999997972	RIGHT	831.1416000001373	13.099999999999994	0.8	Probable_Truth	LEFT	LEFT	1	648.9501381501996	109	2020-02-17 11:56:29.383725
10	Self	S200217	0.5	2	1	1	2	0.8	1000.000002	1350.0000027	2350.0000047	1783.3333369	Major	Good_deeds	60	You have violated a traffic law	C2_42	0.1	Hard	I1_60	48	The sun rises at night	0.833333333333333	Yes	RIGHT	1370.24509999992	LEFT	263.78980000026786	LEFT	1063.6845999997604	LEFT	1140.015299999959	12.299999999999994	0.8	Probable_Lie	LEFT	RIGHT	2	1765.0462999999943	110	2020-02-17 11:56:54.049085
8	Self	S200217	0.5	2	1	1	2	0.1	1150.0000023	1150.0000023	1500.000003	2350.0000047	Major	Wrong_doings	37	You have donated blood every 6 months for many years	C1_60	0.95	Hard	I2_39	30	The Eiffel Tower is in Paris	0.833333333333333	No	RIGHT	893.460899999809	LEFT	112.4604999999974	RIGHT	639.8904999996375	RIGHT	1019.63539999997	12.199999999999994	0.1	Probable_Lie	RIGHT	LEFT	5	1203.7829000000784	111	2020-02-17 11:57:16.640510
61	Self	S200217	0.5	2	1	2	1	0.8	1150.0000023	1066.6666688	2350.0000047	2066.6666708	Minor	Good_deeds	51	You have confessed to your mistake	C1_49	0.0	Hard	I1_44	31	Today is Sunday	0.0	Yes	RIGHT	1443.706199999724	LEFT	1263.8105999999425	LEFT	2297.097699999995	RIGHT	1193.198299999949	11.399999999999991	0.8	Probable_Lie	RIGHT	RIGHT	3	1309.2633000001117	112	2020-02-17 11:57:43.353445
19	Self	S200217	0.6666666666666666	1	2	1	2	0.2	1000.000002	1150.0000023	2500.000005	1500.000003	Major	Wrong_doings	31	You have lied to your parents	C1_39	0.0	Easy	I1_4	43	Arabi is the oldest surviving breed of horse	0.764705882352941	No	RIGHT	96.21480000032534	RIGHT	221.2764999999308	RIGHT	1407.9372000001058	LEFT	907.8677000002244	11.599999999999993	0.2	Probable_Truth	RIGHT	RIGHT	6	613.4729999998854	113	2020-02-17 11:58:05.327391
2	Self	S200217	0.5	1	2	1	2	0.1	1283.3333359	1216.6666691	1500.000003	2066.6666708	Minor	Wrong_doings	22	You have engaged in underage smoking	C2_20	0.0	Easy	I1_25	51	Statute of Liberty is in New York	0.611111111111111	Yes	RIGHT	224.23769999977597	LEFT	1084.6970999996302	RIGHT	1504.9223999999413	LEFT	896.2225999998736	11.499999999999991	0.1	Probable_Lie	RIGHT	LEFT	5	1248.2652000003327	114	2020-02-17 11:58:28.928241
79	Self	S200217	0.6666666666666666	2	1	2	1	0.6	1433.3333362	1433.3333362	1933.3333372	1500.000003	Minor	Wrong_doings	40	You have taken part in burglary	C1_45	0.0	Easy	I1_42	41	Cleopatra was born in Greece	0.833333333333333	Yes	RIGHT	898.6463999999614	LEFT	56.79150000014488	RIGHT	2054.828300000281	LEFT	814.851400000407	10.899999999999991	0.6	Probable_Lie	LEFT	LEFT	5	737.6736999999594	115	2020-02-17 11:58:52.367975
77	Self	S200217	0.6666666666666666	2	1	2	1	0.2	1500.000003	1500.000003	2066.6666708	1933.3333372	Major	Good_deeds	48	You have offered a listening ear to a friend	C2_50	0.0	Easy	I2_58	13	A triangle has three sides	0.0	Yes	RIGHT	260.4327999997622	RIGHT	248.2731000000058	RIGHT	1603.3726999994542	RIGHT	1433.5304000005635	11.099999999999993	0.2	Probable_Truth	LEFT	LEFT	1	679.8741000002337	116	2020-02-17 11:59:16.169563
54	Self	S200217	0.5	1	2	2	1	0.6	1216.6666691	1216.6666691	1500.000003	2500.000005	Minor	Wrong_doings	12	You have bribed a police officer	C2_14	0.95	Hard	I2_23	1	Mexico's National Day is September 16	1.0	No	RIGHT	321.1546000002272	LEFT	1460.8656000000335	LEFT	1733.7364999993952	LEFT	887.1757000006255	10.499999999999991	0.6	Probable_Lie	LEFT	RIGHT	1	1282.884500000364	117	2020-02-17 11:59:40.864060
128	Computer	S200217	0.8333333333333334	1	2	1	2	0.7	1433.3333362	1283.3333359	2216.6666711000003	2350.0000047	Major	Wrong_doings	14	You have a non-judgmental attitude towards everyone	C2_27	0.8	Hard	I1_32	32	Africa is the continent with the least rainfall	0.0	Yes	LEFT	207.8140999992684	LEFT	1051.2634999995498	RIGHT	2375.4368999998405	RIGHT	1580.206100000396	10.499999999999991	0.7	Probable_Lie	RIGHT	LEFT	4	612.8972596776053	118	2020-02-17 12:00:06.551741
38	Self	S200217	0.8333333333333334	1	2	2	1	0.3	1066.6666688	1000.000002	2216.6666711000003	1933.3333372	Major	Wrong_doings	27	You have used a fake name online	C1_14	0.25	Easy	I2_36	55	Saturn's rings are between 30 and 300 feet thick	0.0	Yes	RIGHT	105.4623999998512	RIGHT	239.30039999959263	RIGHT	1802.0778999998583	LEFT	960.53959999972	10.799999999999994	0.3	Probable_Truth	LEFT	LEFT	1	443.3728000003612	119	2020-02-17 12:00:28.895426
88	Self	S200217	0.8333333333333334	2	1	1	2	0.5	1150.0000023	1283.3333359	2216.6666711000003	1500.000003	Major	Good_deeds	28	You have signed up as a bone marrow donor	C2_43	0.1	Easy	I2_12	12	Chickens lay eggs	0.0	No	RIGHT	1416.6242000001148	LEFT	319.2676999997275	RIGHT	1517.7001999991262	RIGHT	1583.0838000001677	10.299999999999994	0.5	Probable_Lie	RIGHT	RIGHT	1	929.6834000006128	120	2020-02-17 12:00:53.392315
98	Computer	S200217	0.5	1	2	1	2	0.8	1216.6666691	1433.3333362	1933.3333372	1933.3333372	Minor	Wrong_doings	22	You have engaged in underage smoking	C2_20	0.0	Easy	I1_25	51	Statute of Liberty is in New York	0.611111111111111	Yes	LEFT	88.56999999989057	RIGHT	743.0587999997442	RIGHT	727.9127000001608	LEFT	884.1053999994983	10.299999999999994	0.8	Probable_Truth	LEFT	LEFT	3	809.2450019170957	121	2020-02-17 12:01:15.743404
34	Self	S200217	0.8333333333333334	1	2	1	2	0.6	1500.000003	1283.3333359	1500.000003	1650.0000033	Minor	Wrong_doings	57	You have told someone's secret to others	C1_16	0.0	Hard	I2_55	26	Pyramid of Giza is 468 feet tall	0.777777777777778	No	RIGHT	120.503699999972	RIGHT	260.29509999989386	RIGHT	775.6789999993998	LEFT	2055.0521000004665	10.899999999999991	0.6	Probable_Truth	RIGHT	RIGHT	5	624.223400000119	122	2020-02-17 12:01:38.087461
57	Self	S200217	0.5	2	1	1	2	0.5	1000.000002	1000.000002	1783.3333369	1783.3333369	Major	Wrong_doings	45	You have stolen something	C1_19	0.65	Hard	I2_53	1	There are 7 days in a week	0.833333333333333	No	RIGHT	417.4518999998327	LEFT	65.05530000049475	RIGHT	783.9899000000514	LEFT	1931.2369999997827	10.399999999999991	0.5	Probable_Lie	RIGHT	RIGHT	3	1882.198199999948	123	2020-02-17 12:02:01.311758
76	Self	S200217	0.6666666666666666	2	1	2	1	0.4	1216.6666691	1283.3333359	2500.000005	2216.6666711000003	Minor	Good_deeds	1	You have drunk alcohol when you were underage	C2_17	0.55	Easy	I1_41	27	Slavery was abolished in Cuba in 1886	0.0	No	RIGHT	253.7155999998504	RIGHT	79.99569999992673	RIGHT	1720.521899999767	LEFT	1222.8801000001113	10.799999999999994	0.4	Probable_Truth	LEFT	LEFT	2	648.4098999999333	124	2020-02-17 12:02:25.032244
100	Computer	S200217	0.5	1	2	2	1	0.3	1350.0000027	1283.3333359	2216.6666711000003	1650.0000033	Minor	Good_deeds	9	You have cursed at others	C2_6	0.85	Easy	I2_33	48	Vegetarians can eat vegetable products	0.777777777777778	Yes	LEFT	81.59780000005412	LEFT	1040.4349000000366	RIGHT	1430.368199999975	LEFT	760.0634000000355	10.799999999999994	0.3	Probable_Lie	LEFT	RIGHT	1	802.1227661892499	125	2020-02-17 12:02:48.216680
78	Self	S200217	0.6666666666666666	2	1	2	1	0.3	1350.0000027	1000.000002	2216.6666711000003	2500.000005	Major	Wrong_doings	19	You have taken months off to volunteer	C1_28	0.55	Easy	I2_38	3	Beef comes from cows	0.722222222222222	No	RIGHT	214.6112999998877	RIGHT	49.17620000014722	RIGHT	1363.5061000004498	RIGHT	3423.588600000585	11.099999999999994	0.3	Probable_Truth	RIGHT	RIGHT	5	892.0838000003641	126	2020-02-17 12:03:13.807250
138	Computer	S200217	0.8333333333333334	2	1	1	2	0.4	1066.6666688	1433.3333362	1500.000003	2216.6666711000003	Major	Wrong_doings	17	You have bought cocaine	C2_39	0.0	Easy	I1_19	21	The Earth is round	0.833333333333333	Yes	LEFT	904.3204999998125	RIGHT	105.08459999982732	RIGHT	663.8480000001437	LEFT	864.6411999998236	11.099999999999994	0.4	Probable_Truth	LEFT	LEFT	1	855.5229848249745	127	2020-02-17 12:03:35.983251
74	Self	S200217	0.6666666666666666	2	1	1	2	0.7	1066.6666688	1350.0000027	1500.000003	1783.3333369	Major	Good_deeds	28	You have lost everything just to help others	C2_19	0.05	Hard	I2_3	58	There are 10 continents in the World	0.777777777777778	Yes	RIGHT	1660.1714999997057	LEFT	615.9738000005746	LEFT	1464.4562000003134	RIGHT	1891.9267999999647	10.399999999999997	0.7	Probable_Lie	LEFT	RIGHT	1	1259.7763000003397	128	2020-02-17 12:04:01.151656
103	Computer	S200217	0.5	1	2	2	1	0.6	1283.3333359	1150.0000023	1783.3333369	1500.000003	Major	Good_deeds	54	You have donated a pay cheque to charity	C2_57	0.05	Hard	I2_48	33	The Earth turns the closest to the sun in May	0.0	No	RIGHT	73.11369999933959	RIGHT	205.37660000081812	RIGHT	3844.888599999649	RIGHT	1704.8327000002246	10.999999999999996	0.6	Probable_Truth	RIGHT	LEFT	2	713.9456524097425	129	2020-02-17 12:04:25.984998
99	Computer	S200217	0.5	1	2	1	2	0.1	1000.000002	1216.6666691	2066.6666708	1783.3333369	Minor	Good_deeds	6	You have coveted things that belong to others	C1_9	1.0	Hard	I2_51	29	It sometimes snows in Singapore	0.611111111111111	Yes	LEFT	48.4121999998024	RIGHT	461.0497000003306	LEFT	1182.8654000000824	LEFT	2778.8143999996464	10.999999999999996	0.1	Probable_Truth	RIGHT	RIGHT	6	558.0509348245805	130	2020-02-17 12:04:49.648012
60	Self	S200217	0.5	2	1	2	1	0.7	1433.3333362	1500.000003	1933.3333372	2500.000005	Major	Wrong_doings	30	You have blackmailed others for money	C2_38	0.0	Easy	I2_31	11	A caterpillar has more muscle than a human	0.944444444444444	Yes	RIGHT	289.8150999999416	RIGHT	24.035299999923154	LEFT	2122.1881999999823	LEFT	925.2580000002126	11.699999999999994	0.7	Probable_Truth	RIGHT	RIGHT	5	1984.4026000000667	131	2020-02-17 12:05:14.944602
139	Computer	S200217	0.8333333333333334	2	1	1	2	0.1	1433.3333362	1066.6666688	1650.0000033	2500.000005	Major	Good_deeds	33	You have watched an M18 movie when you were underage	C2_16	1.0	Hard	I1_33	33	Cheese is an Asian staple	0.833333333333333	Yes	LEFT	1002.730299999712	RIGHT	41.00650000054884	LEFT	1615.7904000001508	LEFT	1774.8867000000246	11.699999999999994	0.1	Probable_Truth	RIGHT	LEFT	1	951.6674077667836	132	2020-02-17 12:05:39.551458
13	Self	S200217	0.5	2	1	2	1	0.6	1283.3333359	1283.3333359	2066.6666708	2066.6666708	Minor	Good_deeds	8	You have sold illegal drugs	C2_13	0.0	Easy	I2_46	15	Nanyang Technological University is in Australia	0.0	No	RIGHT	1182.031299999835	LEFT	871.9223999996757	LEFT	1661.6847000004782	LEFT	1263.4476000002903	11.099999999999994	0.6	Probable_Lie	LEFT	RIGHT	1	1063.643299999967	133	2020-02-17 12:06:04.871913
66	Self	S200217	0.6666666666666666	1	2	1	2	0.3	1500.000003	1500.000003	2350.0000047	2500.000005	Major	Wrong_doings	25	You have eaten something in the MRT train	C2_25	0.45	Easy	I1_52	56	South East Asia is currently free from polio	0.0555555555555556	No	RIGHT	193.24089999918212	RIGHT	274.7402000004513	LEFT	2798.842399999557	LEFT	1290.765900000224	11.399999999999997	0.3	Probable_Truth	RIGHT	RIGHT	5	1091.3195000002816	134	2020-02-17 12:06:30.951311
43	Self	S200217	0.8333333333333334	2	1	1	2	0.7	1000.000002	1500.000003	1783.3333369	1933.3333372	Major	Good_deeds	33	You have watched an M18 movie when you were underage	C2_16	1.0	Hard	I1_33	33	Cheese is an Asian staple	0.833333333333333	Yes	RIGHT	305.6813000002876	RIGHT	80.77769999999873	LEFT	704.0993000000526	LEFT	705.9982999999193	12.099999999999994	0.7	Probable_Truth	RIGHT	RIGHT	2	1471.0579000002326	135	2020-02-17 12:06:53.016468
56	Self	S200217	0.5	2	1	1	2	0.2	1216.6666691	1433.3333362	2500.000005	1650.0000033	Major	Good_deeds	38	You have complimented others for good work	C2_7	0.95	Easy	I1_11	53	Teddy Roosevelt was the youngest US President	0.888888888888889	No	RIGHT	1043.5315000004266	LEFT	160.10970000024827	RIGHT	1079.3840999995157	RIGHT	1575.7277000002432	11.899999999999997	0.2	Probable_Lie	LEFT	LEFT	5	1306.3625999993749	136	2020-02-17 12:07:17.560111
72	Self	S200217	0.6666666666666666	2	1	1	2	0.5	1000.000002	1066.6666688	1650.0000033	2350.0000047	Major	Wrong_doings	17	You have claimed doing things that you never did	C1_48	1.0	Hard	I1_13	42	Feijoa is a type of grape	0.0	No	RIGHT	157.4319999999716	RIGHT	70.55880000007164	LEFT	1287.258600000314	LEFT	2032.467799999722	12.399999999999997	0.5	Probable_Truth	RIGHT	RIGHT	3	653.7644	137	2020-02-17 12:07:40.415816
113	Computer	S200217	0.6666666666666666	1	2	1	2	0.2	1433.3333362	1433.3333362	2500.000005	1783.3333369	Minor	Wrong_doings	46	You have started an NGO using your savings	C1_15	0.0	Easy	I2_60	39	There are 20 bones in the human skull	0.888888888888889	Yes	LEFT	48.93919999994978	LEFT	250.2826999998433	LEFT	959.1750999998112	RIGHT	1192.6857999997085	12.399999999999997	0.2	Probable_Lie	RIGHT	RIGHT	1	691.250427547772	138	2020-02-17 12:08:03.271848
16	Self	S200217	0.6666666666666666	1	2	1	2	0.7	1283.3333359	1433.3333362	2350.0000047	1650.0000033	Major	Wrong_doings	58	You have volunteered every week for many years	C2_10	0.95	Hard	I1_43	41	Astatine is the rarest element in the Earth's crust	0.888888888888889	Yes	RIGHT	185.2017999999589	LEFT	1019.4283000000725	RIGHT	1511.0884999994596	RIGHT	1080.19830000012	11.699999999999996	0.7	Probable_Lie	RIGHT	RIGHT	1	383.6532999994233	139	2020-02-17 12:08:26.745095
44	Self	S200217	0.8333333333333334	2	1	2	1	0.3	1350.0000027	1216.6666691	1500.000003	1650.0000033	Minor	Wrong_doings	39	You have let a homeless man into your house	C1_33	0.0	Easy	I1_53	53	Mageirocophobia is a fear of deathly disease	0.944444444444444	No	RIGHT	260.7428999999684	RIGHT	56.6607999999178	RIGHT	1896.0360999999464	RIGHT	1406.6829000003054	11.999999999999996	0.3	Probable_Truth	RIGHT	RIGHT	3	753.6733999995704	140	2020-02-17 12:08:49.416322
131	Computer	S200217	0.8333333333333334	1	2	1	2	0.3	1066.6666688	1000.000002	2500.000005	2216.6666711000003	Minor	Good_deeds	26	You have helped your parents when asked to	C2_34	0.0	Hard	I2_8	50	Cernan was the second last man to walk on the Moon	0.944444444444444	Yes	LEFT	415.7872000005227	LEFT	299.9141999998756	RIGHT	1214.7442999994382	RIGHT	1425.336399999651	11.999999999999996	0.3	Probable_Lie	LEFT	RIGHT	1	524.0282943311413	141	2020-02-17 12:09:12.647503
42	Self	S200217	0.8333333333333334	2	1	1	2	0.5	1150.0000023	1150.0000023	2350.0000047	1783.3333369	Major	Wrong_doings	17	You have bought cocaine	C2_39	0.0	Easy	I1_19	21	The Earth is round	0.833333333333333	Yes	RIGHT	290.1725000001534	RIGHT	104.53990000041811	RIGHT	712.1470000001864	LEFT	756.2668999999005	12.499999999999996	0.5	Probable_Truth	RIGHT	RIGHT	3	446.5645999998742	142	2020-02-17 12:09:33.968056
80	Self	S200217	0.8333333333333334	1	2	1	2	0.5	1066.6666688	1066.6666688	1650.0000033	1500.000003	Major	Good_deeds	52	You have engaged in drink-driving	C2_52	0.8	Easy	I1_45	25	Brazil is in South America	0.0	No	RIGHT	128.12849999954778	RIGHT	263.9234999996916	RIGHT	1424.5498999998745	LEFT	1230.4102999996758	12.999999999999996	0.5	Probable_Truth	RIGHT	RIGHT	5	507.9989000005298	143	2020-02-17 12:09:55.384048
