"Participant"	"Task"	"Stimulus_Side"	"Response"	"RT"	"ITI"	"Previous_Response"	"Previous_RT"	"Stop_Signal"	"Stop_Signal_RT"	"Conflict"	"Cue_Response"	"Cue_Response_RT"	"Trial_Onset"	"Trial_End"	"Trial_Order"	"Duration"
"S200122"	"Conflict_Resolution"	"LEFT"	"Time_Max_Exceeded"	1500.05699999997	566.6666678	n/a	n/a	n/a	n/a	"True"	n/a	n/a	"2020-01-22 12:35:55.137753"	"2020-01-22 12:35:56.638166"	1	6.07067046666667
"S200122"	"Conflict_Resolution"	"LEFT"	"RIGHT"	1225.62400000004	1316.6666693	n/a	n/a	n/a	n/a	"True"	n/a	n/a	"2020-01-22 12:35:57.974850"	"2020-01-22 12:35:59.407127"	2	6.07067046666667
"S200122"	"Conflict_Resolution"	"LEFT"	"LEFT"	815.119600000003	1000.000002	n/a	n/a	n/a	n/a	"False"	n/a	n/a	"2020-01-22 12:36:00.424829"	"2020-01-22 12:36:01.447406"	3	6.07067046666667
"S200122"	"Conflict_Resolution"	"LEFT"	"LEFT"	583.804699999973	516.6666677	n/a	n/a	n/a	n/a	"False"	n/a	n/a	"2020-01-22 12:36:01.983693"	"2020-01-22 12:36:02.775171"	4	6.07067046666667
"S200122"	"Conflict_Resolution"	"RIGHT"	"RIGHT"	502.813600000081	750.0000015	n/a	n/a	n/a	n/a	"False"	n/a	n/a	"2020-01-22 12:36:03.545426"	"2020-01-22 12:36:04.255304"	5	6.07067046666667
"S200122"	"Conflict_Resolution"	"RIGHT"	"LEFT"	1102.16230000003	783.3333349	n/a	n/a	n/a	n/a	"True"	n/a	n/a	"2020-01-22 12:36:05.058281"	"2020-01-22 12:36:06.367131"	6	6.07067046666667
"S200122"	"Conflict_Resolution"	"RIGHT"	"LEFT"	857.3722000001	750.0000015	n/a	n/a	n/a	n/a	"True"	n/a	n/a	"2020-01-22 12:36:07.134413"	"2020-01-22 12:36:08.200337"	7	6.07067046666667
"S200122"	"Conflict_Resolution"	"LEFT"	"LEFT"	436.447100000009	616.6666679	n/a	n/a	n/a	n/a	"False"	n/a	n/a	"2020-01-22 12:36:08.835263"	"2020-01-22 12:36:09.479184"	8	6.07067046666667
"S200122"	"Conflict_Resolution"	"LEFT"	"RIGHT"	830.938500000002	583.3333345	n/a	n/a	n/a	n/a	"True"	n/a	n/a	"2020-01-22 12:36:10.081501"	"2020-01-22 12:36:11.120584"	9	6.07067046666667
"S200122"	"Conflict_Resolution"	"RIGHT"	"RIGHT"	475.342500000011	1416.6666695	n/a	n/a	n/a	n/a	"False"	n/a	n/a	"2020-01-22 12:36:12.556596"	"2020-01-22 12:36:13.240475"	10	6.07067046666667
"S200122"	"Conflict_Resolution"	"RIGHT"	"RIGHT"	408.901799999967	1083.3333355	n/a	n/a	n/a	n/a	"False"	n/a	n/a	"2020-01-22 12:36:14.342623"	"2020-01-22 12:36:14.960094"	11	6.07067046666667
"S200122"	"Conflict_Resolution"	"LEFT"	"LEFT"	515.574800000081	866.6666684	n/a	n/a	n/a	n/a	"False"	n/a	n/a	"2020-01-22 12:36:15.844342"	"2020-01-22 12:36:16.567841"	12	6.07067046666667
"S200122"	"Conflict_Resolution"	"RIGHT"	"RIGHT"	445.940800000017	783.3333349	n/a	n/a	n/a	n/a	"False"	n/a	n/a	"2020-01-22 12:36:17.369860"	"2020-01-22 12:36:18.023875"	13	6.07067046666667
"S200122"	"Conflict_Resolution"	"RIGHT"	"RIGHT"	484.647600000017	1050.0000021	n/a	n/a	n/a	n/a	"False"	n/a	n/a	"2020-01-22 12:36:19.091470"	"2020-01-22 12:36:19.783198"	14	6.07067046666667
"S200122"	"Conflict_Resolution"	"LEFT"	"LEFT"	788.786099999925	816.6666683	n/a	n/a	n/a	n/a	"True"	n/a	n/a	"2020-01-22 12:36:20.618891"	"2020-01-22 12:36:21.615829"	15	6.07067046666667
"S200122"	"Conflict_Resolution"	"RIGHT"	"RIGHT"	857.466299999942	900.0000018	n/a	n/a	n/a	n/a	"True"	n/a	n/a	"2020-01-22 12:36:22.534345"	"2020-01-22 12:36:23.600086"	16	6.07067046666667
"S200122"	"Conflict_Resolution"	"RIGHT"	"RIGHT"	492.086699999959	850.0000017	n/a	n/a	n/a	n/a	"False"	n/a	n/a	"2020-01-22 12:36:24.467603"	"2020-01-22 12:36:25.166975"	17	6.07067046666667
"S200122"	"Conflict_Resolution"	"LEFT"	"LEFT"	489.826300000004	733.3333348	n/a	n/a	n/a	n/a	"False"	n/a	n/a	"2020-01-22 12:36:25.917708"	"2020-01-22 12:36:26.615885"	18	6.07067046666667
"S200122"	"Conflict_Resolution"	"LEFT"	"LEFT"	843.584399999941	666.666668	n/a	n/a	n/a	n/a	"True"	n/a	n/a	"2020-01-22 12:36:27.300564"	"2020-01-22 12:36:28.351066"	19	6.07067046666667
"S200122"	"Conflict_Resolution"	"RIGHT"	"RIGHT"	540.288500000088	633.3333346	n/a	n/a	n/a	n/a	"False"	n/a	n/a	"2020-01-22 12:36:29.004283"	"2020-01-22 12:36:29.752055"	20	6.07067046666667
"S200122"	"Conflict_Resolution"	"LEFT"	"LEFT"	523.975699999937	1016.6666687	n/a	n/a	n/a	n/a	"False"	n/a	n/a	"2020-01-22 12:36:30.787612"	"2020-01-22 12:36:31.520628"	21	6.07067046666667
"S200122"	"Conflict_Resolution"	"LEFT"	"LEFT"	703.259099999968	516.6666677	n/a	n/a	n/a	n/a	"True"	n/a	n/a	"2020-01-22 12:36:32.057431"	"2020-01-22 12:36:32.969418"	22	6.07067046666667
"S200122"	"Conflict_Resolution"	"LEFT"	"LEFT"	651.998000000049	766.6666682	n/a	n/a	n/a	n/a	"True"	n/a	n/a	"2020-01-22 12:36:33.756067"	"2020-01-22 12:36:34.616550"	23	6.07067046666667
"S200122"	"Conflict_Resolution"	"LEFT"	"LEFT"	586.769300000014	1250.0000025	n/a	n/a	n/a	n/a	"True"	n/a	n/a	"2020-01-22 12:36:35.884910"	"2020-01-22 12:36:36.678940"	24	6.07067046666667
"S200122"	"Conflict_Resolution"	"RIGHT"	"RIGHT"	697.07870000002	1333.333336	n/a	n/a	n/a	n/a	"True"	n/a	n/a	"2020-01-22 12:36:38.030481"	"2020-01-22 12:36:38.936620"	25	6.07067046666667
"S200122"	"Conflict_Resolution"	"RIGHT"	"RIGHT"	530.251599999929	1483.3333363	n/a	n/a	n/a	n/a	"False"	n/a	n/a	"2020-01-22 12:36:40.437633"	"2020-01-22 12:36:41.175225"	26	6.07067046666667
"S200122"	"Conflict_Resolution"	"LEFT"	"LEFT"	629.228200000057	616.6666679	n/a	n/a	n/a	n/a	"True"	n/a	n/a	"2020-01-22 12:36:41.810634"	"2020-01-22 12:36:42.648214"	27	6.07067046666667
"S200122"	"Conflict_Resolution"	"RIGHT"	"RIGHT"	488.888399999951	933.3333352	n/a	n/a	n/a	n/a	"False"	n/a	n/a	"2020-01-22 12:36:43.598841"	"2020-01-22 12:36:44.297689"	28	6.07067046666667
"S200122"	"Conflict_Resolution"	"RIGHT"	"RIGHT"	471.488600000043	1133.3333356	n/a	n/a	n/a	n/a	"False"	n/a	n/a	"2020-01-22 12:36:45.448210"	"2020-01-22 12:36:46.128120"	29	6.07067046666667
"S200122"	"Conflict_Resolution"	"LEFT"	"LEFT"	606.206100000009	1000.000002	n/a	n/a	n/a	n/a	"True"	n/a	n/a	"2020-01-22 12:36:47.145298"	"2020-01-22 12:36:47.959219"	30	6.07067046666667
"S200122"	"Conflict_Resolution"	"RIGHT"	"RIGHT"	494.358899999952	800.0000016	n/a	n/a	n/a	n/a	"False"	n/a	n/a	"2020-01-22 12:36:48.777759"	"2020-01-22 12:36:49.479685"	31	6.07067046666667
"S200122"	"Conflict_Resolution"	"RIGHT"	"RIGHT"	834.038299999975	1283.3333359	n/a	n/a	n/a	n/a	"True"	n/a	n/a	"2020-01-22 12:36:50.781559"	"2020-01-22 12:36:51.824452"	32	6.07067046666667
"S200122"	"Conflict_Resolution"	"LEFT"	"LEFT"	621.346200000062	1016.6666687	n/a	n/a	n/a	n/a	"True"	n/a	n/a	"2020-01-22 12:36:52.858779"	"2020-01-22 12:36:53.687886"	33	6.07067046666667
"S200122"	"Conflict_Resolution"	"RIGHT"	"RIGHT"	730.748900000094	700.0000014	n/a	n/a	n/a	n/a	"True"	n/a	n/a	"2020-01-22 12:36:54.404961"	"2020-01-22 12:36:55.343022"	34	6.07067046666667
"S200122"	"Conflict_Resolution"	"RIGHT"	"RIGHT"	551.680899999951	1366.6666694	n/a	n/a	n/a	n/a	"False"	n/a	n/a	"2020-01-22 12:36:56.728651"	"2020-01-22 12:36:57.487252"	35	6.07067046666667
"S200122"	"Conflict_Resolution"	"LEFT"	"LEFT"	574.47250000007	783.3333349	n/a	n/a	n/a	n/a	"True"	n/a	n/a	"2020-01-22 12:36:58.289188"	"2020-01-22 12:36:59.071194"	36	6.07067046666667
"S200122"	"Conflict_Resolution"	"LEFT"	"LEFT"	486.387899999954	783.3333349	n/a	n/a	n/a	n/a	"False"	n/a	n/a	"2020-01-22 12:36:59.873366"	"2020-01-22 12:37:00.567882"	37	6.07067046666667
"S200122"	"Conflict_Resolution"	"RIGHT"	"RIGHT"	587.279800000033	650.0000013	n/a	n/a	n/a	n/a	"True"	n/a	n/a	"2020-01-22 12:37:01.236386"	"2020-01-22 12:37:02.032405"	38	6.07067046666667
"S200122"	"Conflict_Resolution"	"RIGHT"	"RIGHT"	441.562400000066	883.3333351	n/a	n/a	n/a	n/a	"False"	n/a	n/a	"2020-01-22 12:37:02.934900"	"2020-01-22 12:37:03.584326"	39	6.07067046666667
"S200122"	"Conflict_Resolution"	"LEFT"	"LEFT"	429.931099999976	766.6666682	n/a	n/a	n/a	n/a	"False"	n/a	n/a	"2020-01-22 12:37:04.370716"	"2020-01-22 12:37:05.008641"	40	6.07067046666667
"S200122"	"Conflict_Resolution"	"LEFT"	"LEFT"	532.686099999978	1200.0000024	n/a	n/a	n/a	n/a	"False"	n/a	n/a	"2020-01-22 12:37:06.227059"	"2020-01-22 12:37:06.968581"	41	6.07067046666667
"S200122"	"Conflict_Resolution"	"RIGHT"	"RIGHT"	525.886900000046	583.3333345	n/a	n/a	n/a	n/a	"False"	n/a	n/a	"2020-01-22 12:37:07.570382"	"2020-01-22 12:37:08.304701"	42	6.07067046666667
"S200122"	"Conflict_Resolution"	"RIGHT"	"RIGHT"	430.764700000054	533.3333344	n/a	n/a	n/a	n/a	"False"	n/a	n/a	"2020-01-22 12:37:08.856798"	"2020-01-22 12:37:09.495135"	43	6.07067046666667
"S200122"	"Conflict_Resolution"	"RIGHT"	"RIGHT"	456.377599999996	950.0000019	n/a	n/a	n/a	n/a	"False"	n/a	n/a	"2020-01-22 12:37:10.464325"	"2020-01-22 12:37:11.127305"	44	6.07067046666667
"S200122"	"Conflict_Resolution"	"LEFT"	"LEFT"	521.884999999997	900.0000018	n/a	n/a	n/a	n/a	"False"	n/a	n/a	"2020-01-22 12:37:12.045802"	"2020-01-22 12:37:12.776358"	45	6.07067046666667
"S200122"	"Conflict_Resolution"	"LEFT"	"LEFT"	448.752400000103	1100.0000022	n/a	n/a	n/a	n/a	"False"	n/a	n/a	"2020-01-22 12:37:13.894863"	"2020-01-22 12:37:14.551704"	46	6.07067046666667
"S200122"	"Conflict_Resolution"	"LEFT"	"LEFT"	454.511799999977	1216.6666691	n/a	n/a	n/a	n/a	"False"	n/a	n/a	"2020-01-22 12:37:15.785628"	"2020-01-22 12:37:16.448511"	47	6.07067046666667
"S200122"	"Conflict_Resolution"	"RIGHT"	"RIGHT"	696.376299999997	1150.0000023	n/a	n/a	n/a	n/a	"True"	n/a	n/a	"2020-01-22 12:37:17.615388"	"2020-01-22 12:37:18.520612"	48	6.07067046666667
"S200122"	"Conflict_Resolution"	"RIGHT"	"RIGHT"	656.789000000003	1083.3333355	n/a	n/a	n/a	n/a	"True"	n/a	n/a	"2020-01-22 12:37:19.623635"	"2020-01-22 12:37:20.487804"	49	6.07067046666667
"S200122"	"Conflict_Resolution"	"RIGHT"	"RIGHT"	543.947000000003	1133.3333356	n/a	n/a	n/a	n/a	"True"	n/a	n/a	"2020-01-22 12:37:21.639973"	"2020-01-22 12:37:22.392248"	50	6.07067046666667
"S200122"	"Conflict_Resolution"	"LEFT"	"LEFT"	518.037499999991	1400.0000028	n/a	n/a	n/a	n/a	"False"	n/a	n/a	"2020-01-22 12:37:23.810282"	"2020-01-22 12:37:24.536560"	51	6.07067046666667
"S200122"	"Conflict_Resolution"	"RIGHT"	"RIGHT"	645.75590000004	533.3333344	n/a	n/a	n/a	n/a	"True"	n/a	n/a	"2020-01-22 12:37:25.090698"	"2020-01-22 12:37:25.944135"	52	6.07067046666667
"S200122"	"Conflict_Resolution"	"LEFT"	"LEFT"	609.17459999996	1100.0000022	n/a	n/a	n/a	n/a	"True"	n/a	n/a	"2020-01-22 12:37:27.063553"	"2020-01-22 12:37:27.880410"	53	6.07067046666667
"S200122"	"Conflict_Resolution"	"LEFT"	"LEFT"	626.378100000011	850.0000017	n/a	n/a	n/a	n/a	"True"	n/a	n/a	"2020-01-22 12:37:28.749413"	"2020-01-22 12:37:29.583939"	54	6.07067046666667
"S200122"	"Conflict_Resolution"	"RIGHT"	"RIGHT"	425.054199999977	900.0000018	n/a	n/a	n/a	n/a	"False"	n/a	n/a	"2020-01-22 12:37:30.502788"	"2020-01-22 12:37:31.135045"	55	6.07067046666667
"S200122"	"Conflict_Resolution"	"RIGHT"	"RIGHT"	641.738400000008	1316.6666693	n/a	n/a	n/a	n/a	"True"	n/a	n/a	"2020-01-22 12:37:32.470518"	"2020-01-22 12:37:33.320252"	56	6.07067046666667
"S200122"	"Conflict_Resolution"	"LEFT"	"LEFT"	647.663200000011	533.3333344	n/a	n/a	n/a	n/a	"True"	n/a	n/a	"2020-01-22 12:37:33.872437"	"2020-01-22 12:37:34.728605"	57	6.07067046666667
"S200122"	"Conflict_Resolution"	"LEFT"	"LEFT"	602.674799999932	1066.6666688	n/a	n/a	n/a	n/a	"True"	n/a	n/a	"2020-01-22 12:37:35.813901"	"2020-01-22 12:37:36.625460"	58	6.07067046666667
"S200122"	"Conflict_Resolution"	"RIGHT"	"RIGHT"	501.833799999986	700.0000014	n/a	n/a	n/a	n/a	"False"	n/a	n/a	"2020-01-22 12:37:37.345826"	"2020-01-22 12:37:38.055684"	59	6.07067046666667
"S200122"	"Conflict_Resolution"	"RIGHT"	"RIGHT"	610.384099999919	1266.6666692	n/a	n/a	n/a	n/a	"True"	n/a	n/a	"2020-01-22 12:37:39.341871"	"2020-01-22 12:37:40.160471"	60	6.07067046666667
"S200122"	"Conflict_Resolution"	"LEFT"	"LEFT"	596.303799999987	683.3333347	n/a	n/a	n/a	n/a	"False"	n/a	n/a	"2020-01-22 12:37:40.867775"	"2020-01-22 12:37:41.673404"	61	6.07067046666667
"S200122"	"Conflict_Resolution"	"RIGHT"	"RIGHT"	422.492899999952	550.0000011	n/a	n/a	n/a	n/a	"False"	n/a	n/a	"2020-01-22 12:37:42.242163"	"2020-01-22 12:37:42.872029"	62	6.07067046666667
"S200122"	"Conflict_Resolution"	"LEFT"	"LEFT"	561.155299999996	916.6666685	n/a	n/a	n/a	n/a	"True"	n/a	n/a	"2020-01-22 12:37:43.807132"	"2020-01-22 12:37:44.576642"	63	6.07067046666667
"S200122"	"Conflict_Resolution"	"LEFT"	"LEFT"	664.74889999995	1300.0000026	n/a	n/a	n/a	n/a	"True"	n/a	n/a	"2020-01-22 12:37:45.895479"	"2020-01-22 12:37:46.767954"	64	6.07067046666667
"S200122"	"Conflict_Resolution"	"RIGHT"	"RIGHT"	608.352699999955	933.3333352	n/a	n/a	n/a	n/a	"True"	n/a	n/a	"2020-01-22 12:37:47.719267"	"2020-01-22 12:37:48.535385"	65	6.07067046666667
"S200122"	"Conflict_Resolution"	"RIGHT"	"RIGHT"	610.538900000051	683.3333347	n/a	n/a	n/a	n/a	"True"	n/a	n/a	"2020-01-22 12:37:49.237538"	"2020-01-22 12:37:50.055943"	66	6.07067046666667
"S200122"	"Conflict_Resolution"	"RIGHT"	"RIGHT"	488.277599999947	1316.6666693	n/a	n/a	n/a	n/a	"False"	n/a	n/a	"2020-01-22 12:37:51.391658"	"2020-01-22 12:37:52.087965"	67	6.07067046666667
"S200122"	"Conflict_Resolution"	"RIGHT"	"RIGHT"	587.862100000052	1033.3333354	n/a	n/a	n/a	n/a	"True"	n/a	n/a	"2020-01-22 12:37:53.140157"	"2020-01-22 12:37:53.936579"	68	6.07067046666667
"S200122"	"Conflict_Resolution"	"LEFT"	"LEFT"	502.410600000076	1350.0000027	n/a	n/a	n/a	n/a	"False"	n/a	n/a	"2020-01-22 12:37:55.305357"	"2020-01-22 12:37:56.016455"	69	6.07067046666667
"S200122"	"Conflict_Resolution"	"LEFT"	"LEFT"	434.501899999987	1250.0000025	n/a	n/a	n/a	n/a	"False"	n/a	n/a	"2020-01-22 12:37:57.285320"	"2020-01-22 12:37:57.927211"	70	6.07067046666667
"S200122"	"Conflict_Resolution"	"LEFT"	"LEFT"	639.969000000065	733.3333348	n/a	n/a	n/a	n/a	"True"	n/a	n/a	"2020-01-22 12:37:58.680425"	"2020-01-22 12:37:59.527842"	71	6.07067046666667
"S200122"	"Conflict_Resolution"	"LEFT"	"LEFT"	513.612800000033	683.3333347	n/a	n/a	n/a	n/a	"True"	n/a	n/a	"2020-01-22 12:38:00.230036"	"2020-01-22 12:38:00.950864"	72	6.07067046666667
"S200122"	"Conflict_Resolution"	"LEFT"	"LEFT"	562.062499999911	900.0000018	n/a	n/a	n/a	n/a	"True"	n/a	n/a	"2020-01-22 12:38:01.870319"	"2020-01-22 12:38:02.638847"	73	6.07067046666667
"S200122"	"Conflict_Resolution"	"RIGHT"	"RIGHT"	550.044400000047	650.0000013	n/a	n/a	n/a	n/a	"False"	n/a	n/a	"2020-01-22 12:38:03.306055"	"2020-01-22 12:38:04.064112"	74	6.07067046666667
"S200122"	"Conflict_Resolution"	"RIGHT"	"RIGHT"	563.247799999999	1433.3333362	n/a	n/a	n/a	n/a	"True"	n/a	n/a	"2020-01-22 12:38:05.517182"	"2020-01-22 12:38:06.288797"	75	6.07067046666667
"S200122"	"Conflict_Resolution"	"RIGHT"	"RIGHT"	629.405399999996	1366.6666694	n/a	n/a	n/a	n/a	"True"	n/a	n/a	"2020-01-22 12:38:07.674384"	"2020-01-22 12:38:08.511717"	76	6.07067046666667
"S200122"	"Conflict_Resolution"	"RIGHT"	"RIGHT"	485.674000000017	600.0000012	n/a	n/a	n/a	n/a	"False"	n/a	n/a	"2020-01-22 12:38:09.130330"	"2020-01-22 12:38:09.824750"	77	6.07067046666667
"S200122"	"Conflict_Resolution"	"RIGHT"	"RIGHT"	788.409300000012	983.3333353	n/a	n/a	n/a	n/a	"False"	n/a	n/a	"2020-01-22 12:38:10.827657"	"2020-01-22 12:38:11.823941"	78	6.07067046666667
"S200122"	"Conflict_Resolution"	"LEFT"	"LEFT"	535.588500000017	1116.6666689	n/a	n/a	n/a	n/a	"True"	n/a	n/a	"2020-01-22 12:38:12.960250"	"2020-01-22 12:38:13.704262"	79	6.07067046666667
"S200122"	"Conflict_Resolution"	"LEFT"	"LEFT"	616.404499999931	1500.000003	n/a	n/a	n/a	n/a	"True"	n/a	n/a	"2020-01-22 12:38:15.223563"	"2020-01-22 12:38:16.048230"	80	6.07067046666667
"S200122"	"Conflict_Resolution"	"RIGHT"	"RIGHT"	574.94220000001	550.0000011	n/a	n/a	n/a	n/a	"True"	n/a	n/a	"2020-01-22 12:38:16.617714"	"2020-01-22 12:38:17.401590"	81	6.07067046666667
"S200122"	"Conflict_Resolution"	"LEFT"	"LEFT"	511.620200000038	1500.000003	n/a	n/a	n/a	n/a	"False"	n/a	n/a	"2020-01-22 12:38:18.921090"	"2020-01-22 12:38:19.640448"	82	6.07067046666667
"S200122"	"Conflict_Resolution"	"LEFT"	"LEFT"	406.527399999959	966.6666686	n/a	n/a	n/a	n/a	"False"	n/a	n/a	"2020-01-22 12:38:20.625593"	"2020-01-22 12:38:21.240508"	83	6.07067046666667
"S200122"	"Conflict_Resolution"	"LEFT"	"LEFT"	580.785400000082	1400.0000028	n/a	n/a	n/a	n/a	"True"	n/a	n/a	"2020-01-22 12:38:22.659544"	"2020-01-22 12:38:23.449447"	84	6.07067046666667
"S200122"	"Conflict_Resolution"	"RIGHT"	"RIGHT"	564.647499999978	1000.000002	n/a	n/a	n/a	n/a	"True"	n/a	n/a	"2020-01-22 12:38:24.467573"	"2020-01-22 12:38:25.239071"	85	6.07067046666667
"S200122"	"Conflict_Resolution"	"LEFT"	"LEFT"	600.292700000068	950.0000019	n/a	n/a	n/a	n/a	"True"	n/a	n/a	"2020-01-22 12:38:26.207914"	"2020-01-22 12:38:27.016777"	86	6.07067046666667
"S200122"	"Conflict_Resolution"	"LEFT"	"LEFT"	485.466499999916	583.3333345	n/a	n/a	n/a	n/a	"False"	n/a	n/a	"2020-01-22 12:38:27.618664"	"2020-01-22 12:38:28.312421"	87	6.07067046666667
"S200122"	"Conflict_Resolution"	"RIGHT"	"RIGHT"	558.016399999929	800.0000016	n/a	n/a	n/a	n/a	"True"	n/a	n/a	"2020-01-22 12:38:29.130041"	"2020-01-22 12:38:29.895088"	88	6.07067046666667
"S200122"	"Conflict_Resolution"	"RIGHT"	"RIGHT"	421.777600000041	833.333335	n/a	n/a	n/a	n/a	"False"	n/a	n/a	"2020-01-22 12:38:30.746166"	"2020-01-22 12:38:31.375589"	89	6.07067046666667
"S200122"	"Conflict_Resolution"	"RIGHT"	"RIGHT"	409.935500000074	733.3333348	n/a	n/a	n/a	n/a	"False"	n/a	n/a	"2020-01-22 12:38:32.126370"	"2020-01-22 12:38:32.744722"	90	6.07067046666667
"S200122"	"Conflict_Resolution"	"LEFT"	"LEFT"	450.097000000028	1466.6666696	n/a	n/a	n/a	n/a	"False"	n/a	n/a	"2020-01-22 12:38:34.229955"	"2020-01-22 12:38:34.888206"	91	6.07067046666667
"S200122"	"Conflict_Resolution"	"RIGHT"	"RIGHT"	521.020399999998	1333.333336	n/a	n/a	n/a	n/a	"False"	n/a	n/a	"2020-01-22 12:38:36.239018"	"2020-01-22 12:38:36.967905"	92	6.07067046666667
"S200122"	"Conflict_Resolution"	"RIGHT"	"RIGHT"	625.961400000051	1100.0000022	n/a	n/a	n/a	n/a	"True"	n/a	n/a	"2020-01-22 12:38:38.087165"	"2020-01-22 12:38:38.920922"	93	6.07067046666667
"S200122"	"Conflict_Resolution"	"RIGHT"	"RIGHT"	452.193599999987	1000.000002	n/a	n/a	n/a	n/a	"False"	n/a	n/a	"2020-01-22 12:38:39.940135"	"2020-01-22 12:38:40.599001"	94	6.07067046666667
"S200122"	"Conflict_Resolution"	"RIGHT"	"RIGHT"	371.418500000004	683.3333347	n/a	n/a	n/a	n/a	"False"	n/a	n/a	"2020-01-22 12:38:41.300820"	"2020-01-22 12:38:41.880219"	95	6.07067046666667
"S200122"	"Conflict_Resolution"	"RIGHT"	"RIGHT"	397.057999999902	1433.3333362	n/a	n/a	n/a	n/a	"False"	n/a	n/a	"2020-01-22 12:38:43.331642"	"2020-01-22 12:38:43.937029"	96	6.07067046666667
"S200122"	"Conflict_Resolution"	"LEFT"	"LEFT"	545.379900000057	1066.6666688	n/a	n/a	n/a	n/a	"False"	n/a	n/a	"2020-01-22 12:38:45.022498"	"2020-01-22 12:38:45.776314"	97	6.07067046666667
"S200122"	"Conflict_Resolution"	"RIGHT"	"RIGHT"	797.687399999973	1383.3333361	n/a	n/a	n/a	n/a	"True"	n/a	n/a	"2020-01-22 12:38:47.178184"	"2020-01-22 12:38:48.184280"	98	6.07067046666667
"S200122"	"Conflict_Resolution"	"LEFT"	"LEFT"	506.245100000001	666.666668	n/a	n/a	n/a	n/a	"False"	n/a	n/a	"2020-01-22 12:38:48.870449"	"2020-01-22 12:38:49.584059"	99	6.07067046666667
"S200122"	"Conflict_Resolution"	"LEFT"	"LEFT"	630.863999999974	1366.6666694	n/a	n/a	n/a	n/a	"False"	n/a	n/a	"2020-01-22 12:38:50.969678"	"2020-01-22 12:38:51.808249"	100	6.07067046666667
"S200122"	"Conflict_Resolution"	"LEFT"	"LEFT"	494.366600000035	566.6666678	n/a	n/a	n/a	n/a	"False"	n/a	n/a	"2020-01-22 12:38:52.393724"	"2020-01-22 12:38:53.095354"	101	6.07067046666667
"S200122"	"Conflict_Resolution"	"LEFT"	"LEFT"	676.964400000088	633.3333346	n/a	n/a	n/a	n/a	"True"	n/a	n/a	"2020-01-22 12:38:53.747360"	"2020-01-22 12:38:54.632469"	102	6.07067046666667
"S200122"	"Conflict_Resolution"	"RIGHT"	"RIGHT"	650.214400000095	850.0000017	n/a	n/a	n/a	n/a	"True"	n/a	n/a	"2020-01-22 12:38:55.501238"	"2020-01-22 12:38:56.358881"	103	6.07067046666667
"S200122"	"Conflict_Resolution"	"LEFT"	"LEFT"	524.070100000017	850.0000017	n/a	n/a	n/a	n/a	"False"	n/a	n/a	"2020-01-22 12:38:57.227942"	"2020-01-22 12:38:57.960370"	104	6.07067046666667
"S200122"	"Conflict_Resolution"	"LEFT"	"LEFT"	582.9647999999	1150.0000023	n/a	n/a	n/a	n/a	"True"	n/a	n/a	"2020-01-22 12:38:59.129869"	"2020-01-22 12:38:59.920042"	105	6.07067046666667
"S200122"	"Conflict_Resolution"	"LEFT"	"LEFT"	577.5900000001	1300.0000026	n/a	n/a	n/a	n/a	"False"	n/a	n/a	"2020-01-22 12:39:01.238843"	"2020-01-22 12:39:02.023912"	106	6.07067046666667
"S200122"	"Conflict_Resolution"	"LEFT"	"LEFT"	493.336600000021	1150.0000023	n/a	n/a	n/a	n/a	"False"	n/a	n/a	"2020-01-22 12:39:03.194663"	"2020-01-22 12:39:03.895816"	107	6.07067046666667
"S200122"	"Conflict_Resolution"	"LEFT"	"LEFT"	410.802399999966	1266.6666692	n/a	n/a	n/a	n/a	"False"	n/a	n/a	"2020-01-22 12:39:05.181366"	"2020-01-22 12:39:05.800267"	108	6.07067046666667
"S200122"	"Conflict_Resolution"	"LEFT"	"LEFT"	792.293900000004	533.3333344	n/a	n/a	n/a	n/a	"False"	n/a	n/a	"2020-01-22 12:39:06.351818"	"2020-01-22 12:39:07.351946"	109	6.07067046666667
"S200122"	"Conflict_Resolution"	"RIGHT"	"RIGHT"	485.930499999995	1183.3333357	n/a	n/a	n/a	n/a	"False"	n/a	n/a	"2020-01-22 12:39:08.556191"	"2020-01-22 12:39:09.250437"	110	6.07067046666667
"S200122"	"Conflict_Resolution"	"LEFT"	"LEFT"	571.349700000155	1366.6666694	n/a	n/a	n/a	n/a	"True"	n/a	n/a	"2020-01-22 12:39:10.637186"	"2020-01-22 12:39:11.415262"	111	6.07067046666667
"S200122"	"Conflict_Resolution"	"LEFT"	"LEFT"	583.129800000052	966.6666686	n/a	n/a	n/a	n/a	"True"	n/a	n/a	"2020-01-22 12:39:12.401436"	"2020-01-22 12:39:13.191080"	112	6.07067046666667
"S200122"	"Conflict_Resolution"	"LEFT"	"LEFT"	401.525400000082	716.6666681	n/a	n/a	n/a	n/a	"False"	n/a	n/a	"2020-01-22 12:39:13.926869"	"2020-01-22 12:39:14.536665"	113	6.07067046666667
"S200122"	"Conflict_Resolution"	"LEFT"	"LEFT"	573.510899999974	1350.0000027	n/a	n/a	n/a	n/a	"True"	n/a	n/a	"2020-01-22 12:39:15.906472"	"2020-01-22 12:39:16.686921"	114	6.07067046666667
"S200122"	"Conflict_Resolution"	"LEFT"	"LEFT"	425.589500000115	1116.6666689	n/a	n/a	n/a	n/a	"False"	n/a	n/a	"2020-01-22 12:39:17.822858"	"2020-01-22 12:39:18.455047"	115	6.07067046666667
"S200122"	"Conflict_Resolution"	"RIGHT"	"RIGHT"	475.596799999948	1466.6666696	n/a	n/a	n/a	n/a	"False"	n/a	n/a	"2020-01-22 12:39:19.940656"	"2020-01-22 12:39:20.624695"	116	6.07067046666667
"S200122"	"Conflict_Resolution"	"RIGHT"	"RIGHT"	744.089600000052	500.000001	n/a	n/a	n/a	n/a	"True"	n/a	n/a	"2020-01-22 12:39:21.143894"	"2020-01-22 12:39:22.095843"	117	6.07067046666667
"S200122"	"Conflict_Resolution"	"RIGHT"	"RIGHT"	619.539000000032	1050.0000021	n/a	n/a	n/a	n/a	"True"	n/a	n/a	"2020-01-22 12:39:23.164536"	"2020-01-22 12:39:23.992687"	118	6.07067046666667
"S200122"	"Conflict_Resolution"	"LEFT"	"LEFT"	569.173000000092	716.6666681	n/a	n/a	n/a	n/a	"True"	n/a	n/a	"2020-01-22 12:39:24.727251"	"2020-01-22 12:39:25.503207"	119	6.07067046666667
"S200122"	"Conflict_Resolution"	"LEFT"	"LEFT"	589.429899999914	1216.6666691	n/a	n/a	n/a	n/a	"True"	n/a	n/a	"2020-01-22 12:39:26.738495"	"2020-01-22 12:39:27.538166"	120	6.07067046666667
"S200122"	"Conflict_Resolution"	"RIGHT"	"RIGHT"	643.943300000046	1216.6666691	n/a	n/a	n/a	n/a	"True"	n/a	n/a	"2020-01-22 12:39:28.773015"	"2020-01-22 12:39:29.624736"	121	6.07067046666667
"S200122"	"Conflict_Resolution"	"LEFT"	"LEFT"	483.946100000139	816.6666683	n/a	n/a	n/a	n/a	"False"	n/a	n/a	"2020-01-22 12:39:30.460619"	"2020-01-22 12:39:31.152328"	122	6.07067046666667
"S200122"	"Conflict_Resolution"	"RIGHT"	"RIGHT"	572.579700000006	1183.3333357	n/a	n/a	n/a	n/a	"True"	n/a	n/a	"2020-01-22 12:39:32.355752"	"2020-01-22 12:39:33.136073"	123	6.07067046666667
"S200122"	"Conflict_Resolution"	"RIGHT"	"RIGHT"	620.070900000201	833.333335	n/a	n/a	n/a	n/a	"True"	n/a	n/a	"2020-01-22 12:39:33.988425"	"2020-01-22 12:39:34.816522"	124	6.07067046666667
"S200122"	"Conflict_Resolution"	"RIGHT"	"RIGHT"	537.260600000081	1483.3333363	n/a	n/a	n/a	n/a	"True"	n/a	n/a	"2020-01-22 12:39:36.318744"	"2020-01-22 12:39:37.063748"	125	6.07067046666667
"S200122"	"Conflict_Resolution"	"LEFT"	"LEFT"	610.107599999992	1266.6666692	n/a	n/a	n/a	n/a	"True"	n/a	n/a	"2020-01-22 12:39:38.349602"	"2020-01-22 12:39:39.167028"	126	6.07067046666667
"S200122"	"Conflict_Resolution"	"RIGHT"	"RIGHT"	467.651999999816	1283.3333359	n/a	n/a	n/a	n/a	"False"	n/a	n/a	"2020-01-22 12:39:40.468878"	"2020-01-22 12:39:41.144749"	127	6.07067046666667
"S200122"	"Conflict_Resolution"	"RIGHT"	"RIGHT"	618.043500000113	633.3333346	n/a	n/a	n/a	n/a	"True"	n/a	n/a	"2020-01-22 12:39:41.799540"	"2020-01-22 12:39:42.625443"	128	6.07067046666667
"S200122"	"Conflict_Resolution"	"RIGHT"	"RIGHT"	577.436000000034	500.000001	n/a	n/a	n/a	n/a	"False"	n/a	n/a	"2020-01-22 12:39:43.142825"	"2020-01-22 12:39:43.928430"	129	6.07067046666667
"S200122"	"Conflict_Resolution"	"LEFT"	"LEFT"	483.038500000021	1450.0000029	n/a	n/a	n/a	n/a	"False"	n/a	n/a	"2020-01-22 12:39:45.396728"	"2020-01-22 12:39:46.087909"	130	6.07067046666667
"S200122"	"Conflict_Resolution"	"LEFT"	"LEFT"	547.152600000118	1450.0000029	n/a	n/a	n/a	n/a	"True"	n/a	n/a	"2020-01-22 12:39:47.556856"	"2020-01-22 12:39:48.312219"	131	6.07067046666667
"S200122"	"Conflict_Resolution"	"LEFT"	"LEFT"	545.31390000011	1466.6666696	n/a	n/a	n/a	n/a	"True"	n/a	n/a	"2020-01-22 12:39:49.798740"	"2020-01-22 12:39:50.551942"	132	6.07067046666667
"S200122"	"Conflict_Resolution"	"RIGHT"	"RIGHT"	724.808499999881	600.0000012	n/a	n/a	n/a	n/a	"True"	n/a	n/a	"2020-01-22 12:39:51.171296"	"2020-01-22 12:39:52.104472"	133	6.07067046666667
"S200122"	"Conflict_Resolution"	"RIGHT"	"RIGHT"	410.551700000042	1266.6666692	n/a	n/a	n/a	n/a	"False"	n/a	n/a	"2020-01-22 12:39:53.390327"	"2020-01-22 12:39:54.007843"	134	6.07067046666667
"S200122"	"Conflict_Resolution"	"RIGHT"	"RIGHT"	601.745700000038	883.3333351	n/a	n/a	n/a	n/a	"True"	n/a	n/a	"2020-01-22 12:39:54.911086"	"2020-01-22 12:39:55.720172"	135	6.07067046666667
"S200122"	"Conflict_Resolution"	"LEFT"	"LEFT"	483.814100000018	633.3333346	n/a	n/a	n/a	n/a	"False"	n/a	n/a	"2020-01-22 12:39:56.372448"	"2020-01-22 12:39:57.064662"	136	6.07067046666667
"S200122"	"Conflict_Resolution"	"LEFT"	"LEFT"	469.839000000093	1166.666669	n/a	n/a	n/a	n/a	"False"	n/a	n/a	"2020-01-22 12:39:58.250535"	"2020-01-22 12:39:58.927891"	137	6.07067046666667
"S200122"	"Conflict_Resolution"	"RIGHT"	"RIGHT"	579.15509999998	1466.6666696	n/a	n/a	n/a	n/a	"True"	n/a	n/a	"2020-01-22 12:40:00.413001"	"2020-01-22 12:40:01.200783"	138	6.07067046666667
"S200122"	"Conflict_Resolution"	"LEFT"	"LEFT"	459.942599999977	1416.6666695	n/a	n/a	n/a	n/a	"False"	n/a	n/a	"2020-01-22 12:40:02.636378"	"2020-01-22 12:40:03.304293"	139	6.07067046666667
"S200122"	"Conflict_Resolution"	"RIGHT"	"RIGHT"	640.597300000081	950.0000019	n/a	n/a	n/a	n/a	"True"	n/a	n/a	"2020-01-22 12:40:04.271431"	"2020-01-22 12:40:05.119846"	140	6.07067046666667
"S200122"	"Conflict_Resolution"	"LEFT"	"LEFT"	411.281300000155	1050.0000021	n/a	n/a	n/a	n/a	"False"	n/a	n/a	"2020-01-22 12:40:06.189202"	"2020-01-22 12:40:06.808364"	141	6.07067046666667
"S200122"	"Conflict_Resolution"	"RIGHT"	"RIGHT"	525.735999999824	1383.3333361	n/a	n/a	n/a	n/a	"False"	n/a	n/a	"2020-01-22 12:40:08.210869"	"2020-01-22 12:40:08.943906"	142	6.07067046666667
"S200122"	"Conflict_Resolution"	"LEFT"	"LEFT"	557.478299999957	1200.0000024	n/a	n/a	n/a	n/a	"True"	n/a	n/a	"2020-01-22 12:40:10.162672"	"2020-01-22 12:40:10.929609"	143	6.07067046666667
"S200122"	"Conflict_Resolution"	"RIGHT"	"RIGHT"	445.118299999876	1233.3333358	n/a	n/a	n/a	n/a	"False"	n/a	n/a	"2020-01-22 12:40:12.180341"	"2020-01-22 12:40:12.833106"	144	6.07067046666667
"S200122"	"Conflict_Resolution"	"LEFT"	"LEFT"	546.000899999854	1050.0000021	n/a	n/a	n/a	n/a	"True"	n/a	n/a	"2020-01-22 12:40:13.902722"	"2020-01-22 12:40:14.657523"	145	6.07067046666667
"S200122"	"Conflict_Resolution"	"RIGHT"	"RIGHT"	653.72820000016	983.3333353	n/a	n/a	n/a	n/a	"True"	n/a	n/a	"2020-01-22 12:40:15.658495"	"2020-01-22 12:40:16.520489"	146	6.07067046666667
"S200122"	"Conflict_Resolution"	"LEFT"	"LEFT"	470.570100000032	950.0000019	n/a	n/a	n/a	n/a	"False"	n/a	n/a	"2020-01-22 12:40:17.489621"	"2020-01-22 12:40:18.168705"	147	6.07067046666667
"S200122"	"Conflict_Resolution"	"LEFT"	"LEFT"	566.012600000022	1166.666669	n/a	n/a	n/a	n/a	"True"	n/a	n/a	"2020-01-22 12:40:19.354841"	"2020-01-22 12:40:20.127909"	148	6.07067046666667
"S200122"	"Conflict_Resolution"	"LEFT"	"LEFT"	522.725499999979	866.6666684	n/a	n/a	n/a	n/a	"True"	n/a	n/a	"2020-01-22 12:40:21.013568"	"2020-01-22 12:40:21.744227"	149	6.07067046666667
"S200122"	"Conflict_Resolution"	"RIGHT"	"RIGHT"	636.041400000067	1233.3333358	n/a	n/a	n/a	n/a	"True"	n/a	n/a	"2020-01-22 12:40:22.995862"	"2020-01-22 12:40:23.839892"	150	6.07067046666667
"S200122"	"Conflict_Resolution"	"LEFT"	"LEFT"	480.677199999946	1316.6666693	n/a	n/a	n/a	n/a	"False"	n/a	n/a	"2020-01-22 12:40:25.175838"	"2020-01-22 12:40:25.863680"	151	6.07067046666667
"S200122"	"Conflict_Resolution"	"RIGHT"	"RIGHT"	550.20350000018	1416.6666695	n/a	n/a	n/a	n/a	"True"	n/a	n/a	"2020-01-22 12:40:27.298073"	"2020-01-22 12:40:28.056333"	152	6.07067046666667
"S200122"	"Conflict_Resolution"	"RIGHT"	"RIGHT"	607.820700000048	733.3333348	n/a	n/a	n/a	n/a	"True"	n/a	n/a	"2020-01-22 12:40:28.809477"	"2020-01-22 12:40:29.627596"	153	6.07067046666667
"S200122"	"Conflict_Resolution"	"RIGHT"	"RIGHT"	414.731400000164	1100.0000022	n/a	n/a	n/a	n/a	"False"	n/a	n/a	"2020-01-22 12:40:30.744964"	"2020-01-22 12:40:31.369159"	154	6.07067046666667
"S200122"	"Conflict_Resolution"	"RIGHT"	"RIGHT"	604.65360000012	583.3333345	n/a	n/a	n/a	n/a	"True"	n/a	n/a	"2020-01-22 12:40:31.971908"	"2020-01-22 12:40:32.784537"	155	6.07067046666667
"S200122"	"Conflict_Resolution"	"LEFT"	"LEFT"	547.353299999941	1416.6666695	n/a	n/a	n/a	n/a	"True"	n/a	n/a	"2020-01-22 12:40:34.220999"	"2020-01-22 12:40:34.976737"	156	6.07067046666667
"S200122"	"Conflict_Resolution"	"RIGHT"	"RIGHT"	531.484600000113	1033.3333354	n/a	n/a	n/a	n/a	"False"	n/a	n/a	"2020-01-22 12:40:36.028583"	"2020-01-22 12:40:36.769474"	157	6.07067046666667
"S200122"	"Conflict_Resolution"	"RIGHT"	"RIGHT"	389.170599999943	1216.6666691	n/a	n/a	n/a	n/a	"False"	n/a	n/a	"2020-01-22 12:40:38.003676"	"2020-01-22 12:40:38.600030"	158	6.07067046666667
"S200122"	"Conflict_Resolution"	"LEFT"	"LEFT"	433.539800000062	916.6666685	n/a	n/a	n/a	n/a	"False"	n/a	n/a	"2020-01-22 12:40:39.535093"	"2020-01-22 12:40:40.175858"	159	6.07067046666667
"S200122"	"Conflict_Resolution"	"RIGHT"	"RIGHT"	399.255400000129	1150.0000023	n/a	n/a	n/a	n/a	"False"	n/a	n/a	"2020-01-22 12:40:41.345700"	"2020-01-22 12:40:41.952232"	160	6.07067046666667
"S200122"	"Processing_Speed"	"LEFT"	"DOWN"	643.222400000013	983.3333353	""	n/a	n/a	n/a	n/a	n/a	n/a	"2020-01-22 12:24:27.243883"	"2020-01-22 12:24:28.107465"	1	1.98603528333333
"S200122"	"Processing_Speed"	"LEFT"	"DOWN"	353.386300000011	666.666668	"DOWN"	-395.462	n/a	n/a	n/a	n/a	n/a	"2020-01-22 12:24:28.782729"	"2020-01-22 12:24:29.342943"	2	1.98603528333333
"S200122"	"Processing_Speed"	"LEFT"	"DOWN"	351.1211	1400.0000028	""	n/a	n/a	n/a	n/a	n/a	n/a	"2020-01-22 12:24:30.752012"	"2020-01-22 12:24:31.311492"	3	1.98603528333333
"S200122"	"Processing_Speed"	"RIGHT"	"DOWN"	409.309100000002	1150.0000023	""	n/a	n/a	n/a	n/a	n/a	n/a	"2020-01-22 12:24:32.469503"	"2020-01-22 12:24:33.086896"	4	1.98603528333333
"S200122"	"Processing_Speed"	"RIGHT"	"DOWN"	511.574700000011	1400.0000028	""	n/a	n/a	n/a	n/a	n/a	n/a	"2020-01-22 12:24:34.495766"	"2020-01-22 12:24:35.215500"	5	1.98603528333333
"S200122"	"Processing_Speed"	"RIGHT"	"DOWN"	370.457499999986	1116.6666689	""	n/a	n/a	n/a	n/a	n/a	n/a	"2020-01-22 12:24:36.340358"	"2020-01-22 12:24:36.919797"	6	1.98603528333333
"S200122"	"Processing_Speed"	"RIGHT"	"DOWN"	362.782100000004	500.000001	""	n/a	n/a	n/a	n/a	n/a	n/a	"2020-01-22 12:24:37.428251"	"2020-01-22 12:24:37.999615"	7	1.98603528333333
"S200122"	"Processing_Speed"	"LEFT"	"DOWN"	380.115599999982	883.3333351	""	n/a	n/a	n/a	n/a	n/a	n/a	"2020-01-22 12:24:38.891030"	"2020-01-22 12:24:39.478022"	8	1.98603528333333
"S200122"	"Processing_Speed"	"LEFT"	"DOWN"	406.107300000002	1466.6666696	""	n/a	n/a	n/a	n/a	n/a	n/a	"2020-01-22 12:24:40.952849"	"2020-01-22 12:24:41.566475"	9	1.98603528333333
"S200122"	"Processing_Speed"	"RIGHT"	"DOWN"	353.69750000001	1366.6666694	""	n/a	n/a	n/a	n/a	n/a	n/a	"2020-01-22 12:24:42.941719"	"2020-01-22 12:24:43.503058"	10	1.98603528333333
"S200122"	"Processing_Speed"	"RIGHT"	"DOWN"	321.886700000022	950.0000019	""	n/a	n/a	n/a	n/a	n/a	n/a	"2020-01-22 12:24:44.461704"	"2020-01-22 12:24:44.990301"	11	1.98603528333333
"S200122"	"Processing_Speed"	"RIGHT"	"DOWN"	320.766800000001	600.0000012	""	n/a	n/a	n/a	n/a	n/a	n/a	"2020-01-22 12:24:45.598764"	"2020-01-22 12:24:46.127087"	12	1.98603528333333
"S200122"	"Processing_Speed"	"LEFT"	"DOWN"	333.419099999986	1050.0000021	""	n/a	n/a	n/a	n/a	n/a	n/a	"2020-01-22 12:24:47.185623"	"2020-01-22 12:24:47.726256"	13	1.98603528333333
"S200122"	"Processing_Speed"	"LEFT"	"DOWN"	311.846900000006	1016.6666687	""	n/a	n/a	n/a	n/a	n/a	n/a	"2020-01-22 12:24:48.751243"	"2020-01-22 12:24:49.270743"	14	1.98603528333333
"S200122"	"Processing_Speed"	"RIGHT"	"DOWN"	256.385300000005	1183.3333357	""	n/a	n/a	n/a	n/a	n/a	n/a	"2020-01-22 12:24:50.462633"	"2020-01-22 12:24:50.927100"	15	1.98603528333333
"S200122"	"Processing_Speed"	"LEFT"	"DOWN"	259.623100000027	1500.000003	""	n/a	n/a	n/a	n/a	n/a	n/a	"2020-01-22 12:24:52.435573"	"2020-01-22 12:24:52.902082"	16	1.98603528333333
"S200122"	"Processing_Speed"	"RIGHT"	"DOWN"	350.436599999995	1266.6666692	""	n/a	n/a	n/a	n/a	n/a	n/a	"2020-01-22 12:24:54.177040"	"2020-01-22 12:24:54.735394"	17	1.98603528333333
"S200122"	"Processing_Speed"	"LEFT"	"DOWN"	672.615800000017	1366.6666694	""	n/a	n/a	n/a	n/a	n/a	n/a	"2020-01-22 12:24:56.110545"	"2020-01-22 12:24:56.991008"	18	1.98603528333333
"S200122"	"Processing_Speed"	"LEFT"	"DOWN"	398.79959999999	633.3333346	""	n/a	n/a	n/a	n/a	n/a	n/a	"2020-01-22 12:24:57.632304"	"2020-01-22 12:24:58.238849"	19	1.98603528333333
"S200122"	"Processing_Speed"	"RIGHT"	"DOWN"	343.263400000012	816.6666683	""	n/a	n/a	n/a	n/a	n/a	n/a	"2020-01-22 12:24:59.063991"	"2020-01-22 12:24:59.615524"	20	1.98603528333333
"S200122"	"Processing_Speed"	"RIGHT"	"DOWN"	307.176999999996	700.0000014	""	n/a	n/a	n/a	n/a	n/a	n/a	"2020-01-22 12:25:00.323855"	"2020-01-22 12:25:00.838162"	21	1.98603528333333
"S200122"	"Processing_Speed"	"RIGHT"	"DOWN"	331.54780000001	733.3333348	""	n/a	n/a	n/a	n/a	n/a	n/a	"2020-01-22 12:25:01.579993"	"2020-01-22 12:25:02.119243"	22	1.98603528333333
"S200122"	"Processing_Speed"	"LEFT"	"DOWN"	658.928299999985	1116.6666689	""	n/a	n/a	n/a	n/a	n/a	n/a	"2020-01-22 12:25:03.243754"	"2020-01-22 12:25:04.111508"	23	1.98603528333333
"S200122"	"Processing_Speed"	"LEFT"	"DOWN"	331.476600000002	1300.0000026	""	n/a	n/a	n/a	n/a	n/a	n/a	"2020-01-22 12:25:05.419586"	"2020-01-22 12:25:05.959238"	24	1.98603528333333
"S200122"	"Processing_Speed"	"LEFT"	"DOWN"	362.304300000005	533.3333344	""	n/a	n/a	n/a	n/a	n/a	n/a	"2020-01-22 12:25:06.500964"	"2020-01-22 12:25:07.071484"	25	1.98603528333333
"S200122"	"Processing_Speed"	"RIGHT"	"DOWN"	390.736200000021	1016.6666687	""	n/a	n/a	n/a	n/a	n/a	n/a	"2020-01-22 12:25:08.096535"	"2020-01-22 12:25:08.695052"	26	1.98603528333333
"S200122"	"Processing_Speed"	"RIGHT"	"DOWN"	278.040000000004	633.3333346	""	n/a	n/a	n/a	n/a	n/a	n/a	"2020-01-22 12:25:09.337308"	"2020-01-22 12:25:09.822126"	27	1.98603528333333
"S200122"	"Processing_Speed"	"RIGHT"	"DOWN"	396.613000000002	1500.000003	""	n/a	n/a	n/a	n/a	n/a	n/a	"2020-01-22 12:25:11.330977"	"2020-01-22 12:25:11.934064"	28	1.98603528333333
"S200122"	"Processing_Speed"	"LEFT"	"DOWN"	281.87699999998	1150.0000023	""	n/a	n/a	n/a	n/a	n/a	n/a	"2020-01-22 12:25:13.093058"	"2020-01-22 12:25:13.584079"	29	1.98603528333333
"S200122"	"Processing_Speed"	"LEFT"	"DOWN"	307.245699999982	1083.3333355	""	n/a	n/a	n/a	n/a	n/a	n/a	"2020-01-22 12:25:14.676053"	"2020-01-22 12:25:15.190456"	30	1.98603528333333
"S200122"	"Processing_Speed"	"RIGHT"	"DOWN"	306.237900000013	566.6666678	""	n/a	n/a	n/a	n/a	n/a	n/a	"2020-01-22 12:25:15.765504"	"2020-01-22 12:25:16.279813"	31	1.98603528333333
"S200122"	"Processing_Speed"	"LEFT"	"DOWN"	352.860299999975	950.0000019	""	n/a	n/a	n/a	n/a	n/a	n/a	"2020-01-22 12:25:17.238335"	"2020-01-22 12:25:17.799141"	32	1.98603528333333
"S200122"	"Processing_Speed"	"RIGHT"	"DOWN"	284.080200000005	883.3333351	""	n/a	n/a	n/a	n/a	n/a	n/a	"2020-01-22 12:25:18.691248"	"2020-01-22 12:25:19.183001"	33	1.98603528333333
"S200122"	"Processing_Speed"	"RIGHT"	"DOWN"	318.017799999978	1433.3333362	""	n/a	n/a	n/a	n/a	n/a	n/a	"2020-01-22 12:25:20.624950"	"2020-01-22 12:25:21.151278"	34	1.98603528333333
"S200122"	"Processing_Speed"	"LEFT"	"DOWN"	271.823600000005	600.0000012	""	n/a	n/a	n/a	n/a	n/a	n/a	"2020-01-22 12:25:21.759653"	"2020-01-22 12:25:22.238542"	35	1.98603528333333
"S200122"	"Processing_Speed"	"RIGHT"	"DOWN"	333.079400000003	1083.3333355	""	n/a	n/a	n/a	n/a	n/a	n/a	"2020-01-22 12:25:23.330616"	"2020-01-22 12:25:23.871052"	36	1.98603528333333
"S200122"	"Processing_Speed"	"RIGHT"	"DOWN"	328.682999999984	983.3333353	""	n/a	n/a	n/a	n/a	n/a	n/a	"2020-01-22 12:25:24.862917"	"2020-01-22 12:25:25.399595"	37	1.98603528333333
"S200122"	"Processing_Speed"	"LEFT"	"DOWN"	323.230600000016	700.0000014	""	n/a	n/a	n/a	n/a	n/a	n/a	"2020-01-22 12:25:26.107916"	"2020-01-22 12:25:26.639810"	38	1.98603528333333
"S200122"	"Processing_Speed"	"RIGHT"	"DOWN"	292.415799999986	666.666668	""	n/a	n/a	n/a	n/a	n/a	n/a	"2020-01-22 12:25:27.315009"	"2020-01-22 12:25:27.814113"	39	1.98603528333333
"S200122"	"Processing_Speed"	"RIGHT"	"DOWN"	370.995900000025	1333.333336	""	n/a	n/a	n/a	n/a	n/a	n/a	"2020-01-22 12:25:29.156459"	"2020-01-22 12:25:29.734207"	40	1.98603528333333
"S200122"	"Processing_Speed"	"RIGHT"	"DOWN"	302.376899999985	1050.0000021	""	n/a	n/a	n/a	n/a	n/a	n/a	"2020-01-22 12:25:30.793090"	"2020-01-22 12:25:31.303289"	41	1.98603528333333
"S200122"	"Processing_Speed"	"RIGHT"	"DOWN"	298.41140000002	916.6666685	""	n/a	n/a	n/a	n/a	n/a	n/a	"2020-01-22 12:25:32.228416"	"2020-01-22 12:25:32.735095"	42	1.98603528333333
"S200122"	"Processing_Speed"	"LEFT"	"DOWN"	289.112100000011	566.6666678	""	n/a	n/a	n/a	n/a	n/a	n/a	"2020-01-22 12:25:33.309797"	"2020-01-22 12:25:33.807712"	43	1.98603528333333
"S200122"	"Processing_Speed"	"LEFT"	"DOWN"	340.191799999985	1266.6666692	""	n/a	n/a	n/a	n/a	n/a	n/a	"2020-01-22 12:25:35.083157"	"2020-01-22 12:25:35.631337"	44	1.98603528333333
"S200122"	"Processing_Speed"	"LEFT"	"DOWN"	358.865900000012	1216.6666691	""	n/a	n/a	n/a	n/a	n/a	n/a	"2020-01-22 12:25:36.856350"	"2020-01-22 12:25:37.422271"	45	1.98603528333333
"S200122"	"Processing_Speed"	"RIGHT"	"DOWN"	328.155400000014	1216.6666691	""	n/a	n/a	n/a	n/a	n/a	n/a	"2020-01-22 12:25:38.647396"	"2020-01-22 12:25:39.182917"	46	1.98603528333333
"S200122"	"Processing_Speed"	"LEFT"	"DOWN"	307.038900000009	916.6666685	""	n/a	n/a	n/a	n/a	n/a	n/a	"2020-01-22 12:25:40.107936"	"2020-01-22 12:25:40.623008"	47	1.98603528333333
"S200122"	"Processing_Speed"	"LEFT"	"DOWN"	354.09439999998	733.3333348	""	n/a	n/a	n/a	n/a	n/a	n/a	"2020-01-22 12:25:41.365654"	"2020-01-22 12:25:41.927767"	48	1.98603528333333
"S200122"	"Processing_Speed"	"LEFT"	"DOWN"	311.722599999996	783.3333349	""	n/a	n/a	n/a	n/a	n/a	n/a	"2020-01-22 12:25:42.719948"	"2020-01-22 12:25:43.238134"	49	1.98603528333333
"S200122"	"Processing_Speed"	"RIGHT"	"DOWN"	301.921599999986	1466.6666696	""	n/a	n/a	n/a	n/a	n/a	n/a	"2020-01-22 12:25:44.712924"	"2020-01-22 12:25:45.223801"	50	1.98603528333333
"S200122"	"Processing_Speed"	"LEFT"	"DOWN"	348.372300000023	1433.3333362	""	n/a	n/a	n/a	n/a	n/a	n/a	"2020-01-22 12:25:46.666969"	"2020-01-22 12:25:47.222237"	51	1.98603528333333
"S200122"	"Processing_Speed"	"LEFT"	"DOWN"	374.684300000013	850.0000017	""	n/a	n/a	n/a	n/a	n/a	n/a	"2020-01-22 12:25:48.080665"	"2020-01-22 12:25:48.663652"	52	1.98603528333333
"S200122"	"Processing_Speed"	"RIGHT"	"DOWN"	256.069299999979	783.3333349	""	n/a	n/a	n/a	n/a	n/a	n/a	"2020-01-22 12:25:49.455510"	"2020-01-22 12:25:49.918843"	53	1.98603528333333
"S200122"	"Processing_Speed"	"LEFT"	"DOWN"	295.234899999997	816.6666683	""	n/a	n/a	n/a	n/a	n/a	n/a	"2020-01-22 12:25:50.744238"	"2020-01-22 12:25:51.246971"	54	1.98603528333333
"S200122"	"Processing_Speed"	"RIGHT"	"DOWN"	313.313499999992	533.3333344	""	n/a	n/a	n/a	n/a	n/a	n/a	"2020-01-22 12:25:51.789521"	"2020-01-22 12:25:52.309890"	55	1.98603528333333
"S200122"	"Processing_Speed"	"RIGHT"	"DOWN"	303.024800000003	850.0000017	""	n/a	n/a	n/a	n/a	n/a	n/a	"2020-01-22 12:25:53.168774"	"2020-01-22 12:25:53.679820"	56	1.98603528333333
"S200122"	"Processing_Speed"	"RIGHT"	"DOWN"	363.136200000014	1300.0000026	""	n/a	n/a	n/a	n/a	n/a	n/a	"2020-01-22 12:25:54.988457"	"2020-01-22 12:25:55.558918"	57	1.98603528333333
"S200122"	"Processing_Speed"	"LEFT"	"DOWN"	299.8379	500.000001	""	n/a	n/a	n/a	n/a	n/a	n/a	"2020-01-22 12:25:56.067193"	"2020-01-22 12:25:56.575393"	58	1.98603528333333
"S200122"	"Processing_Speed"	"LEFT"	"DOWN"	329.669800000005	1333.333336	""	n/a	n/a	n/a	n/a	n/a	n/a	"2020-01-22 12:25:57.917030"	"2020-01-22 12:25:58.455394"	59	1.98603528333333
"S200122"	"Processing_Speed"	"LEFT"	"DOWN"	303.780500000016	1183.3333357	""	n/a	n/a	n/a	n/a	n/a	n/a	"2020-01-22 12:25:59.647614"	"2020-01-22 12:26:00.159497"	60	1.98603528333333
"S200122"	"Response_Inhibition"	"LEFT"	"LEFT"	639.610500000003	1100.0000022	n/a	n/a	n/a	n/a	n/a	n/a	n/a	"2020-01-22 12:29:08.735886"	"2020-01-22 12:29:09.583782"	1	6.0234875
"S200122"	"Response_Inhibition"	"RIGHT"	"RIGHT"	362.846499999989	900.0000018	n/a	n/a	n/a	n/a	n/a	n/a	n/a	"2020-01-22 12:29:10.492372"	"2020-01-22 12:29:11.062858"	2	6.0234875
"S200122"	"Response_Inhibition"	"LEFT"	"LEFT"	352.234799999962	600.0000012	n/a	n/a	n/a	n/a	n/a	n/a	n/a	"2020-01-22 12:29:11.670865"	"2020-01-22 12:29:12.231401"	3	6.0234875
"S200122"	"Response_Inhibition"	"RIGHT"	"RIGHT"	331.779900000015	700.0000014	n/a	n/a	n/a	n/a	n/a	n/a	n/a	"2020-01-22 12:29:12.939911"	"2020-01-22 12:29:13.479527"	4	6.0234875
"S200122"	"Response_Inhibition"	"RIGHT"	"RIGHT"	385.853599999962	1133.3333356	n/a	n/a	n/a	n/a	n/a	n/a	n/a	"2020-01-22 12:29:14.621931"	"2020-01-22 12:29:15.215692"	5	6.0234875
"S200122"	"Response_Inhibition"	"RIGHT"	"RIGHT"	388.975500000015	1266.6666692	n/a	n/a	n/a	n/a	n/a	n/a	n/a	"2020-01-22 12:29:16.490894"	"2020-01-22 12:29:17.088403"	6	6.0234875
"S200122"	"Response_Inhibition"	"RIGHT"	"Time_Max_Exceeded"	1500.04956690002	1333.333336	n/a	n/a	n/a	n/a	n/a	n/a	n/a	"2020-01-22 12:29:18.430423"	"2020-01-22 12:29:19.933687"	7	6.0234875
"S200122"	"Response_Inhibition"	"RIGHT"	"Time_Max_Exceeded"	1500.04983350001	533.3333344	n/a	n/a	n/a	n/a	n/a	n/a	n/a	"2020-01-22 12:29:20.475897"	"2020-01-22 12:29:21.979397"	8	6.0234875
"S200122"	"Response_Inhibition"	"RIGHT"	"RIGHT"	526.374299999986	1300.0000026	n/a	n/a	n/a	n/a	n/a	n/a	n/a	"2020-01-22 12:29:23.289325"	"2020-01-22 12:29:24.022071"	9	6.0234875
"S200122"	"Response_Inhibition"	"RIGHT"	"RIGHT"	414.657533600029	583.3333345	n/a	n/a	n/a	n/a	n/a	n/a	n/a	"2020-01-22 12:29:24.613480"	"2020-01-22 12:29:25.240668"	10	6.0234875
"S200122"	"Response_Inhibition"	"LEFT"	"Time_Max_Exceeded"	1500.04856699995	1250.0000025	n/a	n/a	n/a	n/a	n/a	n/a	n/a	"2020-01-22 12:29:26.499377"	"2020-01-22 12:29:28.002585"	11	6.0234875
"S200122"	"Response_Inhibition"	"RIGHT"	"RIGHT"	569.859199999996	650.0000013	n/a	n/a	n/a	n/a	n/a	n/a	n/a	"2020-01-22 12:29:28.661822"	"2020-01-22 12:29:29.439300"	12	6.0234875
"S200122"	"Response_Inhibition"	"RIGHT"	"RIGHT"	358.805500000017	1016.6666687	n/a	n/a	n/a	n/a	n/a	n/a	n/a	"2020-01-22 12:29:30.464555"	"2020-01-22 12:29:31.031318"	13	6.0234875
"S200122"	"Response_Inhibition"	"RIGHT"	"RIGHT"	423.808099999974	766.6666682	n/a	n/a	n/a	n/a	n/a	n/a	n/a	"2020-01-22 12:29:31.807682"	"2020-01-22 12:29:32.439508"	14	6.0234875
"S200122"	"Response_Inhibition"	"RIGHT"	"RIGHT"	643.701899999996	1500.000003	n/a	n/a	n/a	n/a	n/a	n/a	n/a	"2020-01-22 12:29:33.947469"	"2020-01-22 12:29:34.798922"	15	6.0234875
"S200122"	"Response_Inhibition"	"LEFT"	"LEFT"	410.754233800016	1050.0000021	n/a	n/a	n/a	n/a	n/a	n/a	n/a	"2020-01-22 12:29:35.857714"	"2020-01-22 12:29:36.479032"	16	6.0234875
"S200122"	"Response_Inhibition"	"LEFT"	"LEFT"	514.159900000038	1366.6666694	n/a	n/a	n/a	n/a	n/a	n/a	n/a	"2020-01-22 12:29:37.854117"	"2020-01-22 12:29:38.576420"	17	6.0234875
"S200122"	"Response_Inhibition"	"RIGHT"	"RIGHT"	405.590099999984	1233.3333358	n/a	n/a	n/a	n/a	n/a	n/a	n/a	"2020-01-22 12:29:39.817963"	"2020-01-22 12:29:40.430897"	18	6.0234875
"S200122"	"Response_Inhibition"	"LEFT"	"Time_Max_Exceeded"	1500.04643399998	583.3333345	n/a	n/a	n/a	n/a	n/a	n/a	n/a	"2020-01-22 12:29:41.022761"	"2020-01-22 12:29:42.525954"	19	6.0234875
"S200122"	"Response_Inhibition"	"RIGHT"	"RIGHT"	365.40020000001	866.6666684	n/a	n/a	n/a	n/a	n/a	n/a	n/a	"2020-01-22 12:29:43.401540"	"2020-01-22 12:29:43.975110"	20	6.0234875
"S200122"	"Response_Inhibition"	"LEFT"	"LEFT"	440.525900000011	783.3333349	n/a	n/a	n/a	n/a	n/a	n/a	n/a	"2020-01-22 12:29:44.767212"	"2020-01-22 12:29:45.415030"	21	6.0234875
"S200122"	"Response_Inhibition"	"RIGHT"	"RIGHT"	385.222800000008	950.0000019	n/a	n/a	n/a	n/a	n/a	n/a	n/a	"2020-01-22 12:29:46.374758"	"2020-01-22 12:29:46.968582"	22	6.0234875
"S200122"	"Response_Inhibition"	"LEFT"	"LEFT"	660.4016	1450.0000029	n/a	n/a	n/a	n/a	n/a	n/a	n/a	"2020-01-22 12:29:48.426722"	"2020-01-22 12:29:49.295537"	23	6.0234875
"S200122"	"Response_Inhibition"	"RIGHT"	"Time_Max_Exceeded"	1500.04826680002	1116.6666689	n/a	n/a	n/a	n/a	n/a	n/a	n/a	"2020-01-22 12:29:50.420360"	"2020-01-22 12:29:51.923500"	24	6.0234875
"S200122"	"Response_Inhibition"	"LEFT"	"Time_Max_Exceeded"	1500.09399999999	500.000001	n/a	n/a	n/a	n/a	n/a	n/a	n/a	"2020-01-22 12:29:52.432917"	"2020-01-22 12:29:53.932679"	25	6.0234875
"S200122"	"Response_Inhibition"	"RIGHT"	"RIGHT"	512.594100000001	833.333335	n/a	n/a	n/a	n/a	n/a	n/a	n/a	"2020-01-22 12:29:54.775008"	"2020-01-22 12:29:55.495193"	26	6.0234875
"S200122"	"Response_Inhibition"	"LEFT"	"LEFT"	703.230399999995	1216.6666691	n/a	n/a	n/a	n/a	n/a	n/a	n/a	"2020-01-22 12:29:56.720275"	"2020-01-22 12:29:57.630861"	27	6.0234875
"S200122"	"Response_Inhibition"	"LEFT"	"LEFT"	847.173999999995	833.333335	n/a	n/a	n/a	n/a	n/a	n/a	n/a	"2020-01-22 12:29:58.472241"	"2020-01-22 12:29:59.527020"	28	6.0234875
"S200122"	"Response_Inhibition"	"LEFT"	"LEFT"	964.650199999994	1483.3333363	n/a	n/a	n/a	n/a	n/a	n/a	n/a	"2020-01-22 12:30:01.019128"	"2020-01-22 12:30:02.191493"	29	6.0234875
"S200122"	"Response_Inhibition"	"LEFT"	"LEFT"	960.240199999987	983.3333353	n/a	n/a	n/a	n/a	n/a	n/a	n/a	"2020-01-22 12:30:03.182839"	"2020-01-22 12:30:04.351299"	30	6.0234875
"S200122"	"Response_Inhibition"	"RIGHT"	"RIGHT"	920.610100000033	566.6666678	n/a	n/a	n/a	n/a	n/a	n/a	n/a	"2020-01-22 12:30:04.927425"	"2020-01-22 12:30:06.054866"	31	6.0234875
"S200122"	"Response_Inhibition"	"RIGHT"	"Time_Max_Exceeded"	1500.05326730001	716.6666681	n/a	n/a	n/a	n/a	n/a	n/a	n/a	"2020-01-22 12:30:06.780143"	"2020-01-22 12:30:08.283796"	32	6.0234875
"S200122"	"Response_Inhibition"	"RIGHT"	"RIGHT"	664.093199999968	1483.3333363	n/a	n/a	n/a	n/a	n/a	n/a	n/a	"2020-01-22 12:30:09.775157"	"2020-01-22 12:30:10.646881"	33	6.0234875
"S200122"	"Response_Inhibition"	"LEFT"	"LEFT"	1027.21909999997	733.3333348	n/a	n/a	n/a	n/a	n/a	n/a	n/a	"2020-01-22 12:30:11.388606"	"2020-01-22 12:30:12.624318"	34	6.0234875
"S200122"	"Response_Inhibition"	"LEFT"	"LEFT"	764.512799999977	633.3333346	n/a	n/a	n/a	n/a	n/a	n/a	n/a	"2020-01-22 12:30:13.267413"	"2020-01-22 12:30:14.239221"	35	6.0234875
"S200122"	"Response_Inhibition"	"LEFT"	"LEFT"	774.13580000001	1016.6666687	n/a	n/a	n/a	n/a	n/a	n/a	n/a	"2020-01-22 12:30:15.265244"	"2020-01-22 12:30:16.248554"	36	6.0234875
"S200122"	"Response_Inhibition"	"RIGHT"	"RIGHT"	742.741800000033	1183.3333357	n/a	n/a	n/a	n/a	n/a	n/a	n/a	"2020-01-22 12:30:17.441059"	"2020-01-22 12:30:18.392540"	37	6.0234875
"S200122"	"Response_Inhibition"	"RIGHT"	"RIGHT"	915.521100000035	1283.3333359	n/a	n/a	n/a	n/a	n/a	n/a	n/a	"2020-01-22 12:30:19.684476"	"2020-01-22 12:30:20.807712"	38	6.0234875
"S200122"	"Response_Inhibition"	"LEFT"	"LEFT"	992.932900000028	1166.666669	n/a	n/a	n/a	n/a	n/a	n/a	n/a	"2020-01-22 12:30:21.983019"	"2020-01-22 12:30:23.183640"	39	6.0234875
"S200122"	"Response_Inhibition"	"LEFT"	"LEFT"	830.23060000005	1433.3333362	n/a	n/a	n/a	n/a	n/a	n/a	n/a	"2020-01-22 12:30:24.625764"	"2020-01-22 12:30:25.664619"	40	6.0234875
"S200122"	"Response_Inhibition"	"LEFT"	"LEFT"	819.46640000001	1066.6666688	n/a	n/a	n/a	n/a	n/a	n/a	n/a	"2020-01-22 12:30:26.739574"	"2020-01-22 12:30:27.767203"	41	6.0234875
"S200122"	"Response_Inhibition"	"LEFT"	"Time_Max_Exceeded"	1500.07416710007	916.6666685	n/a	n/a	n/a	n/a	n/a	n/a	n/a	"2020-01-22 12:30:28.691909"	"2020-01-22 12:30:30.195703"	42	6.0234875
"S200122"	"Response_Inhibition"	"RIGHT"	"RIGHT"	647.003199999972	683.3333347	n/a	n/a	n/a	n/a	n/a	n/a	n/a	"2020-01-22 12:30:30.888222"	"2020-01-22 12:30:31.744542"	43	6.0234875
"S200122"	"Response_Inhibition"	"RIGHT"	"RIGHT"	806.816400000002	783.3333349	n/a	n/a	n/a	n/a	n/a	n/a	n/a	"2020-01-22 12:30:32.536427"	"2020-01-22 12:30:33.551215"	44	6.0234875
"S200122"	"Response_Inhibition"	"LEFT"	"LEFT"	863.899800000013	800.0000016	n/a	n/a	n/a	n/a	n/a	n/a	n/a	"2020-01-22 12:30:34.359297"	"2020-01-22 12:30:35.431378"	45	6.0234875
"S200122"	"Response_Inhibition"	"RIGHT"	"Time_Max_Exceeded"	1500.05856720002	533.3333344	n/a	n/a	n/a	n/a	n/a	n/a	n/a	"2020-01-22 12:30:35.973241"	"2020-01-22 12:30:37.476233"	46	6.0234875
"S200122"	"Response_Inhibition"	"LEFT"	"LEFT"	833.699600000045	616.6666679	n/a	n/a	n/a	n/a	n/a	n/a	n/a	"2020-01-22 12:30:38.102150"	"2020-01-22 12:30:39.143330"	47	6.0234875
"S200122"	"Response_Inhibition"	"LEFT"	"Time_Max_Exceeded"	1500.0497003	1033.3333354	n/a	n/a	n/a	n/a	n/a	n/a	n/a	"2020-01-22 12:30:40.185024"	"2020-01-22 12:30:41.688616"	48	6.0234875
"S200122"	"Response_Inhibition"	"LEFT"	"LEFT"	833.459199999993	533.3333344	n/a	n/a	n/a	n/a	n/a	n/a	n/a	"2020-01-22 12:30:42.230413"	"2020-01-22 12:30:43.271297"	49	6.0234875
"S200122"	"Response_Inhibition"	"RIGHT"	"Time_Max_Exceeded"	1500.05400040005	1466.6666696	n/a	n/a	n/a	n/a	n/a	n/a	n/a	"2020-01-22 12:30:44.746093"	"2020-01-22 12:30:46.249176"	50	6.0234875
"S200122"	"Response_Inhibition"	"RIGHT"	"Time_Max_Exceeded"	1500.04936719999	783.3333349	n/a	n/a	n/a	n/a	n/a	n/a	n/a	"2020-01-22 12:30:47.041861"	"2020-01-22 12:30:48.545626"	51	6.0234875
"S200122"	"Response_Inhibition"	"RIGHT"	"RIGHT"	872.278999999935	933.3333352	n/a	n/a	n/a	n/a	n/a	n/a	n/a	"2020-01-22 12:30:49.487121"	"2020-01-22 12:30:50.568454"	52	6.0234875
"S200122"	"Response_Inhibition"	"LEFT"	"Time_Max_Exceeded"	1500.06010009997	850.0000017	n/a	n/a	n/a	n/a	n/a	n/a	n/a	"2020-01-22 12:30:51.427439"	"2020-01-22 12:30:52.930691"	53	6.0234875
"S200122"	"Response_Inhibition"	"RIGHT"	"RIGHT"	820.391500000028	1366.6666694	n/a	n/a	n/a	n/a	n/a	n/a	n/a	"2020-01-22 12:30:54.307382"	"2020-01-22 12:30:55.336362"	54	6.0234875
"S200122"	"Response_Inhibition"	"RIGHT"	"RIGHT"	791.462000000024	583.3333345	n/a	n/a	n/a	n/a	n/a	n/a	n/a	"2020-01-22 12:30:55.927899"	"2020-01-22 12:30:56.927229"	55	6.0234875
"S200122"	"Response_Inhibition"	"RIGHT"	"RIGHT"	713.610099999983	1166.666669	n/a	n/a	n/a	n/a	n/a	n/a	n/a	"2020-01-22 12:30:58.102431"	"2020-01-22 12:30:59.024356"	56	6.0234875
"S200122"	"Response_Inhibition"	"LEFT"	"LEFT"	802.953900000034	1500.000003	n/a	n/a	n/a	n/a	n/a	n/a	n/a	"2020-01-22 12:31:00.532432"	"2020-01-22 12:31:01.544109"	57	6.0234875
"S200122"	"Response_Inhibition"	"LEFT"	"LEFT"	755.635799999936	1283.3333359	n/a	n/a	n/a	n/a	n/a	n/a	n/a	"2020-01-22 12:31:02.835652"	"2020-01-22 12:31:03.799615"	58	6.0234875
"S200122"	"Response_Inhibition"	"LEFT"	"LEFT"	639.355499999965	1216.6666691	n/a	n/a	n/a	n/a	n/a	n/a	n/a	"2020-01-22 12:31:05.024262"	"2020-01-22 12:31:05.871850"	59	6.0234875
"S200122"	"Response_Inhibition"	"RIGHT"	"RIGHT"	1017.78330000002	733.3333348	n/a	n/a	n/a	n/a	n/a	n/a	n/a	"2020-01-22 12:31:06.614116"	"2020-01-22 12:31:07.838977"	60	6.0234875
"S200122"	"Response_Inhibition"	"LEFT"	"Time_Max_Exceeded"	1500.09226690001	1300.0000026	n/a	n/a	n/a	n/a	n/a	n/a	n/a	"2020-01-22 12:31:09.147457"	"2020-01-22 12:31:10.651509"	61	6.0234875
"S200122"	"Response_Inhibition"	"LEFT"	"LEFT"	643.268700000021	816.6666683	n/a	n/a	n/a	n/a	n/a	n/a	n/a	"2020-01-22 12:31:11.475904"	"2020-01-22 12:31:12.327193"	62	6.0234875
"S200122"	"Response_Inhibition"	"RIGHT"	"Time_Max_Exceeded"	1500.05133359999	1316.6666693	n/a	n/a	n/a	n/a	n/a	n/a	n/a	"2020-01-22 12:31:13.651950"	"2020-01-22 12:31:15.156083"	63	6.0234875
"S200122"	"Response_Inhibition"	"RIGHT"	"RIGHT"	630.644599999982	1316.6666693	n/a	n/a	n/a	n/a	n/a	n/a	n/a	"2020-01-22 12:31:16.481217"	"2020-01-22 12:31:17.320339"	64	6.0234875
"S200122"	"Response_Inhibition"	"RIGHT"	"RIGHT"	949.028999999996	1050.0000021	n/a	n/a	n/a	n/a	n/a	n/a	n/a	"2020-01-22 12:31:18.378448"	"2020-01-22 12:31:19.536443"	65	6.0234875
"S200122"	"Response_Inhibition"	"RIGHT"	"RIGHT"	1004.89800000003	1216.6666691	n/a	n/a	n/a	n/a	n/a	n/a	n/a	"2020-01-22 12:31:20.762563"	"2020-01-22 12:31:21.975459"	66	6.0234875
"S200122"	"Response_Inhibition"	"RIGHT"	"RIGHT"	656.774499999983	1366.6666694	n/a	n/a	n/a	n/a	n/a	n/a	n/a	"2020-01-22 12:31:23.350947"	"2020-01-22 12:31:24.214268"	67	6.0234875
"S200122"	"Response_Inhibition"	"RIGHT"	"RIGHT"	861.987799999952	1066.6666688	n/a	n/a	n/a	n/a	n/a	n/a	n/a	"2020-01-22 12:31:25.289467"	"2020-01-22 12:31:26.359593"	68	6.0234875
"S200122"	"Response_Inhibition"	"RIGHT"	"Time_Max_Exceeded"	1500.04940050008	900.0000018	n/a	n/a	n/a	n/a	n/a	n/a	n/a	"2020-01-22 12:31:27.268821"	"2020-01-22 12:31:28.772177"	69	6.0234875
"S200122"	"Response_Inhibition"	"LEFT"	"LEFT"	445.592500000089	933.3333352	n/a	n/a	n/a	n/a	n/a	n/a	n/a	"2020-01-22 12:31:29.713516"	"2020-01-22 12:31:30.367421"	70	6.0234875
"S200122"	"Response_Inhibition"	"RIGHT"	"RIGHT"	821.239999999989	850.0000017	n/a	n/a	n/a	n/a	n/a	n/a	n/a	"2020-01-22 12:31:31.225849"	"2020-01-22 12:31:32.255209"	71	6.0234875
"S200122"	"Response_Inhibition"	"RIGHT"	"Time_Max_Exceeded"	1500.05343389998	750.0000015	n/a	n/a	n/a	n/a	n/a	n/a	n/a	"2020-01-22 12:31:33.013820"	"2020-01-22 12:31:34.517327"	72	6.0234875
"S200122"	"Response_Inhibition"	"RIGHT"	"Time_Max_Exceeded"	1500.04956670004	633.3333346	n/a	n/a	n/a	n/a	n/a	n/a	n/a	"2020-01-22 12:31:35.158845"	"2020-01-22 12:31:36.662629"	73	6.0234875
"S200122"	"Response_Inhibition"	"RIGHT"	"RIGHT"	517.089299999952	1466.6666696	n/a	n/a	n/a	n/a	n/a	n/a	n/a	"2020-01-22 12:31:38.138988"	"2020-01-22 12:31:38.864477"	74	6.0234875
"S200122"	"Response_Inhibition"	"RIGHT"	"Time_Max_Exceeded"	1500.05860060003	1400.0000028	n/a	n/a	n/a	n/a	n/a	n/a	n/a	"2020-01-22 12:31:40.272990"	"2020-01-22 12:31:41.775654"	75	6.0234875
"S200122"	"Response_Inhibition"	"RIGHT"	"RIGHT"	427.392300000065	883.3333351	n/a	n/a	n/a	n/a	n/a	n/a	n/a	"2020-01-22 12:31:42.668382"	"2020-01-22 12:31:43.303773"	76	6.0234875
"S200122"	"Response_Inhibition"	"LEFT"	"LEFT"	888.882500000022	1366.6666694	n/a	n/a	n/a	n/a	n/a	n/a	n/a	"2020-01-22 12:31:44.678582"	"2020-01-22 12:31:45.775525"	77	6.0234875
"S200122"	"Response_Inhibition"	"RIGHT"	"Time_Max_Exceeded"	1500.05483389995	1100.0000022	n/a	n/a	n/a	n/a	n/a	n/a	n/a	"2020-01-22 12:31:46.883798"	"2020-01-22 12:31:48.387162"	78	6.0234875
"S200122"	"Response_Inhibition"	"LEFT"	"Time_Max_Exceeded"	1500.07510019998	650.0000013	n/a	n/a	n/a	n/a	n/a	n/a	n/a	"2020-01-22 12:31:49.045910"	"2020-01-22 12:31:50.550023"	79	6.0234875
"S200122"	"Response_Inhibition"	"RIGHT"	"RIGHT"	726.065000000062	1250.0000025	n/a	n/a	n/a	n/a	n/a	n/a	n/a	"2020-01-22 12:31:51.809674"	"2020-01-22 12:31:52.743128"	80	6.0234875
"S200122"	"Response_Inhibition"	"LEFT"	"LEFT"	786.25349999993	1316.6666693	n/a	n/a	n/a	n/a	n/a	n/a	n/a	"2020-01-22 12:31:54.069757"	"2020-01-22 12:31:55.063239"	81	6.0234875
"S200122"	"Response_Inhibition"	"LEFT"	"LEFT"	734.683700000005	1050.0000021	n/a	n/a	n/a	n/a	n/a	n/a	n/a	"2020-01-22 12:31:56.121752"	"2020-01-22 12:31:57.064563"	82	6.0234875
"S200122"	"Response_Inhibition"	"LEFT"	"LEFT"	727.854500000035	966.6666686	n/a	n/a	n/a	n/a	n/a	n/a	n/a	"2020-01-22 12:31:58.039303"	"2020-01-22 12:31:58.975000"	83	6.0234875
"S200122"	"Response_Inhibition"	"RIGHT"	"Time_Max_Exceeded"	1500.05740049995	683.3333347	n/a	n/a	n/a	n/a	n/a	n/a	n/a	"2020-01-22 12:31:59.667498"	"2020-01-22 12:32:01.170724"	84	6.0234875
"S200122"	"Response_Inhibition"	"RIGHT"	"Time_Max_Exceeded"	1500.05883360003	1050.0000021	n/a	n/a	n/a	n/a	n/a	n/a	n/a	"2020-01-22 12:32:02.230003"	"2020-01-22 12:32:03.733357"	85	6.0234875
"S200122"	"Response_Inhibition"	"LEFT"	"LEFT"	758.087400000022	1266.6666692	n/a	n/a	n/a	n/a	n/a	n/a	n/a	"2020-01-22 12:32:05.009790"	"2020-01-22 12:32:05.975578"	86	6.0234875
"S200122"	"Response_Inhibition"	"LEFT"	"Time_Max_Exceeded"	1500.04936689997	1466.6666696	n/a	n/a	n/a	n/a	n/a	n/a	n/a	"2020-01-22 12:32:07.451209"	"2020-01-22 12:32:08.954332"	87	6.0234875
"S200122"	"Response_Inhibition"	"LEFT"	"LEFT"	751.227000000085	1333.333336	n/a	n/a	n/a	n/a	n/a	n/a	n/a	"2020-01-22 12:32:10.296772"	"2020-01-22 12:32:11.257072"	88	6.0234875
"S200122"	"Response_Inhibition"	"LEFT"	"LEFT"	816.067299999986	950.0000019	n/a	n/a	n/a	n/a	n/a	n/a	n/a	"2020-01-22 12:32:12.215728"	"2020-01-22 12:32:13.240161"	89	6.0234875
"S200122"	"Response_Inhibition"	"LEFT"	"LEFT"	702.124200000071	1416.6666695	n/a	n/a	n/a	n/a	n/a	n/a	n/a	"2020-01-22 12:32:14.666013"	"2020-01-22 12:32:15.576610"	90	6.0234875
"S200122"	"Response_Inhibition"	"RIGHT"	"Time_Max_Exceeded"	1500.05780029995	983.3333353	n/a	n/a	n/a	n/a	n/a	n/a	n/a	"2020-01-22 12:32:16.568579"	"2020-01-22 12:32:18.071705"	91	6.0234875
"S200122"	"Response_Inhibition"	"LEFT"	"LEFT"	881.360599999994	550.0000011	n/a	n/a	n/a	n/a	n/a	n/a	n/a	"2020-01-22 12:32:18.629857"	"2020-01-22 12:32:19.719117"	92	6.0234875
"S200122"	"Response_Inhibition"	"RIGHT"	"RIGHT"	695.613800000046	1416.6666695	n/a	n/a	n/a	n/a	n/a	n/a	n/a	"2020-01-22 12:32:21.144600"	"2020-01-22 12:32:22.047049"	93	6.0234875
"S200122"	"Response_Inhibition"	"LEFT"	"LEFT"	773.234600000023	666.666668	n/a	n/a	n/a	n/a	n/a	n/a	n/a	"2020-01-22 12:32:22.723147"	"2020-01-22 12:32:23.703020"	94	6.0234875
"S200122"	"Response_Inhibition"	"LEFT"	"Time_Max_Exceeded"	1500.0667004	683.3333347	n/a	n/a	n/a	n/a	n/a	n/a	n/a	"2020-01-22 12:32:24.394188"	"2020-01-22 12:32:25.898510"	95	6.0234875
"S200122"	"Response_Inhibition"	"LEFT"	"Time_Max_Exceeded"	1500.05680049992	700.0000014	n/a	n/a	n/a	n/a	n/a	n/a	n/a	"2020-01-22 12:32:26.606714"	"2020-01-22 12:32:28.109797"	96	6.0234875
"S200122"	"Response_Inhibition"	"LEFT"	"LEFT"	487.793167100037	1150.0000023	n/a	n/a	n/a	n/a	n/a	n/a	n/a	"2020-01-22 12:32:29.268756"	"2020-01-22 12:32:29.967148"	97	6.0234875
"S200122"	"Response_Inhibition"	"LEFT"	"LEFT"	767.058700000007	633.3333346	n/a	n/a	n/a	n/a	n/a	n/a	n/a	"2020-01-22 12:32:30.608756"	"2020-01-22 12:32:31.584616"	98	6.0234875
"S200122"	"Response_Inhibition"	"LEFT"	"LEFT"	1216.46220000002	750.0000015	n/a	n/a	n/a	n/a	n/a	n/a	n/a	"2020-01-22 12:32:32.343484"	"2020-01-22 12:32:33.767716"	99	6.0234875
"S200122"	"Response_Inhibition"	"RIGHT"	"RIGHT"	873.445899999979	550.0000011	n/a	n/a	n/a	n/a	n/a	n/a	n/a	"2020-01-22 12:32:34.326367"	"2020-01-22 12:32:35.407694"	100	6.0234875
"S200122"	"Response_Inhibition"	"LEFT"	"Time_Max_Exceeded"	1500.05316699996	950.0000019	n/a	n/a	n/a	n/a	n/a	n/a	n/a	"2020-01-22 12:32:36.366244"	"2020-01-22 12:32:37.868836"	101	6.0234875
"S200122"	"Response_Inhibition"	"LEFT"	"Time_Max_Exceeded"	1500.05780009997	766.6666682	n/a	n/a	n/a	n/a	n/a	n/a	n/a	"2020-01-22 12:32:38.644976"	"2020-01-22 12:32:40.147807"	102	6.0234875
"S200122"	"Response_Inhibition"	"RIGHT"	"RIGHT"	805.961000000025	916.6666685	n/a	n/a	n/a	n/a	n/a	n/a	n/a	"2020-01-22 12:32:41.074066"	"2020-01-22 12:32:42.087111"	103	6.0234875
"S200122"	"Response_Inhibition"	"LEFT"	"Time_Max_Exceeded"	1500.07390060001	783.3333349	n/a	n/a	n/a	n/a	n/a	n/a	n/a	"2020-01-22 12:32:42.879397"	"2020-01-22 12:32:44.382959"	104	6.0234875
"S200122"	"Response_Inhibition"	"RIGHT"	"RIGHT"	648.734999999988	1383.3333361	n/a	n/a	n/a	n/a	n/a	n/a	n/a	"2020-01-22 12:32:45.775051"	"2020-01-22 12:32:46.632701"	105	6.0234875
"S200122"	"Response_Inhibition"	"RIGHT"	"RIGHT"	765.259799999967	1433.3333362	n/a	n/a	n/a	n/a	n/a	n/a	n/a	"2020-01-22 12:32:48.074292"	"2020-01-22 12:32:49.048804"	106	6.0234875
"S200122"	"Response_Inhibition"	"RIGHT"	"RIGHT"	680.457600000068	1150.0000023	n/a	n/a	n/a	n/a	n/a	n/a	n/a	"2020-01-22 12:32:50.207060"	"2020-01-22 12:32:51.095810"	107	6.0234875
"S200122"	"Response_Inhibition"	"RIGHT"	"Time_Max_Exceeded"	1500.0511334999	1150.0000023	n/a	n/a	n/a	n/a	n/a	n/a	n/a	"2020-01-22 12:32:52.254170"	"2020-01-22 12:32:53.757087"	108	6.0234875
"S200122"	"Response_Inhibition"	"RIGHT"	"RIGHT"	426.688600000034	966.6666686	n/a	n/a	n/a	n/a	n/a	n/a	n/a	"2020-01-22 12:32:54.733313"	"2020-01-22 12:32:55.368583"	109	6.0234875
"S200122"	"Response_Inhibition"	"RIGHT"	"RIGHT"	681.690600000024	1100.0000022	n/a	n/a	n/a	n/a	n/a	n/a	n/a	"2020-01-22 12:32:56.478360"	"2020-01-22 12:32:57.367653"	110	6.0234875
"S200122"	"Response_Inhibition"	"LEFT"	"LEFT"	677.205400000048	1266.6666692	n/a	n/a	n/a	n/a	n/a	n/a	n/a	"2020-01-22 12:32:58.642285"	"2020-01-22 12:32:59.527662"	111	6.0234875
"S200122"	"Response_Inhibition"	"LEFT"	"LEFT"	669.709699999999	1233.3333358	n/a	n/a	n/a	n/a	n/a	n/a	n/a	"2020-01-22 12:33:00.770077"	"2020-01-22 12:33:01.646864"	112	6.0234875
"S200122"	"Response_Inhibition"	"LEFT"	"LEFT"	884.55620000002	683.3333347	n/a	n/a	n/a	n/a	n/a	n/a	n/a	"2020-01-22 12:33:02.339561"	"2020-01-22 12:33:03.432774"	113	6.0234875
"S200122"	"Response_Inhibition"	"RIGHT"	"Time_Max_Exceeded"	1500.04650059998	1000.000002	n/a	n/a	n/a	n/a	n/a	n/a	n/a	"2020-01-22 12:33:04.441366"	"2020-01-22 12:33:05.944692"	114	6.0234875
"S200122"	"Response_Inhibition"	"RIGHT"	"RIGHT"	596.083600000043	1450.0000029	n/a	n/a	n/a	n/a	n/a	n/a	n/a	"2020-01-22 12:33:07.403911"	"2020-01-22 12:33:08.208323"	115	6.0234875
"S200122"	"Response_Inhibition"	"LEFT"	"Time_Max_Exceeded"	1500.05113370011	1000.000002	n/a	n/a	n/a	n/a	n/a	n/a	n/a	"2020-01-22 12:33:09.217435"	"2020-01-22 12:33:10.720141"	116	6.0234875
"S200122"	"Response_Inhibition"	"RIGHT"	"RIGHT"	609.088699999916	733.3333348	n/a	n/a	n/a	n/a	n/a	n/a	n/a	"2020-01-22 12:33:11.462495"	"2020-01-22 12:33:12.278964"	117	6.0234875
"S200122"	"Response_Inhibition"	"LEFT"	"Time_Max_Exceeded"	1500.05790019998	516.6666677	n/a	n/a	n/a	n/a	n/a	n/a	n/a	"2020-01-22 12:33:12.803753"	"2020-01-22 12:33:14.307024"	118	6.0234875
"S200122"	"Response_Inhibition"	"RIGHT"	"RIGHT"	554.309499999931	616.6666679	n/a	n/a	n/a	n/a	n/a	n/a	n/a	"2020-01-22 12:33:14.933353"	"2020-01-22 12:33:15.694924"	119	6.0234875
"S200122"	"Response_Inhibition"	"LEFT"	"LEFT"	954.508400000009	533.3333344	n/a	n/a	n/a	n/a	n/a	n/a	n/a	"2020-01-22 12:33:16.237316"	"2020-01-22 12:33:17.399078"	120	6.0234875
"S200122"	"Response_Inhibition"	"LEFT"	"LEFT"	705.0081000001	1183.3333357	n/a	n/a	n/a	n/a	n/a	n/a	n/a	"2020-01-22 12:33:18.590768"	"2020-01-22 12:33:19.503281"	121	6.0234875
"S200122"	"Response_Inhibition"	"LEFT"	"Time_Max_Exceeded"	1500.12520000007	1200.0000024	n/a	n/a	n/a	n/a	n/a	n/a	n/a	"2020-01-22 12:33:20.711962"	"2020-01-22 12:33:22.212097"	122	6.0234875
"S200122"	"Response_Inhibition"	"RIGHT"	"RIGHT"	551.361699999916	1083.3333355	n/a	n/a	n/a	n/a	n/a	n/a	n/a	"2020-01-22 12:33:23.304731"	"2020-01-22 12:33:24.063831"	123	6.0234875
"S200122"	"Response_Inhibition"	"RIGHT"	"Time_Max_Exceeded"	1500.0511001	950.0000019	n/a	n/a	n/a	n/a	n/a	n/a	n/a	"2020-01-22 12:33:25.021998"	"2020-01-22 12:33:26.525249"	124	6.0234875
"S200122"	"Response_Inhibition"	"LEFT"	"LEFT"	579.269500000009	1150.0000023	n/a	n/a	n/a	n/a	n/a	n/a	n/a	"2020-01-22 12:33:27.685154"	"2020-01-22 12:33:28.472577"	125	6.0234875
"S200122"	"Response_Inhibition"	"RIGHT"	"Time_Max_Exceeded"	1500.06673339995	1200.0000024	n/a	n/a	n/a	n/a	n/a	n/a	n/a	"2020-01-22 12:33:29.681302"	"2020-01-22 12:33:31.184927"	126	6.0234875
"S200122"	"Response_Inhibition"	"LEFT"	"LEFT"	459.257699999966	883.3333351	n/a	n/a	n/a	n/a	n/a	n/a	n/a	"2020-01-22 12:33:32.076420"	"2020-01-22 12:33:32.744370"	127	6.0234875
"S200122"	"Response_Inhibition"	"LEFT"	"Time_Max_Exceeded"	1500.05496709996	1316.6666693	n/a	n/a	n/a	n/a	n/a	n/a	n/a	"2020-01-22 12:33:34.069573"	"2020-01-22 12:33:35.572706"	128	6.0234875
"S200122"	"Response_Inhibition"	"RIGHT"	"Time_Max_Exceeded"	1500.0606334	1266.6666692	n/a	n/a	n/a	n/a	n/a	n/a	n/a	"2020-01-22 12:33:36.848881"	"2020-01-22 12:33:38.351957"	129	6.0234875
"S200122"	"Response_Inhibition"	"RIGHT"	"Time_Max_Exceeded"	1500.0573334	1416.6666695	n/a	n/a	n/a	n/a	n/a	n/a	n/a	"2020-01-22 12:33:39.778596"	"2020-01-22 12:33:41.281422"	130	6.0234875
"S200122"	"Response_Inhibition"	"RIGHT"	"RIGHT"	856.25600000003	516.6666677	n/a	n/a	n/a	n/a	n/a	n/a	n/a	"2020-01-22 12:33:41.807736"	"2020-01-22 12:33:42.871813"	131	6.0234875
"S200122"	"Response_Inhibition"	"RIGHT"	"RIGHT"	663.900199999944	600.0000012	n/a	n/a	n/a	n/a	n/a	n/a	n/a	"2020-01-22 12:33:43.479751"	"2020-01-22 12:33:44.352364"	132	6.0234875
"S200122"	"Response_Inhibition"	"RIGHT"	"Time_Max_Exceeded"	1500.05816669993	850.0000017	n/a	n/a	n/a	n/a	n/a	n/a	n/a	"2020-01-22 12:33:45.210623"	"2020-01-22 12:33:46.714066"	133	6.0234875
"S200122"	"Response_Inhibition"	"LEFT"	"LEFT"	418.050700000094	900.0000018	n/a	n/a	n/a	n/a	n/a	n/a	n/a	"2020-01-22 12:33:47.623415"	"2020-01-22 12:33:48.249209"	134	6.0234875
"S200122"	"Response_Inhibition"	"LEFT"	"Time_Max_Exceeded"	1500.05756700004	850.0000017	n/a	n/a	n/a	n/a	n/a	n/a	n/a	"2020-01-22 12:33:49.108440"	"2020-01-22 12:33:50.611688"	135	6.0234875
"S200122"	"Response_Inhibition"	"LEFT"	"LEFT"	495.835299999953	866.6666684	n/a	n/a	n/a	n/a	n/a	n/a	n/a	"2020-01-22 12:33:51.487713"	"2020-01-22 12:33:52.190842"	136	6.0234875
"S200122"	"Response_Inhibition"	"LEFT"	"LEFT"	374.47073389998	1383.3333361	n/a	n/a	n/a	n/a	n/a	n/a	n/a	"2020-01-22 12:33:53.582236"	"2020-01-22 12:33:54.168612"	137	6.0234875
"S200122"	"Response_Inhibition"	"RIGHT"	"RIGHT"	548.086099999978	666.666668	n/a	n/a	n/a	n/a	n/a	n/a	n/a	"2020-01-22 12:33:54.843347"	"2020-01-22 12:33:55.600394"	138	6.0234875
"S200122"	"Response_Inhibition"	"RIGHT"	"RIGHT"	416.321700000026	1350.0000027	n/a	n/a	n/a	n/a	n/a	n/a	n/a	"2020-01-22 12:33:56.959532"	"2020-01-22 12:33:57.584501"	139	6.0234875
"S200122"	"Response_Inhibition"	"LEFT"	"LEFT"	593.733999999927	733.3333348	n/a	n/a	n/a	n/a	n/a	n/a	n/a	"2020-01-22 12:33:58.326277"	"2020-01-22 12:33:59.127826"	140	6.0234875
"S200122"	"Response_Inhibition"	"LEFT"	"LEFT"	414.684233799984	1350.0000027	n/a	n/a	n/a	n/a	n/a	n/a	n/a	"2020-01-22 12:34:00.485679"	"2020-01-22 12:34:01.112823"	141	6.0234875
"S200122"	"Response_Inhibition"	"RIGHT"	"RIGHT"	601.535899999931	500.000001	n/a	n/a	n/a	n/a	n/a	n/a	n/a	"2020-01-22 12:34:01.621970"	"2020-01-22 12:34:02.430970"	142	6.0234875
"S200122"	"Response_Inhibition"	"LEFT"	"LEFT"	722.957100000031	1133.3333356	n/a	n/a	n/a	n/a	n/a	n/a	n/a	"2020-01-22 12:34:03.573189"	"2020-01-22 12:34:04.504312"	143	6.0234875
"S200122"	"Response_Inhibition"	"LEFT"	"Time_Max_Exceeded"	1500.16976679994	1083.3333355	n/a	n/a	n/a	n/a	n/a	n/a	n/a	"2020-01-22 12:34:05.595661"	"2020-01-22 12:34:07.099164"	144	6.0234875
"S200122"	"Response_Inhibition"	"RIGHT"	"Time_Max_Exceeded"	1500.05000039994	816.6666683	n/a	n/a	n/a	n/a	n/a	n/a	n/a	"2020-01-22 12:34:07.924718"	"2020-01-22 12:34:09.428775"	145	6.0234875
"S200122"	"Response_Inhibition"	"LEFT"	"LEFT"	382.199200000059	716.6666681	n/a	n/a	n/a	n/a	n/a	n/a	n/a	"2020-01-22 12:34:10.153639"	"2020-01-22 12:34:10.744027"	146	6.0234875
"S200122"	"Response_Inhibition"	"RIGHT"	"RIGHT"	519.230900000025	800.0000016	n/a	n/a	n/a	n/a	n/a	n/a	n/a	"2020-01-22 12:34:11.552298"	"2020-01-22 12:34:12.279559"	147	6.0234875
"S200122"	"Response_Inhibition"	"RIGHT"	"RIGHT"	646.632999999952	633.3333346	n/a	n/a	n/a	n/a	n/a	n/a	n/a	"2020-01-22 12:34:12.921457"	"2020-01-22 12:34:13.775184"	148	6.0234875
"S200122"	"Response_Inhibition"	"LEFT"	"Time_Max_Exceeded"	1500.06723349994	583.3333345	n/a	n/a	n/a	n/a	n/a	n/a	n/a	"2020-01-22 12:34:14.366845"	"2020-01-22 12:34:15.870379"	149	6.0234875
"S200122"	"Response_Inhibition"	"LEFT"	"Time_Max_Exceeded"	1500.05556729995	1416.6666695	n/a	n/a	n/a	n/a	n/a	n/a	n/a	"2020-01-22 12:34:17.296609"	"2020-01-22 12:34:18.799793"	150	6.0234875
"S200122"	"Response_Inhibition"	"LEFT"	"LEFT"	603.506899999957	900.0000018	n/a	n/a	n/a	n/a	n/a	n/a	n/a	"2020-01-22 12:34:19.708811"	"2020-01-22 12:34:20.519419"	151	6.0234875
"S200122"	"Response_Inhibition"	"RIGHT"	"RIGHT"	560.532399999943	1033.3333354	n/a	n/a	n/a	n/a	n/a	n/a	n/a	"2020-01-22 12:34:21.560861"	"2020-01-22 12:34:22.329725"	152	6.0234875
"S200122"	"Response_Inhibition"	"LEFT"	"LEFT"	396.964499999967	1000.000002	n/a	n/a	n/a	n/a	n/a	n/a	n/a	"2020-01-22 12:34:23.339405"	"2020-01-22 12:34:23.943079"	153	6.0234875
"S200122"	"Response_Inhibition"	"LEFT"	"Time_Max_Exceeded"	1500.04693370007	1116.6666689	n/a	n/a	n/a	n/a	n/a	n/a	n/a	"2020-01-22 12:34:25.068515"	"2020-01-22 12:34:26.571276"	154	6.0234875
"S200122"	"Response_Inhibition"	"LEFT"	"LEFT"	540.810699999952	566.6666678	n/a	n/a	n/a	n/a	n/a	n/a	n/a	"2020-01-22 12:34:27.147256"	"2020-01-22 12:34:27.897690"	155	6.0234875
"S200122"	"Response_Inhibition"	"LEFT"	"LEFT"	370.07200000005	1100.0000022	n/a	n/a	n/a	n/a	n/a	n/a	n/a	"2020-01-22 12:34:29.005701"	"2020-01-22 12:34:29.583773"	156	6.0234875
"S200122"	"Response_Inhibition"	"RIGHT"	"RIGHT"	467.640833999977	1216.6666691	n/a	n/a	n/a	n/a	n/a	n/a	n/a	"2020-01-22 12:34:30.809085"	"2020-01-22 12:34:31.487081"	157	6.0234875
"S200122"	"Response_Inhibition"	"RIGHT"	"RIGHT"	575.765600000068	1000.000002	n/a	n/a	n/a	n/a	n/a	n/a	n/a	"2020-01-22 12:34:32.496540"	"2020-01-22 12:34:33.279236"	158	6.0234875
"S200122"	"Response_Inhibition"	"LEFT"	"LEFT"	703.948699999955	1400.0000028	n/a	n/a	n/a	n/a	n/a	n/a	n/a	"2020-01-22 12:34:34.687941"	"2020-01-22 12:34:35.599145"	159	6.0234875
"S200122"	"Response_Inhibition"	"LEFT"	"LEFT"	348.164200000042	1466.6666696	n/a	n/a	n/a	n/a	n/a	n/a	n/a	"2020-01-22 12:34:37.075467"	"2020-01-22 12:34:37.631254"	160	6.0234875
"S200122"	"Response_Selection"	"RIGHT"	"RIGHT"	396.95119999999	1250.0000025	n/a	n/a	n/a	n/a	n/a	n/a	n/a	"2020-01-22 12:26:32.786433"	"2020-01-22 12:26:33.390862"	1	2.56829756666667
"S200122"	"Response_Selection"	"LEFT"	"LEFT"	330.600799999957	533.3333344	n/a	n/a	n/a	n/a	n/a	n/a	n/a	"2020-01-22 12:26:33.932314"	"2020-01-22 12:26:34.471465"	2	2.56829756666667
"S200122"	"Response_Selection"	"RIGHT"	"RIGHT"	311.355000000049	1016.6666687	n/a	n/a	n/a	n/a	n/a	n/a	n/a	"2020-01-22 12:26:35.496697"	"2020-01-22 12:26:36.016495"	3	2.56829756666667
"S200122"	"Response_Selection"	"RIGHT"	"RIGHT"	402.369899999997	1300.0000026	n/a	n/a	n/a	n/a	n/a	n/a	n/a	"2020-01-22 12:26:37.325293"	"2020-01-22 12:26:37.935803"	4	2.56829756666667
"S200122"	"Response_Selection"	"LEFT"	"LEFT"	355.329199999971	883.3333351	n/a	n/a	n/a	n/a	n/a	n/a	n/a	"2020-01-22 12:26:38.828065"	"2020-01-22 12:26:39.389934"	5	2.56829756666667
"S200122"	"Response_Selection"	"LEFT"	"LEFT"	374.852999999973	1250.0000025	n/a	n/a	n/a	n/a	n/a	n/a	n/a	"2020-01-22 12:26:40.648910"	"2020-01-22 12:26:41.231088"	6	2.56829756666667
"S200122"	"Response_Selection"	"LEFT"	"LEFT"	417.201900000009	1166.666669	n/a	n/a	n/a	n/a	n/a	n/a	n/a	"2020-01-22 12:26:42.406107"	"2020-01-22 12:26:43.030865"	7	2.56829756666667
"S200122"	"Response_Selection"	"RIGHT"	"RIGHT"	416.765799999951	600.0000012	n/a	n/a	n/a	n/a	n/a	n/a	n/a	"2020-01-22 12:26:43.639814"	"2020-01-22 12:26:44.263024"	8	2.56829756666667
"S200122"	"Response_Selection"	"RIGHT"	"RIGHT"	358.30599999997	633.3333346	n/a	n/a	n/a	n/a	n/a	n/a	n/a	"2020-01-22 12:26:44.904988"	"2020-01-22 12:26:45.471473"	9	2.56829756666667
"S200122"	"Response_Selection"	"RIGHT"	"RIGHT"	351.416699999959	1400.0000028	n/a	n/a	n/a	n/a	n/a	n/a	n/a	"2020-01-22 12:26:46.880461"	"2020-01-22 12:26:47.438958"	10	2.56829756666667
"S200122"	"Response_Selection"	"LEFT"	"LEFT"	377.47109999998	550.0000011	n/a	n/a	n/a	n/a	n/a	n/a	n/a	"2020-01-22 12:26:47.997844"	"2020-01-22 12:26:48.583444"	11	2.56829756666667
"S200122"	"Response_Selection"	"RIGHT"	"RIGHT"	283.618900000022	700.0000014	n/a	n/a	n/a	n/a	n/a	n/a	n/a	"2020-01-22 12:26:49.292020"	"2020-01-22 12:26:49.783279"	12	2.56829756666667
"S200122"	"Response_Selection"	"RIGHT"	"RIGHT"	408.488199999965	1166.666669	n/a	n/a	n/a	n/a	n/a	n/a	n/a	"2020-01-22 12:26:50.958741"	"2020-01-22 12:26:51.574394"	13	2.56829756666667
"S200122"	"Response_Selection"	"LEFT"	"LEFT"	326.294700000005	1450.0000029	n/a	n/a	n/a	n/a	n/a	n/a	n/a	"2020-01-22 12:26:53.033304"	"2020-01-22 12:26:53.566101"	14	2.56829756666667
"S200122"	"Response_Selection"	"RIGHT"	"RIGHT"	332.21560000004	916.6666685	n/a	n/a	n/a	n/a	n/a	n/a	n/a	"2020-01-22 12:26:54.490806"	"2020-01-22 12:26:55.031360"	15	2.56829756666667
"S200122"	"Response_Selection"	"RIGHT"	"RIGHT"	389.113500000008	866.6666684	n/a	n/a	n/a	n/a	n/a	n/a	n/a	"2020-01-22 12:26:55.906292"	"2020-01-22 12:26:56.503134"	16	2.56829756666667
"S200122"	"Response_Selection"	"LEFT"	"LEFT"	351.707500000032	800.0000016	n/a	n/a	n/a	n/a	n/a	n/a	n/a	"2020-01-22 12:26:57.312006"	"2020-01-22 12:26:57.871502"	17	2.56829756666667
"S200122"	"Response_Selection"	"RIGHT"	"RIGHT"	296.140400000013	983.3333353	n/a	n/a	n/a	n/a	n/a	n/a	n/a	"2020-01-22 12:26:58.863327"	"2020-01-22 12:26:59.367457"	18	2.56829756666667
"S200122"	"Response_Selection"	"LEFT"	"LEFT"	311.2347	1016.6666687	n/a	n/a	n/a	n/a	n/a	n/a	n/a	"2020-01-22 12:27:00.392603"	"2020-01-22 12:27:00.911222"	19	2.56829756666667
"S200122"	"Response_Selection"	"LEFT"	"LEFT"	372.42759999998	1066.6666688	n/a	n/a	n/a	n/a	n/a	n/a	n/a	"2020-01-22 12:27:01.986942"	"2020-01-22 12:27:02.568394"	20	2.56829756666667
"S200122"	"Response_Selection"	"RIGHT"	"RIGHT"	375.224000000003	783.3333349	n/a	n/a	n/a	n/a	n/a	n/a	n/a	"2020-01-22 12:27:03.360455"	"2020-01-22 12:27:03.942925"	21	2.56829756666667
"S200122"	"Response_Selection"	"RIGHT"	"RIGHT"	412.419	1083.3333355	n/a	n/a	n/a	n/a	n/a	n/a	n/a	"2020-01-22 12:27:05.034216"	"2020-01-22 12:27:05.654268"	22	2.56829756666667
"S200122"	"Response_Selection"	"RIGHT"	"RIGHT"	393.96499999998	1366.6666694	n/a	n/a	n/a	n/a	n/a	n/a	n/a	"2020-01-22 12:27:07.029609"	"2020-01-22 12:27:07.630095"	23	2.56829756666667
"S200122"	"Response_Selection"	"LEFT"	"LEFT"	324.285400000008	1316.6666693	n/a	n/a	n/a	n/a	n/a	n/a	n/a	"2020-01-22 12:27:08.954986"	"2020-01-22 12:27:09.487429"	24	2.56829756666667
"S200122"	"Response_Selection"	"RIGHT"	"RIGHT"	348.174499999971	683.3333347	n/a	n/a	n/a	n/a	n/a	n/a	n/a	"2020-01-22 12:27:10.179124"	"2020-01-22 12:27:10.735715"	25	2.56829756666667
"S200122"	"Response_Selection"	"LEFT"	"LEFT"	347.047299999986	500.000001	n/a	n/a	n/a	n/a	n/a	n/a	n/a	"2020-01-22 12:27:11.244456"	"2020-01-22 12:27:11.799548"	26	2.56829756666667
"S200122"	"Response_Selection"	"LEFT"	"LEFT"	366.610199999968	1216.6666691	n/a	n/a	n/a	n/a	n/a	n/a	n/a	"2020-01-22 12:27:13.024431"	"2020-01-22 12:27:13.598890"	27	2.56829756666667
"S200122"	"Response_Selection"	"LEFT"	"LEFT"	360.929499999997	750.0000015	n/a	n/a	n/a	n/a	n/a	n/a	n/a	"2020-01-22 12:27:14.358314"	"2020-01-22 12:27:14.926965"	28	2.56829756666667
"S200122"	"Response_Selection"	"LEFT"	"LEFT"	372.707500000047	683.3333347	n/a	n/a	n/a	n/a	n/a	n/a	n/a	"2020-01-22 12:27:15.618922"	"2020-01-22 12:27:16.200962"	29	2.56829756666667
"S200122"	"Response_Selection"	"RIGHT"	"RIGHT"	329.612700000041	1116.6666689	n/a	n/a	n/a	n/a	n/a	n/a	n/a	"2020-01-22 12:27:17.325821"	"2020-01-22 12:27:17.863347"	30	2.56829756666667
"S200122"	"Response_Selection"	"RIGHT"	"RIGHT"	364.453400000002	1066.6666688	n/a	n/a	n/a	n/a	n/a	n/a	n/a	"2020-01-22 12:27:18.939272"	"2020-01-22 12:27:19.511553"	31	2.56829756666667
"S200122"	"Response_Selection"	"RIGHT"	"RIGHT"	294.7585	1416.6666695	n/a	n/a	n/a	n/a	n/a	n/a	n/a	"2020-01-22 12:27:20.936161"	"2020-01-22 12:27:21.439815"	32	2.56829756666667
"S200122"	"Response_Selection"	"LEFT"	"LEFT"	296.264500000007	983.3333353	n/a	n/a	n/a	n/a	n/a	n/a	n/a	"2020-01-22 12:27:22.431206"	"2020-01-22 12:27:22.934859"	33	2.56829756666667
"S200122"	"Response_Selection"	"RIGHT"	"RIGHT"	285.817000000009	1450.0000029	n/a	n/a	n/a	n/a	n/a	n/a	n/a	"2020-01-22 12:27:24.393448"	"2020-01-22 12:27:24.886140"	34	2.56829756666667
"S200122"	"Response_Selection"	"RIGHT"	"RIGHT"	385.089800000003	800.0000016	n/a	n/a	n/a	n/a	n/a	n/a	n/a	"2020-01-22 12:27:25.694169"	"2020-01-22 12:27:26.287832"	35	2.56829756666667
"S200122"	"Response_Selection"	"LEFT"	"LEFT"	469.770399999959	1400.0000028	n/a	n/a	n/a	n/a	n/a	n/a	n/a	"2020-01-22 12:27:27.697307"	"2020-01-22 12:27:28.375626"	36	2.56829756666667
"S200122"	"Response_Selection"	"RIGHT"	"RIGHT"	367.972800000018	583.3333345	n/a	n/a	n/a	n/a	n/a	n/a	n/a	"2020-01-22 12:27:28.967949"	"2020-01-22 12:27:29.544063"	37	2.56829756666667
"S200122"	"Response_Selection"	"LEFT"	"LEFT"	331.291599999986	1083.3333355	n/a	n/a	n/a	n/a	n/a	n/a	n/a	"2020-01-22 12:27:30.635994"	"2020-01-22 12:27:31.175646"	38	2.56829756666667
"S200122"	"Response_Selection"	"RIGHT"	"RIGHT"	302.535500000033	1216.6666691	n/a	n/a	n/a	n/a	n/a	n/a	n/a	"2020-01-22 12:27:32.400898"	"2020-01-22 12:27:32.910160"	39	2.56829756666667
"S200122"	"Response_Selection"	"LEFT"	"LEFT"	275.77279999997	1133.3333356	n/a	n/a	n/a	n/a	n/a	n/a	n/a	"2020-01-22 12:27:34.051869"	"2020-01-22 12:27:34.534890"	40	2.56829756666667
"S200122"	"Response_Selection"	"RIGHT"	"RIGHT"	338.340999999957	750.0000015	n/a	n/a	n/a	n/a	n/a	n/a	n/a	"2020-01-22 12:27:35.293033"	"2020-01-22 12:27:35.839606"	41	2.56829756666667
"S200122"	"Response_Selection"	"LEFT"	"LEFT"	322.415199999966	933.3333352	n/a	n/a	n/a	n/a	n/a	n/a	n/a	"2020-01-22 12:27:36.781522"	"2020-01-22 12:27:37.311234"	42	2.56829756666667
"S200122"	"Response_Selection"	"LEFT"	"LEFT"	331.880000000012	1500.000003	n/a	n/a	n/a	n/a	n/a	n/a	n/a	"2020-01-22 12:27:38.819344"	"2020-01-22 12:27:39.359593"	43	2.56829756666667
"S200122"	"Response_Selection"	"LEFT"	"LEFT"	307.633699999997	700.0000014	n/a	n/a	n/a	n/a	n/a	n/a	n/a	"2020-01-22 12:27:40.067882"	"2020-01-22 12:27:40.583551"	44	2.56829756666667
"S200122"	"Response_Selection"	"LEFT"	"LEFT"	335.631299999989	966.6666686	n/a	n/a	n/a	n/a	n/a	n/a	n/a	"2020-01-22 12:27:41.559920"	"2020-01-22 12:27:42.103531"	45	2.56829756666667
"S200122"	"Response_Selection"	"RIGHT"	"RIGHT"	332.107899999983	883.3333351	n/a	n/a	n/a	n/a	n/a	n/a	n/a	"2020-01-22 12:27:42.994774"	"2020-01-22 12:27:43.535390"	46	2.56829756666667
"S200122"	"Response_Selection"	"LEFT"	"LEFT"	327.871400000049	1366.6666694	n/a	n/a	n/a	n/a	n/a	n/a	n/a	"2020-01-22 12:27:44.912048"	"2020-01-22 12:27:45.447709"	47	2.56829756666667
"S200122"	"Response_Selection"	"RIGHT"	"RIGHT"	287.572399999988	1200.0000024	n/a	n/a	n/a	n/a	n/a	n/a	n/a	"2020-01-22 12:27:46.656202"	"2020-01-22 12:27:47.151430"	48	2.56829756666667
"S200122"	"Response_Selection"	"LEFT"	"LEFT"	330.362900000011	733.3333348	n/a	n/a	n/a	n/a	n/a	n/a	n/a	"2020-01-22 12:27:47.892840"	"2020-01-22 12:27:48.431072"	49	2.56829756666667
"S200122"	"Response_Selection"	"LEFT"	"LEFT"	375.589400000024	1200.0000024	n/a	n/a	n/a	n/a	n/a	n/a	n/a	"2020-01-22 12:27:49.639405"	"2020-01-22 12:27:50.223052"	50	2.56829756666667
"S200122"	"Response_Selection"	"RIGHT"	"RIGHT"	299.288300000001	1316.6666693	n/a	n/a	n/a	n/a	n/a	n/a	n/a	"2020-01-22 12:27:51.547896"	"2020-01-22 12:27:52.055812"	51	2.56829756666667
"S200122"	"Response_Selection"	"RIGHT"	"RIGHT"	364.793700000007	650.0000013	n/a	n/a	n/a	n/a	n/a	n/a	n/a	"2020-01-22 12:27:52.714590"	"2020-01-22 12:27:53.286421"	52	2.56829756666667
"S200122"	"Response_Selection"	"RIGHT"	"RIGHT"	370.902000000001	1133.3333356	n/a	n/a	n/a	n/a	n/a	n/a	n/a	"2020-01-22 12:27:54.428766"	"2020-01-22 12:27:55.007358"	53	2.56829756666667
"S200122"	"Response_Selection"	"LEFT"	"LEFT"	333.276800000021	866.6666684	n/a	n/a	n/a	n/a	n/a	n/a	n/a	"2020-01-22 12:27:55.882237"	"2020-01-22 12:27:56.423455"	54	2.56829756666667
"S200122"	"Response_Selection"	"RIGHT"	"RIGHT"	285.460999999998	1033.3333354	n/a	n/a	n/a	n/a	n/a	n/a	n/a	"2020-01-22 12:27:57.465447"	"2020-01-22 12:27:57.958175"	55	2.56829756666667
"S200122"	"Response_Selection"	"RIGHT"	"RIGHT"	330.967399999963	1350.0000027	n/a	n/a	n/a	n/a	n/a	n/a	n/a	"2020-01-22 12:27:59.316671"	"2020-01-22 12:27:59.855205"	56	2.56829756666667
"S200122"	"Response_Selection"	"LEFT"	"LEFT"	302.47410000004	1033.3333354	n/a	n/a	n/a	n/a	n/a	n/a	n/a	"2020-01-22 12:28:00.896821"	"2020-01-22 12:28:01.407457"	57	2.56829756666667
"S200122"	"Response_Selection"	"RIGHT"	"RIGHT"	305.921500000011	733.3333348	n/a	n/a	n/a	n/a	n/a	n/a	n/a	"2020-01-22 12:28:02.149769"	"2020-01-22 12:28:02.663459"	58	2.56829756666667
"S200122"	"Response_Selection"	"RIGHT"	"RIGHT"	363.21449999997	500.000001	n/a	n/a	n/a	n/a	n/a	n/a	n/a	"2020-01-22 12:28:03.171899"	"2020-01-22 12:28:03.745190"	59	2.56829756666667
"S200122"	"Response_Selection"	"LEFT"	"LEFT"	309.093700000005	600.0000012	n/a	n/a	n/a	n/a	n/a	n/a	n/a	"2020-01-22 12:28:04.354020"	"2020-01-22 12:28:04.871597"	60	2.56829756666667
"S200122"	"Response_Selection"	"LEFT"	"LEFT"	343.481099999963	583.3333345	n/a	n/a	n/a	n/a	n/a	n/a	n/a	"2020-01-22 12:28:05.463580"	"2020-01-22 12:28:06.014102"	61	2.56829756666667
"S200122"	"Response_Selection"	"RIGHT"	"RIGHT"	327.131300000019	833.333335	n/a	n/a	n/a	n/a	n/a	n/a	n/a	"2020-01-22 12:28:06.856491"	"2020-01-22 12:28:07.390889"	62	2.56829756666667
"S200122"	"Response_Selection"	"RIGHT"	"RIGHT"	365.634700000044	1466.6666696	n/a	n/a	n/a	n/a	n/a	n/a	n/a	"2020-01-22 12:28:08.866023"	"2020-01-22 12:28:09.439393"	63	2.56829756666667
"S200122"	"Response_Selection"	"RIGHT"	"RIGHT"	329.081599999995	966.6666686	n/a	n/a	n/a	n/a	n/a	n/a	n/a	"2020-01-22 12:28:10.414157"	"2020-01-22 12:28:10.951758"	64	2.56829756666667
"S200122"	"Response_Selection"	"LEFT"	"LEFT"	294.727999999964	1416.6666695	n/a	n/a	n/a	n/a	n/a	n/a	n/a	"2020-01-22 12:28:12.376973"	"2020-01-22 12:28:12.880359"	65	2.56829756666667
"S200122"	"Response_Selection"	"RIGHT"	"RIGHT"	320.24279999996	550.0000011	n/a	n/a	n/a	n/a	n/a	n/a	n/a	"2020-01-22 12:28:13.439130"	"2020-01-22 12:28:13.967638"	66	2.56829756666667
"S200122"	"Response_Selection"	"LEFT"	"LEFT"	285.920100000055	833.333335	n/a	n/a	n/a	n/a	n/a	n/a	n/a	"2020-01-22 12:28:14.809955"	"2020-01-22 12:28:15.302988"	67	2.56829756666667
"S200122"	"Response_Selection"	"LEFT"	"LEFT"	357.855400000005	650.0000013	n/a	n/a	n/a	n/a	n/a	n/a	n/a	"2020-01-22 12:28:15.961936"	"2020-01-22 12:28:16.527630"	68	2.56829756666667
"S200122"	"Response_Selection"	"LEFT"	"LEFT"	315.473699999984	1300.0000026	n/a	n/a	n/a	n/a	n/a	n/a	n/a	"2020-01-22 12:28:17.835619"	"2020-01-22 12:28:18.359019"	69	2.56829756666667
"S200122"	"Response_Selection"	"LEFT"	"LEFT"	328.742799999986	783.3333349	n/a	n/a	n/a	n/a	n/a	n/a	n/a	"2020-01-22 12:28:19.150417"	"2020-01-22 12:28:19.687343"	70	2.56829756666667
"S200122"	"Response_Selection"	"LEFT"	"LEFT"	283.051699999987	916.6666685	n/a	n/a	n/a	n/a	n/a	n/a	n/a	"2020-01-22 12:28:20.612209"	"2020-01-22 12:28:21.103484"	71	2.56829756666667
"S200122"	"Response_Selection"	"LEFT"	"LEFT"	361.652200000037	1350.0000027	n/a	n/a	n/a	n/a	n/a	n/a	n/a	"2020-01-22 12:28:22.462311"	"2020-01-22 12:28:23.030994"	72	2.56829756666667
"S200122"	"Response_Selection"	"RIGHT"	"RIGHT"	316.724899999997	1266.6666692	n/a	n/a	n/a	n/a	n/a	n/a	n/a	"2020-01-22 12:28:24.307060"	"2020-01-22 12:28:24.830861"	73	2.56829756666667
"S200122"	"Response_Selection"	"RIGHT"	"RIGHT"	364.116000000024	1500.000003	n/a	n/a	n/a	n/a	n/a	n/a	n/a	"2020-01-22 12:28:26.339323"	"2020-01-22 12:28:26.911041"	74	2.56829756666667
"S200122"	"Response_Selection"	"RIGHT"	"RIGHT"	329.087600000037	933.3333352	n/a	n/a	n/a	n/a	n/a	n/a	n/a	"2020-01-22 12:28:27.855026"	"2020-01-22 12:28:28.391590"	75	2.56829756666667
"S200122"	"Response_Selection"	"LEFT"	"LEFT"	307.019699999955	1116.6666689	n/a	n/a	n/a	n/a	n/a	n/a	n/a	"2020-01-22 12:28:29.516371"	"2020-01-22 12:28:30.031711"	76	2.56829756666667
"S200122"	"Response_Selection"	"RIGHT"	"RIGHT"	337.806499999999	533.3333344	n/a	n/a	n/a	n/a	n/a	n/a	n/a	"2020-01-22 12:28:30.573768"	"2020-01-22 12:28:31.118938"	77	2.56829756666667
"S200122"	"Response_Selection"	"LEFT"	"LEFT"	358.419200000014	633.3333346	n/a	n/a	n/a	n/a	n/a	n/a	n/a	"2020-01-22 12:28:31.760972"	"2020-01-22 12:28:32.327456"	78	2.56829756666667
"S200122"	"Response_Selection"	"LEFT"	"LEFT"	340.960499999994	1266.6666692	n/a	n/a	n/a	n/a	n/a	n/a	n/a	"2020-01-22 12:28:33.602456"	"2020-01-22 12:28:34.151548"	79	2.56829756666667
"S200122"	"Response_Selection"	"LEFT"	"LEFT"	325.229400000012	1466.6666696	n/a	n/a	n/a	n/a	n/a	n/a	n/a	"2020-01-22 12:28:35.626282"	"2020-01-22 12:28:36.159188"	80	2.56829756666667
