"Participant"	"Task"	"Stimulus_Side"	"Response"	"RT"	"ITI"	"Previous_Response"	"Previous_RT"	"Stop_Signal"	"Stop_Signal_RT"	"Conflict"	"Cue_Response"	"Cue_Response_RT"	"Trial_Onset"	"Trial_End"	"Trial_Order"	"Duration"
"S200131"	"Conflict_Resolution"	"LEFT"	"Time_Max_Exceeded"	1500.08079999998	1300.0000026	""	n/a	n/a	n/a	"False"	n/a	n/a	"2020-01-31 12:48:33.280754"	"2020-01-31 12:48:34.781403"	1	6.39506583333333
"S200131"	"Conflict_Resolution"	"LEFT"	"RIGHT"	1320.65299999999	1150.0000023	"RIGHT"	-896.598	n/a	n/a	"True"	n/a	n/a	"2020-01-31 12:48:35.951239"	"2020-01-31 12:48:37.478937"	2	6.39506583333333
"S200131"	"Conflict_Resolution"	"RIGHT"	"RIGHT"	1484.72330000004	1233.3333358	""	n/a	n/a	n/a	"True"	n/a	n/a	"2020-01-31 12:48:38.731205"	"2020-01-31 12:48:40.425082"	3	6.39506583333333
"S200131"	"Conflict_Resolution"	"RIGHT"	"RIGHT"	1050.50269999992	883.3333351	""	n/a	n/a	n/a	"False"	n/a	n/a	"2020-01-31 12:48:41.325582"	"2020-01-31 12:48:42.584065"	4	6.39506583333333
"S200131"	"Conflict_Resolution"	"RIGHT"	"RIGHT"	715.085900000076	1233.3333358	""	n/a	n/a	n/a	"False"	n/a	n/a	"2020-01-31 12:48:43.837503"	"2020-01-31 12:48:44.760083"	5	6.39506583333333
"S200131"	"Conflict_Resolution"	"RIGHT"	"RIGHT"	626.602100000014	1466.6666696	""	n/a	n/a	n/a	"False"	n/a	n/a	"2020-01-31 12:48:46.245762"	"2020-01-31 12:48:47.080070"	6	6.39506583333333
"S200131"	"Conflict_Resolution"	"LEFT"	"LEFT"	878.429600000004	1350.0000027	""	n/a	n/a	n/a	"False"	n/a	n/a	"2020-01-31 12:48:48.450004"	"2020-01-31 12:48:49.535807"	7	6.39506583333333
"S200131"	"Conflict_Resolution"	"RIGHT"	"RIGHT"	845.882200000005	983.3333353	""	n/a	n/a	n/a	"False"	n/a	n/a	"2020-01-31 12:48:50.538222"	"2020-01-31 12:48:51.592987"	8	6.39506583333333
"S200131"	"Conflict_Resolution"	"RIGHT"	"RIGHT"	717.064600000072	783.3333349	""	n/a	n/a	n/a	"False"	n/a	n/a	"2020-01-31 12:48:52.395065"	"2020-01-31 12:48:53.319767"	9	6.39506583333333
"S200131"	"Conflict_Resolution"	"LEFT"	"LEFT"	808.705700000019	1116.6666689	""	n/a	n/a	n/a	"False"	n/a	n/a	"2020-01-31 12:48:54.456009"	"2020-01-31 12:48:55.473065"	10	6.39506583333333
"S200131"	"Conflict_Resolution"	"LEFT"	"LEFT"	974.063099999967	1166.666669	""	n/a	n/a	n/a	"False"	n/a	n/a	"2020-01-31 12:48:56.658007"	"2020-01-31 12:48:57.839849"	11	6.39506583333333
"S200131"	"Conflict_Resolution"	"RIGHT"	"RIGHT"	835.681900000054	850.0000017	""	n/a	n/a	n/a	"True"	n/a	n/a	"2020-01-31 12:48:58.708400"	"2020-01-31 12:48:59.752991"	12	6.39506583333333
"S200131"	"Conflict_Resolution"	"LEFT"	"LEFT"	579.644099999996	1450.0000029	""	n/a	n/a	n/a	"False"	n/a	n/a	"2020-01-31 12:49:01.220664"	"2020-01-31 12:49:02.008260"	13	6.39506583333333
"S200131"	"Conflict_Resolution"	"LEFT"	"LEFT"	552.688099999955	1100.0000022	""	n/a	n/a	n/a	"False"	n/a	n/a	"2020-01-31 12:49:03.127596"	"2020-01-31 12:49:03.888463"	14	6.39506583333333
"S200131"	"Conflict_Resolution"	"LEFT"	"LEFT"	549.866600000087	766.6666682	""	n/a	n/a	n/a	"False"	n/a	n/a	"2020-01-31 12:49:04.674718"	"2020-01-31 12:49:05.432399"	15	6.39506583333333
"S200131"	"Conflict_Resolution"	"LEFT"	"LEFT"	475.710000000049	1466.6666696	""	n/a	n/a	n/a	"False"	n/a	n/a	"2020-01-31 12:49:06.916470"	"2020-01-31 12:49:07.599963"	16	6.39506583333333
"S200131"	"Conflict_Resolution"	"RIGHT"	"RIGHT"	628.50949999995	1216.6666691	""	n/a	n/a	n/a	"False"	n/a	n/a	"2020-01-31 12:49:08.835762"	"2020-01-31 12:49:09.671859"	17	6.39506583333333
"S200131"	"Conflict_Resolution"	"RIGHT"	"RIGHT"	957.726600000001	1333.333336	""	n/a	n/a	n/a	"True"	n/a	n/a	"2020-01-31 12:49:11.026324"	"2020-01-31 12:49:12.192340"	18	6.39506583333333
"S200131"	"Conflict_Resolution"	"LEFT"	"LEFT"	981.897500000059	1200.0000024	""	n/a	n/a	n/a	"False"	n/a	n/a	"2020-01-31 12:49:13.410122"	"2020-01-31 12:49:14.601164"	19	6.39506583333333
"S200131"	"Conflict_Resolution"	"RIGHT"	"RIGHT"	971.979099999999	783.3333349	""	n/a	n/a	n/a	"True"	n/a	n/a	"2020-01-31 12:49:15.404565"	"2020-01-31 12:49:16.585247"	20	6.39506583333333
"S200131"	"Conflict_Resolution"	"RIGHT"	"RIGHT"	610.387500000002	1033.3333354	""	n/a	n/a	n/a	"False"	n/a	n/a	"2020-01-31 12:49:17.637950"	"2020-01-31 12:49:18.456829"	21	6.39506583333333
"S200131"	"Conflict_Resolution"	"RIGHT"	"RIGHT"	541.986099999917	1366.6666694	""	n/a	n/a	n/a	"False"	n/a	n/a	"2020-01-31 12:49:19.842874"	"2020-01-31 12:49:20.591898"	22	6.39506583333333
"S200131"	"Conflict_Resolution"	"RIGHT"	"RIGHT"	683.357000000001	1050.0000021	""	n/a	n/a	n/a	"True"	n/a	n/a	"2020-01-31 12:49:21.661284"	"2020-01-31 12:49:22.551817"	23	6.39506583333333
"S200131"	"Conflict_Resolution"	"RIGHT"	"RIGHT"	530.204000000026	1283.3333359	""	n/a	n/a	n/a	"True"	n/a	n/a	"2020-01-31 12:49:23.854743"	"2020-01-31 12:49:24.593300"	24	6.39506583333333
"S200131"	"Conflict_Resolution"	"RIGHT"	"RIGHT"	587.393800000086	600.0000012	""	n/a	n/a	n/a	"False"	n/a	n/a	"2020-01-31 12:49:25.212907"	"2020-01-31 12:49:26.009022"	25	6.39506583333333
"S200131"	"Conflict_Resolution"	"LEFT"	"LEFT"	795.088599999985	1416.6666695	""	n/a	n/a	n/a	"True"	n/a	n/a	"2020-01-31 12:49:27.445427"	"2020-01-31 12:49:28.447749"	26	6.39506583333333
"S200131"	"Conflict_Resolution"	"RIGHT"	"RIGHT"	482.96049999999	1266.6666692	""	n/a	n/a	n/a	"False"	n/a	n/a	"2020-01-31 12:49:29.733837"	"2020-01-31 12:49:30.424155"	27	6.39506583333333
"S200131"	"Conflict_Resolution"	"LEFT"	"LEFT"	535.180299999979	566.6666678	""	n/a	n/a	n/a	"False"	n/a	n/a	"2020-01-31 12:49:31.008659"	"2020-01-31 12:49:31.752244"	28	6.39506583333333
"S200131"	"Conflict_Resolution"	"LEFT"	"LEFT"	690.224999999941	850.0000017	""	n/a	n/a	n/a	"False"	n/a	n/a	"2020-01-31 12:49:32.622450"	"2020-01-31 12:49:33.521318"	29	6.39506583333333
"S200131"	"Conflict_Resolution"	"RIGHT"	"RIGHT"	569.358800000032	1283.3333359	""	n/a	n/a	n/a	"False"	n/a	n/a	"2020-01-31 12:49:34.822395"	"2020-01-31 12:49:35.600782"	30	6.39506583333333
"S200131"	"Conflict_Resolution"	"RIGHT"	"RIGHT"	636.874199999966	800.0000016	""	n/a	n/a	n/a	"True"	n/a	n/a	"2020-01-31 12:49:36.419446"	"2020-01-31 12:49:37.264296"	31	6.39506583333333
"S200131"	"Conflict_Resolution"	"RIGHT"	"RIGHT"	531.944300000077	833.333335	""	n/a	n/a	n/a	"True"	n/a	n/a	"2020-01-31 12:49:38.116911"	"2020-01-31 12:49:38.855714"	32	6.39506583333333
"S200131"	"Conflict_Resolution"	"RIGHT"	"RIGHT"	512.012199999958	950.0000019	""	n/a	n/a	n/a	"False"	n/a	n/a	"2020-01-31 12:49:39.824407"	"2020-01-31 12:49:40.544299"	33	6.39506583333333
"S200131"	"Conflict_Resolution"	"RIGHT"	"RIGHT"	470.421999999985	1150.0000023	""	n/a	n/a	n/a	"False"	n/a	n/a	"2020-01-31 12:49:41.713641"	"2020-01-31 12:49:42.392069"	34	6.39506583333333
"S200131"	"Conflict_Resolution"	"RIGHT"	"RIGHT"	726.960299999973	1150.0000023	""	n/a	n/a	n/a	"True"	n/a	n/a	"2020-01-31 12:49:43.561492"	"2020-01-31 12:49:44.497462"	35	6.39506583333333
"S200131"	"Conflict_Resolution"	"LEFT"	"LEFT"	726.878899999974	1316.6666693	""	n/a	n/a	n/a	"True"	n/a	n/a	"2020-01-31 12:49:45.833245"	"2020-01-31 12:49:46.768132"	36	6.39506583333333
"S200131"	"Conflict_Resolution"	"LEFT"	"LEFT"	685.609600000021	1500.000003	""	n/a	n/a	n/a	"False"	n/a	n/a	"2020-01-31 12:49:48.290279"	"2020-01-31 12:49:49.184389"	37	6.39506583333333
"S200131"	"Conflict_Resolution"	"LEFT"	"LEFT"	651.736799999981	816.6666683	""	n/a	n/a	n/a	"False"	n/a	n/a	"2020-01-31 12:49:50.021182"	"2020-01-31 12:49:50.880306"	38	6.39506583333333
"S200131"	"Conflict_Resolution"	"RIGHT"	"RIGHT"	560.671399999933	1316.6666693	""	n/a	n/a	n/a	"False"	n/a	n/a	"2020-01-31 12:49:52.216033"	"2020-01-31 12:49:52.983713"	39	6.39506583333333
"S200131"	"Conflict_Resolution"	"RIGHT"	"RIGHT"	714.522099999954	700.0000014	""	n/a	n/a	n/a	"True"	n/a	n/a	"2020-01-31 12:49:53.702181"	"2020-01-31 12:49:54.624599"	40	6.39506583333333
"S200131"	"Conflict_Resolution"	"LEFT"	"LEFT"	664.363299999991	916.6666685	""	n/a	n/a	n/a	"True"	n/a	n/a	"2020-01-31 12:49:55.559848"	"2020-01-31 12:49:56.432440"	41	6.39506583333333
"S200131"	"Conflict_Resolution"	"LEFT"	"LEFT"	773.102600000016	1016.6666687	""	n/a	n/a	n/a	"False"	n/a	n/a	"2020-01-31 12:49:57.467344"	"2020-01-31 12:49:58.448597"	42	6.39506583333333
"S200131"	"Conflict_Resolution"	"LEFT"	"LEFT"	748.417699999891	1200.0000024	""	n/a	n/a	n/a	"True"	n/a	n/a	"2020-01-31 12:49:59.668356"	"2020-01-31 12:50:00.623758"	43	6.39506583333333
"S200131"	"Conflict_Resolution"	"RIGHT"	"RIGHT"	657.24709999995	500.000001	""	n/a	n/a	n/a	"True"	n/a	n/a	"2020-01-31 12:50:01.143711"	"2020-01-31 12:50:02.009410"	44	6.39506583333333
"S200131"	"Conflict_Resolution"	"RIGHT"	"RIGHT"	577.502999999979	900.0000018	""	n/a	n/a	n/a	"False"	n/a	n/a	"2020-01-31 12:50:02.926471"	"2020-01-31 12:50:03.713316"	45	6.39506583333333
"S200131"	"Conflict_Resolution"	"RIGHT"	"RIGHT"	526.744099999974	1333.333336	""	n/a	n/a	n/a	"False"	n/a	n/a	"2020-01-31 12:50:05.065324"	"2020-01-31 12:50:05.799587"	46	6.39506583333333
"S200131"	"Conflict_Resolution"	"LEFT"	"LEFT"	612.705000000005	966.6666686	""	n/a	n/a	n/a	"True"	n/a	n/a	"2020-01-31 12:50:06.787830"	"2020-01-31 12:50:07.608994"	47	6.39506583333333
"S200131"	"Conflict_Resolution"	"LEFT"	"LEFT"	931.587199999967	1000.000002	""	n/a	n/a	n/a	"True"	n/a	n/a	"2020-01-31 12:50:08.629045"	"2020-01-31 12:50:09.769051"	48	6.39506583333333
"S200131"	"Conflict_Resolution"	"LEFT"	"LEFT"	541.726199999971	1000.000002	""	n/a	n/a	n/a	"False"	n/a	n/a	"2020-01-31 12:50:10.787276"	"2020-01-31 12:50:11.536955"	49	6.39506583333333
"S200131"	"Conflict_Resolution"	"LEFT"	"LEFT"	671.460499999966	1500.000003	""	n/a	n/a	n/a	"True"	n/a	n/a	"2020-01-31 12:50:13.057170"	"2020-01-31 12:50:13.937099"	50	6.39506583333333
"S200131"	"Conflict_Resolution"	"LEFT"	"LEFT"	491.360099999952	816.6666683	""	n/a	n/a	n/a	"True"	n/a	n/a	"2020-01-31 12:50:14.772603"	"2020-01-31 12:50:15.472978"	51	6.39506583333333
"S200131"	"Conflict_Resolution"	"LEFT"	"LEFT"	528.010100000074	516.6666677	""	n/a	n/a	n/a	"False"	n/a	n/a	"2020-01-31 12:50:16.008259"	"2020-01-31 12:50:16.745236"	52	6.39506583333333
"S200131"	"Conflict_Resolution"	"LEFT"	"LEFT"	379.751499999998	1050.0000021	""	n/a	n/a	n/a	"False"	n/a	n/a	"2020-01-31 12:50:17.812667"	"2020-01-31 12:50:18.400956"	53	6.39506583333333
"S200131"	"Conflict_Resolution"	"LEFT"	"LEFT"	542.86280000008	1116.6666689	""	n/a	n/a	n/a	"True"	n/a	n/a	"2020-01-31 12:50:19.537704"	"2020-01-31 12:50:20.289131"	54	6.39506583333333
"S200131"	"Conflict_Resolution"	"LEFT"	"LEFT"	392.589000000044	866.6666684	""	n/a	n/a	n/a	"False"	n/a	n/a	"2020-01-31 12:50:21.176002"	"2020-01-31 12:50:21.775493"	55	6.39506583333333
"S200131"	"Conflict_Resolution"	"LEFT"	"LEFT"	436.713400000031	666.666668	""	n/a	n/a	n/a	"False"	n/a	n/a	"2020-01-31 12:50:22.459849"	"2020-01-31 12:50:23.105253"	56	6.39506583333333
"S200131"	"Conflict_Resolution"	"LEFT"	"LEFT"	346.861800000056	1066.6666688	""	n/a	n/a	n/a	"False"	n/a	n/a	"2020-01-31 12:50:24.189703"	"2020-01-31 12:50:24.745229"	57	6.39506583333333
"S200131"	"Conflict_Resolution"	"LEFT"	"LEFT"	757.775700000025	1166.666669	""	n/a	n/a	n/a	"True"	n/a	n/a	"2020-01-31 12:50:25.930972"	"2020-01-31 12:50:26.897395"	58	6.39506583333333
"S200131"	"Conflict_Resolution"	"RIGHT"	"RIGHT"	705.487800000014	633.3333346	""	n/a	n/a	n/a	"True"	n/a	n/a	"2020-01-31 12:50:27.550886"	"2020-01-31 12:50:28.463604"	59	6.39506583333333
"S200131"	"Conflict_Resolution"	"LEFT"	"LEFT"	558.370699999955	950.0000019	""	n/a	n/a	n/a	"False"	n/a	n/a	"2020-01-31 12:50:29.434454"	"2020-01-31 12:50:30.200534"	60	6.39506583333333
"S200131"	"Conflict_Resolution"	"RIGHT"	"RIGHT"	734.33579999994	1000.000002	""	n/a	n/a	n/a	"False"	n/a	n/a	"2020-01-31 12:50:31.217926"	"2020-01-31 12:50:32.161404"	61	6.39506583333333
"S200131"	"Conflict_Resolution"	"RIGHT"	"RIGHT"	509.956299999999	733.3333348	""	n/a	n/a	n/a	"False"	n/a	n/a	"2020-01-31 12:50:32.914674"	"2020-01-31 12:50:33.633148"	62	6.39506583333333
"S200131"	"Conflict_Resolution"	"RIGHT"	"RIGHT"	451.254199999994	833.333335	""	n/a	n/a	n/a	"False"	n/a	n/a	"2020-01-31 12:50:34.485483"	"2020-01-31 12:50:35.143518"	63	6.39506583333333
"S200131"	"Conflict_Resolution"	"LEFT"	"LEFT"	604.590500000086	1466.6666696	""	n/a	n/a	n/a	"True"	n/a	n/a	"2020-01-31 12:50:36.628427"	"2020-01-31 12:50:37.440802"	64	6.39506583333333
"S200131"	"Conflict_Resolution"	"LEFT"	"LEFT"	588.237499999991	1250.0000025	""	n/a	n/a	n/a	"True"	n/a	n/a	"2020-01-31 12:50:38.708006"	"2020-01-31 12:50:39.505188"	65	6.39506583333333
"S200131"	"Conflict_Resolution"	"LEFT"	"LEFT"	503.200900000024	533.3333344	""	n/a	n/a	n/a	"False"	n/a	n/a	"2020-01-31 12:50:40.057846"	"2020-01-31 12:50:40.768656"	66	6.39506583333333
"S200131"	"Conflict_Resolution"	"RIGHT"	"RIGHT"	614.257899999984	533.3333344	""	n/a	n/a	n/a	"True"	n/a	n/a	"2020-01-31 12:50:41.322750"	"2020-01-31 12:50:42.145415"	67	6.39506583333333
"S200131"	"Conflict_Resolution"	"RIGHT"	"RIGHT"	616.111100000012	700.0000014	""	n/a	n/a	n/a	"False"	n/a	n/a	"2020-01-31 12:50:42.864475"	"2020-01-31 12:50:43.688082"	68	6.39506583333333
"S200131"	"Conflict_Resolution"	"RIGHT"	"RIGHT"	668.43259999996	1433.3333362	""	n/a	n/a	n/a	"True"	n/a	n/a	"2020-01-31 12:50:45.140508"	"2020-01-31 12:50:46.016890"	69	6.39506583333333
"S200131"	"Conflict_Resolution"	"LEFT"	"LEFT"	508.65239999996	633.3333346	""	n/a	n/a	n/a	"False"	n/a	n/a	"2020-01-31 12:50:46.668162"	"2020-01-31 12:50:47.383683"	70	6.39506583333333
"S200131"	"Conflict_Resolution"	"LEFT"	"LEFT"	614.099699999997	1016.6666687	""	n/a	n/a	n/a	"True"	n/a	n/a	"2020-01-31 12:50:48.417903"	"2020-01-31 12:50:49.239776"	71	6.39506583333333
"S200131"	"Conflict_Resolution"	"LEFT"	"LEFT"	525.308799999948	783.3333349	""	n/a	n/a	n/a	"True"	n/a	n/a	"2020-01-31 12:50:50.043118"	"2020-01-31 12:50:50.776447"	72	6.39506583333333
"S200131"	"Conflict_Resolution"	"RIGHT"	"RIGHT"	576.468200000022	500.000001	""	n/a	n/a	n/a	"False"	n/a	n/a	"2020-01-31 12:50:51.296118"	"2020-01-31 12:50:52.081120"	73	6.39506583333333
"S200131"	"Conflict_Resolution"	"RIGHT"	"RIGHT"	534.834300000057	683.3333347	""	n/a	n/a	n/a	"True"	n/a	n/a	"2020-01-31 12:50:52.785640"	"2020-01-31 12:50:53.529540"	74	6.39506583333333
"S200131"	"Conflict_Resolution"	"RIGHT"	"RIGHT"	473.460400000022	1433.3333362	""	n/a	n/a	n/a	"False"	n/a	n/a	"2020-01-31 12:50:54.982585"	"2020-01-31 12:50:55.663935"	75	6.39506583333333
"S200131"	"Conflict_Resolution"	"LEFT"	"LEFT"	537.890999999945	866.6666684	""	n/a	n/a	n/a	"True"	n/a	n/a	"2020-01-31 12:50:56.550786"	"2020-01-31 12:50:57.295566"	76	6.39506583333333
"S200131"	"Conflict_Resolution"	"LEFT"	"LEFT"	603.922399999988	850.0000017	""	n/a	n/a	n/a	"True"	n/a	n/a	"2020-01-31 12:50:58.164240"	"2020-01-31 12:50:58.975703"	77	6.39506583333333
"S200131"	"Conflict_Resolution"	"RIGHT"	"RIGHT"	594.385299999885	1483.3333363	""	n/a	n/a	n/a	"False"	n/a	n/a	"2020-01-31 12:51:00.477944"	"2020-01-31 12:51:01.281157"	78	6.39506583333333
"S200131"	"Conflict_Resolution"	"LEFT"	"LEFT"	451.456899999812	1216.6666691	""	n/a	n/a	n/a	"True"	n/a	n/a	"2020-01-31 12:51:02.517447"	"2020-01-31 12:51:03.175825"	79	6.39506583333333
"S200131"	"Conflict_Resolution"	"LEFT"	"LEFT"	567.2919000001	1366.6666694	""	n/a	n/a	n/a	"False"	n/a	n/a	"2020-01-31 12:51:04.561595"	"2020-01-31 12:51:05.337252"	80	6.39506583333333
"S200131"	"Conflict_Resolution"	"RIGHT"	"RIGHT"	544.190299999855	1083.3333355	""	n/a	n/a	n/a	"True"	n/a	n/a	"2020-01-31 12:51:06.440425"	"2020-01-31 12:51:07.192122"	81	6.39506583333333
"S200131"	"Conflict_Resolution"	"RIGHT"	"RIGHT"	703.405400000065	1133.3333356	""	n/a	n/a	n/a	"True"	n/a	n/a	"2020-01-31 12:51:08.345130"	"2020-01-31 12:51:09.255892"	82	6.39506583333333
"S200131"	"Conflict_Resolution"	"RIGHT"	"RIGHT"	629.840999999942	583.3333345	""	n/a	n/a	n/a	"False"	n/a	n/a	"2020-01-31 12:51:09.859093"	"2020-01-31 12:51:10.696730"	83	6.39506583333333
"S200131"	"Conflict_Resolution"	"LEFT"	"LEFT"	671.358000000055	716.6666681	""	n/a	n/a	n/a	"True"	n/a	n/a	"2020-01-31 12:51:11.433336"	"2020-01-31 12:51:12.311619"	84	6.39506583333333
"S200131"	"Conflict_Resolution"	"LEFT"	"LEFT"	715.797399999929	1050.0000021	""	n/a	n/a	n/a	"True"	n/a	n/a	"2020-01-31 12:51:13.381154"	"2020-01-31 12:51:14.305951"	85	6.39506583333333
"S200131"	"Conflict_Resolution"	"LEFT"	"LEFT"	636.518600000045	1400.0000028	""	n/a	n/a	n/a	"True"	n/a	n/a	"2020-01-31 12:51:15.723952"	"2020-01-31 12:51:16.568883"	86	6.39506583333333
"S200131"	"Conflict_Resolution"	"RIGHT"	"RIGHT"	696.673899999951	1316.6666693	""	n/a	n/a	n/a	"True"	n/a	n/a	"2020-01-31 12:51:17.903575"	"2020-01-31 12:51:18.808018"	87	6.39506583333333
"S200131"	"Conflict_Resolution"	"RIGHT"	"RIGHT"	811.162299999978	650.0000013	""	n/a	n/a	n/a	"True"	n/a	n/a	"2020-01-31 12:51:19.476852"	"2020-01-31 12:51:20.496361"	88	6.39506583333333
"S200131"	"Conflict_Resolution"	"LEFT"	"LEFT"	700.05470000001	633.3333346	""	n/a	n/a	n/a	"True"	n/a	n/a	"2020-01-31 12:51:21.148151"	"2020-01-31 12:51:22.056997"	89	6.39506583333333
"S200131"	"Conflict_Resolution"	"RIGHT"	"RIGHT"	632.235000000037	1483.3333363	""	n/a	n/a	n/a	"True"	n/a	n/a	"2020-01-31 12:51:23.559985"	"2020-01-31 12:51:24.400112"	90	6.39506583333333
"S200131"	"Conflict_Resolution"	"LEFT"	"LEFT"	770.633799999814	1266.6666692	""	n/a	n/a	n/a	"False"	n/a	n/a	"2020-01-31 12:51:25.686259"	"2020-01-31 12:51:26.663802"	91	6.39506583333333
"S200131"	"Conflict_Resolution"	"RIGHT"	"RIGHT"	582.417600000099	1383.3333361	""	n/a	n/a	n/a	"True"	n/a	n/a	"2020-01-31 12:51:28.066368"	"2020-01-31 12:51:28.857508"	92	6.39506583333333
"S200131"	"Conflict_Resolution"	"RIGHT"	"RIGHT"	622.845899999902	550.0000011	""	n/a	n/a	n/a	"True"	n/a	n/a	"2020-01-31 12:51:29.425362"	"2020-01-31 12:51:30.257252"	93	6.39506583333333
"S200131"	"Conflict_Resolution"	"RIGHT"	"RIGHT"	432.27150000007	1466.6666696	""	n/a	n/a	n/a	"True"	n/a	n/a	"2020-01-31 12:51:31.743813"	"2020-01-31 12:51:32.383481"	94	6.39506583333333
"S200131"	"Conflict_Resolution"	"RIGHT"	"RIGHT"	511.787799999865	750.0000015	""	n/a	n/a	n/a	"False"	n/a	n/a	"2020-01-31 12:51:33.153012"	"2020-01-31 12:51:33.873299"	95	6.39506583333333
"S200131"	"Conflict_Resolution"	"RIGHT"	"RIGHT"	444.974799999954	1183.3333357	""	n/a	n/a	n/a	"False"	n/a	n/a	"2020-01-31 12:51:35.075112"	"2020-01-31 12:51:35.728311"	96	6.39506583333333
"S200131"	"Conflict_Resolution"	"LEFT"	"LEFT"	636.661699999877	616.6666679	""	n/a	n/a	n/a	"True"	n/a	n/a	"2020-01-31 12:51:36.364273"	"2020-01-31 12:51:37.207895"	97	6.39506583333333
"S200131"	"Conflict_Resolution"	"LEFT"	"LEFT"	623.707400000058	950.0000019	""	n/a	n/a	n/a	"True"	n/a	n/a	"2020-01-31 12:51:38.177109"	"2020-01-31 12:51:39.008326"	98	6.39506583333333
"S200131"	"Conflict_Resolution"	"LEFT"	"LEFT"	863.88739999984	733.3333348	""	n/a	n/a	n/a	"False"	n/a	n/a	"2020-01-31 12:51:39.761121"	"2020-01-31 12:51:40.833270"	99	6.39506583333333
"S200131"	"Conflict_Resolution"	"RIGHT"	"RIGHT"	805.593100000124	733.3333348	""	n/a	n/a	n/a	"True"	n/a	n/a	"2020-01-31 12:51:41.586508"	"2020-01-31 12:51:42.599748"	100	6.39506583333333
"S200131"	"Conflict_Resolution"	"LEFT"	"LEFT"	485.537399999885	1400.0000028	""	n/a	n/a	n/a	"False"	n/a	n/a	"2020-01-31 12:51:44.018828"	"2020-01-31 12:51:44.711623"	101	6.39506583333333
"S200131"	"Conflict_Resolution"	"RIGHT"	"RIGHT"	600.960600000008	900.0000018	""	n/a	n/a	n/a	"True"	n/a	n/a	"2020-01-31 12:51:45.631966"	"2020-01-31 12:51:46.441103"	102	6.39506583333333
"S200131"	"Conflict_Resolution"	"RIGHT"	"RIGHT"	544.615000000022	933.3333352	""	n/a	n/a	n/a	"True"	n/a	n/a	"2020-01-31 12:51:47.391893"	"2020-01-31 12:51:48.145136"	103	6.39506583333333
"S200131"	"Conflict_Resolution"	"LEFT"	"LEFT"	586.828400000059	1450.0000029	""	n/a	n/a	n/a	"True"	n/a	n/a	"2020-01-31 12:51:49.614284"	"2020-01-31 12:51:50.409226"	104	6.39506583333333
"S200131"	"Conflict_Resolution"	"LEFT"	"LEFT"	892.024600000013	1416.6666695	""	n/a	n/a	n/a	"False"	n/a	n/a	"2020-01-31 12:51:51.844866"	"2020-01-31 12:51:52.944027"	105	6.39506583333333
"S200131"	"Conflict_Resolution"	"LEFT"	"LEFT"	614.699700000074	1366.6666694	""	n/a	n/a	n/a	"True"	n/a	n/a	"2020-01-31 12:51:54.329277"	"2020-01-31 12:51:55.153102"	106	6.39506583333333
"S200131"	"Conflict_Resolution"	"LEFT"	"LEFT"	820.152900000039	766.6666682	""	n/a	n/a	n/a	"True"	n/a	n/a	"2020-01-31 12:51:55.940707"	"2020-01-31 12:51:56.969035"	107	6.39506583333333
"S200131"	"Conflict_Resolution"	"LEFT"	"LEFT"	440.650300000016	1100.0000022	""	n/a	n/a	n/a	"True"	n/a	n/a	"2020-01-31 12:51:58.088415"	"2020-01-31 12:51:58.735675"	108	6.39506583333333
"S200131"	"Conflict_Resolution"	"LEFT"	"LEFT"	461.991699999999	1266.6666692	""	n/a	n/a	n/a	"True"	n/a	n/a	"2020-01-31 12:52:00.026685"	"2020-01-31 12:52:00.695639"	109	6.39506583333333
"S200131"	"Conflict_Resolution"	"RIGHT"	"RIGHT"	725.750599999856	1000.000002	""	n/a	n/a	n/a	"True"	n/a	n/a	"2020-01-31 12:52:01.714651"	"2020-01-31 12:52:02.647568"	110	6.39506583333333
"S200131"	"Conflict_Resolution"	"RIGHT"	"RIGHT"	581.013099999836	1416.6666695	""	n/a	n/a	n/a	"True"	n/a	n/a	"2020-01-31 12:52:04.083694"	"2020-01-31 12:52:04.872325"	111	6.39506583333333
"S200131"	"Conflict_Resolution"	"LEFT"	"LEFT"	643.459300000131	1066.6666688	""	n/a	n/a	n/a	"True"	n/a	n/a	"2020-01-31 12:52:05.956789"	"2020-01-31 12:52:06.808539"	112	6.39506583333333
"S200131"	"Conflict_Resolution"	"RIGHT"	"RIGHT"	736.70889999994	1100.0000022	""	n/a	n/a	n/a	"False"	n/a	n/a	"2020-01-31 12:52:07.927410"	"2020-01-31 12:52:08.871595"	113	6.39506583333333
"S200131"	"Conflict_Resolution"	"LEFT"	"LEFT"	514.277799999945	683.3333347	""	n/a	n/a	n/a	"False"	n/a	n/a	"2020-01-31 12:52:09.574451"	"2020-01-31 12:52:10.296602"	114	6.39506583333333
"S200131"	"Conflict_Resolution"	"RIGHT"	"RIGHT"	478.223200000002	750.0000015	""	n/a	n/a	n/a	"True"	n/a	n/a	"2020-01-31 12:52:11.066127"	"2020-01-31 12:52:11.751774"	115	6.39506583333333
"S200131"	"Conflict_Resolution"	"LEFT"	"LEFT"	793.939199999841	733.3333348	""	n/a	n/a	n/a	"True"	n/a	n/a	"2020-01-31 12:52:12.502767"	"2020-01-31 12:52:13.504588"	116	6.39506583333333
"S200131"	"Conflict_Resolution"	"RIGHT"	"RIGHT"	529.567399999905	883.3333351	""	n/a	n/a	n/a	"True"	n/a	n/a	"2020-01-31 12:52:14.406503"	"2020-01-31 12:52:15.144049"	117	6.39506583333333
"S200131"	"Conflict_Resolution"	"RIGHT"	"RIGHT"	590.322199999946	583.3333345	""	n/a	n/a	n/a	"True"	n/a	n/a	"2020-01-31 12:52:15.746861"	"2020-01-31 12:52:16.545302"	118	6.39506583333333
"S200131"	"Conflict_Resolution"	"RIGHT"	"RIGHT"	598.215399999845	1183.3333357	""	n/a	n/a	n/a	"True"	n/a	n/a	"2020-01-31 12:52:17.745738"	"2020-01-31 12:52:18.552141"	119	6.39506583333333
"S200131"	"Conflict_Resolution"	"LEFT"	"LEFT"	544.375700000046	900.0000018	""	n/a	n/a	n/a	"False"	n/a	n/a	"2020-01-31 12:52:19.472520"	"2020-01-31 12:52:20.223913"	120	6.39506583333333
"S200131"	"Conflict_Resolution"	"RIGHT"	"RIGHT"	716.570199999978	850.0000017	""	n/a	n/a	n/a	"False"	n/a	n/a	"2020-01-31 12:52:21.091554"	"2020-01-31 12:52:22.016185"	121	6.39506583333333
"S200131"	"Conflict_Resolution"	"RIGHT"	"RIGHT"	542.021400000067	600.0000012	""	n/a	n/a	n/a	"True"	n/a	n/a	"2020-01-31 12:52:22.634559"	"2020-01-31 12:52:23.385357"	122	6.39506583333333
"S200131"	"Conflict_Resolution"	"RIGHT"	"RIGHT"	633.196999999882	650.0000013	""	n/a	n/a	n/a	"False"	n/a	n/a	"2020-01-31 12:52:24.055766"	"2020-01-31 12:52:24.896457"	123	6.39506583333333
"S200131"	"Conflict_Resolution"	"LEFT"	"LEFT"	584.324699999797	916.6666685	""	n/a	n/a	n/a	"False"	n/a	n/a	"2020-01-31 12:52:25.831689"	"2020-01-31 12:52:26.624982"	124	6.39506583333333
"S200131"	"Conflict_Resolution"	"RIGHT"	"RIGHT"	610.462499999812	1050.0000021	""	n/a	n/a	n/a	"False"	n/a	n/a	"2020-01-31 12:52:27.693687"	"2020-01-31 12:52:28.514742"	125	6.39506583333333
"S200131"	"Conflict_Resolution"	"LEFT"	"LEFT"	523.239900000135	783.3333349	""	n/a	n/a	n/a	"False"	n/a	n/a	"2020-01-31 12:52:29.317519"	"2020-01-31 12:52:30.049190"	126	6.39506583333333
"S200131"	"Conflict_Resolution"	"LEFT"	"LEFT"	615.558599999986	1150.0000023	""	n/a	n/a	n/a	"False"	n/a	n/a	"2020-01-31 12:52:31.216703"	"2020-01-31 12:52:32.039597"	127	6.39506583333333
"S200131"	"Conflict_Resolution"	"LEFT"	"LEFT"	571.144100000083	1250.0000025	""	n/a	n/a	n/a	"False"	n/a	n/a	"2020-01-31 12:52:33.309574"	"2020-01-31 12:52:34.088671"	128	6.39506583333333
"S200131"	"Conflict_Resolution"	"LEFT"	"LEFT"	552.804000000151	683.3333347	""	n/a	n/a	n/a	"True"	n/a	n/a	"2020-01-31 12:52:34.791448"	"2020-01-31 12:52:35.551580"	129	6.39506583333333
"S200131"	"Conflict_Resolution"	"RIGHT"	"RIGHT"	557.593099999849	1383.3333361	""	n/a	n/a	n/a	"False"	n/a	n/a	"2020-01-31 12:52:36.955083"	"2020-01-31 12:52:37.719613"	130	6.39506583333333
"S200131"	"Conflict_Resolution"	"LEFT"	"LEFT"	761.533099999951	900.0000018	""	n/a	n/a	n/a	"True"	n/a	n/a	"2020-01-31 12:52:38.638886"	"2020-01-31 12:52:39.608998"	131	6.39506583333333
"S200131"	"Conflict_Resolution"	"RIGHT"	"RIGHT"	828.859299999976	800.0000016	""	n/a	n/a	n/a	"False"	n/a	n/a	"2020-01-31 12:52:40.428343"	"2020-01-31 12:52:41.464011"	132	6.39506583333333
"S200131"	"Conflict_Resolution"	"LEFT"	"LEFT"	1369.94459999983	516.6666677	""	n/a	n/a	n/a	"True"	n/a	n/a	"2020-01-31 12:52:41.999124"	"2020-01-31 12:52:43.576570"	133	6.39506583333333
"S200131"	"Conflict_Resolution"	"RIGHT"	"RIGHT"	611.315299999887	1033.3333354	""	n/a	n/a	n/a	"True"	n/a	n/a	"2020-01-31 12:52:44.629134"	"2020-01-31 12:52:45.449162"	134	6.39506583333333
"S200131"	"Conflict_Resolution"	"LEFT"	"LEFT"	476.51309999992	616.6666679	""	n/a	n/a	n/a	"False"	n/a	n/a	"2020-01-31 12:52:46.084261"	"2020-01-31 12:52:46.768410"	135	6.39506583333333
"S200131"	"Conflict_Resolution"	"LEFT"	"LEFT"	565.739500000063	566.6666678	""	n/a	n/a	n/a	"True"	n/a	n/a	"2020-01-31 12:52:47.355155"	"2020-01-31 12:52:48.129052"	136	6.39506583333333
"S200131"	"Conflict_Resolution"	"RIGHT"	"RIGHT"	694.78509999999	950.0000019	""	n/a	n/a	n/a	"True"	n/a	n/a	"2020-01-31 12:52:49.097520"	"2020-01-31 12:52:50.001295"	137	6.39506583333333
"S200131"	"Conflict_Resolution"	"RIGHT"	"RIGHT"	870.533000000023	933.3333352	""	n/a	n/a	n/a	"False"	n/a	n/a	"2020-01-31 12:52:50.954296"	"2020-01-31 12:52:52.031826"	138	6.39506583333333
"S200131"	"Conflict_Resolution"	"RIGHT"	"RIGHT"	569.631300000083	1100.0000022	""	n/a	n/a	n/a	"True"	n/a	n/a	"2020-01-31 12:52:53.150437"	"2020-01-31 12:52:53.927579"	139	6.39506583333333
"S200131"	"Conflict_Resolution"	"LEFT"	"LEFT"	539.539500000046	1216.6666691	""	n/a	n/a	n/a	"False"	n/a	n/a	"2020-01-31 12:52:55.164834"	"2020-01-31 12:52:55.912722"	140	6.39506583333333
"S200131"	"Conflict_Resolution"	"LEFT"	"LEFT"	679.311200000029	533.3333344	""	n/a	n/a	n/a	"True"	n/a	n/a	"2020-01-31 12:52:56.464868"	"2020-01-31 12:52:57.352541"	141	6.39506583333333
"S200131"	"Conflict_Resolution"	"LEFT"	"LEFT"	662.883499999907	1350.0000027	""	n/a	n/a	n/a	"True"	n/a	n/a	"2020-01-31 12:52:58.721455"	"2020-01-31 12:52:59.591713"	142	6.39506583333333
"S200131"	"Conflict_Resolution"	"RIGHT"	"RIGHT"	520.624500000167	1133.3333356	""	n/a	n/a	n/a	"False"	n/a	n/a	"2020-01-31 12:53:00.744260"	"2020-01-31 12:53:01.472610"	143	6.39506583333333
"S200131"	"Conflict_Resolution"	"LEFT"	"LEFT"	584.191900000178	716.6666681	""	n/a	n/a	n/a	"False"	n/a	n/a	"2020-01-31 12:53:02.208869"	"2020-01-31 12:53:03.001231"	144	6.39506583333333
"S200131"	"Conflict_Resolution"	"LEFT"	"LEFT"	591.674299999795	1300.0000026	""	n/a	n/a	n/a	"True"	n/a	n/a	"2020-01-31 12:53:04.320367"	"2020-01-31 12:53:05.121085"	145	6.39506583333333
"S200131"	"Conflict_Resolution"	"RIGHT"	"RIGHT"	564.955000000054	983.3333353	""	n/a	n/a	n/a	"True"	n/a	n/a	"2020-01-31 12:53:06.123594"	"2020-01-31 12:53:06.897075"	146	6.39506583333333
"S200131"	"Conflict_Resolution"	"RIGHT"	"RIGHT"	610.488600000053	1266.6666692	""	n/a	n/a	n/a	"True"	n/a	n/a	"2020-01-31 12:53:08.182008"	"2020-01-31 12:53:09.001401"	147	6.39506583333333
"S200131"	"Conflict_Resolution"	"LEFT"	"LEFT"	740.787499999897	583.3333345	""	n/a	n/a	n/a	"False"	n/a	n/a	"2020-01-31 12:53:09.603785"	"2020-01-31 12:53:10.551954"	148	6.39506583333333
"S200131"	"Conflict_Resolution"	"RIGHT"	"RIGHT"	489.191099999971	683.3333347	""	n/a	n/a	n/a	"False"	n/a	n/a	"2020-01-31 12:53:11.255318"	"2020-01-31 12:53:11.953053"	149	6.39506583333333
"S200131"	"Conflict_Resolution"	"RIGHT"	"RIGHT"	667.565599999989	1416.6666695	""	n/a	n/a	n/a	"False"	n/a	n/a	"2020-01-31 12:53:13.389205"	"2020-01-31 12:53:14.264208"	150	6.39506583333333
"S200131"	"Conflict_Resolution"	"RIGHT"	"RIGHT"	394.032200000083	1083.3333355	""	n/a	n/a	n/a	"False"	n/a	n/a	"2020-01-31 12:53:15.366229"	"2020-01-31 12:53:15.969012"	151	6.39506583333333
"S200131"	"Conflict_Resolution"	"RIGHT"	"RIGHT"	668.899099999862	1216.6666691	""	n/a	n/a	n/a	"True"	n/a	n/a	"2020-01-31 12:53:17.203092"	"2020-01-31 12:53:18.080336"	152	6.39506583333333
"S200131"	"Conflict_Resolution"	"RIGHT"	"RIGHT"	678.871599999866	550.0000011	""	n/a	n/a	n/a	"False"	n/a	n/a	"2020-01-31 12:53:18.649866"	"2020-01-31 12:53:19.537101"	153	6.39506583333333
"S200131"	"Conflict_Resolution"	"RIGHT"	"RIGHT"	643.106599999783	633.3333346	""	n/a	n/a	n/a	"False"	n/a	n/a	"2020-01-31 12:53:20.189804"	"2020-01-31 12:53:21.039576"	154	6.39506583333333
"S200131"	"Conflict_Resolution"	"RIGHT"	"RIGHT"	863.409200000206	1366.6666694	""	n/a	n/a	n/a	"True"	n/a	n/a	"2020-01-31 12:53:22.425267"	"2020-01-31 12:53:23.495634"	155	6.39506583333333
"S200131"	"Conflict_Resolution"	"RIGHT"	"RIGHT"	857.648899999958	533.3333344	""	n/a	n/a	n/a	"False"	n/a	n/a	"2020-01-31 12:53:24.046921"	"2020-01-31 12:53:25.112235"	156	6.39506583333333
"S200131"	"Conflict_Resolution"	"LEFT"	"LEFT"	844.1092999999	666.666668	""	n/a	n/a	n/a	"True"	n/a	n/a	"2020-01-31 12:53:25.796443"	"2020-01-31 12:53:26.849068"	157	6.39506583333333
"S200131"	"Conflict_Resolution"	"LEFT"	"LEFT"	733.317199999874	966.6666686	""	n/a	n/a	n/a	"False"	n/a	n/a	"2020-01-31 12:53:27.835656"	"2020-01-31 12:53:28.777269"	158	6.39506583333333
"S200131"	"Conflict_Resolution"	"LEFT"	"LEFT"	1012.9101	583.3333345	""	n/a	n/a	n/a	"True"	n/a	n/a	"2020-01-31 12:53:29.379997"	"2020-01-31 12:53:30.600703"	159	6.39506583333333
"S200131"	"Conflict_Resolution"	"LEFT"	"LEFT"	687.427200000002	1316.6666693	""	n/a	n/a	n/a	"False"	n/a	n/a	"2020-01-31 12:53:31.937778"	"2020-01-31 12:53:32.833012"	160	6.39506583333333
"S200131"	"Processing_Speed"	"RIGHT"	"Time_Max_Exceeded"	1500.0593	533.3333344	""	n/a	n/a	n/a	n/a	n/a	n/a	"2020-01-31 12:36:37.106935"	"2020-01-31 12:36:38.623917"	1	2.20585401666667
"S200131"	"Processing_Speed"	"LEFT"	"DOWN"	120.489100000015	950.0000019	""	n/a	n/a	n/a	n/a	n/a	n/a	"2020-01-31 12:36:39.582962"	"2020-01-31 12:36:39.911357"	2	2.20585401666667
"S200131"	"Processing_Speed"	"RIGHT"	"DOWN"	315.589899999992	1300.0000026	""	n/a	n/a	n/a	n/a	n/a	n/a	"2020-01-31 12:36:41.219857"	"2020-01-31 12:36:41.742506"	3	2.20585401666667
"S200131"	"Processing_Speed"	"LEFT"	"DOWN"	356.091800000002	1500.000003	""	n/a	n/a	n/a	n/a	n/a	n/a	"2020-01-31 12:36:43.251315"	"2020-01-31 12:36:43.815224"	4	2.20585401666667
"S200131"	"Processing_Speed"	"LEFT"	"DOWN"	352.384900000004	783.3333349	""	n/a	n/a	n/a	n/a	n/a	n/a	"2020-01-31 12:36:44.606687"	"2020-01-31 12:36:45.166536"	5	2.20585401666667
"S200131"	"Processing_Speed"	"RIGHT"	"DOWN"	288.633599999997	783.3333349	""	n/a	n/a	n/a	n/a	n/a	n/a	"2020-01-31 12:36:45.958978"	"2020-01-31 12:36:46.455239"	6	2.20585401666667
"S200131"	"Processing_Speed"	"LEFT"	"DOWN"	252.863000000019	666.666668	""	n/a	n/a	n/a	n/a	n/a	n/a	"2020-01-31 12:36:47.130574"	"2020-01-31 12:36:47.591351"	7	2.20585401666667
"S200131"	"Processing_Speed"	"RIGHT"	"DOWN"	282.304399999987	916.6666685	""	n/a	n/a	n/a	n/a	n/a	n/a	"2020-01-31 12:36:48.516926"	"2020-01-31 12:36:49.007301"	8	2.20585401666667
"S200131"	"Processing_Speed"	"LEFT"	"DOWN"	258.704599999987	916.6666685	""	n/a	n/a	n/a	n/a	n/a	n/a	"2020-01-31 12:36:49.932171"	"2020-01-31 12:36:50.400157"	9	2.20585401666667
"S200131"	"Processing_Speed"	"LEFT"	"DOWN"	361.594300000007	1333.333336	""	n/a	n/a	n/a	n/a	n/a	n/a	"2020-01-31 12:36:51.742471"	"2020-01-31 12:36:52.312267"	10	2.20585401666667
"S200131"	"Processing_Speed"	"RIGHT"	"DOWN"	345.235099999996	1333.333336	""	n/a	n/a	n/a	n/a	n/a	n/a	"2020-01-31 12:36:53.653791"	"2020-01-31 12:36:54.206856"	11	2.20585401666667
"S200131"	"Processing_Speed"	"RIGHT"	"DOWN"	448.774399999991	566.6666678	""	n/a	n/a	n/a	n/a	n/a	n/a	"2020-01-31 12:36:54.782645"	"2020-01-31 12:36:55.439997"	12	2.20585401666667
"S200131"	"Processing_Speed"	"RIGHT"	"DOWN"	306.101899999987	1116.6666689	""	n/a	n/a	n/a	n/a	n/a	n/a	"2020-01-31 12:36:56.564804"	"2020-01-31 12:36:57.079052"	13	2.20585401666667
"S200131"	"Processing_Speed"	"LEFT"	"DOWN"	285.998199999995	1050.0000021	""	n/a	n/a	n/a	n/a	n/a	n/a	"2020-01-31 12:36:58.137534"	"2020-01-31 12:36:58.631447"	14	2.20585401666667
"S200131"	"Processing_Speed"	"RIGHT"	"DOWN"	300.685200000004	1466.6666696	""	n/a	n/a	n/a	n/a	n/a	n/a	"2020-01-31 12:37:00.107001"	"2020-01-31 12:37:00.616208"	15	2.20585401666667
"S200131"	"Processing_Speed"	"RIGHT"	"DOWN"	297.338499999995	1500.000003	""	n/a	n/a	n/a	n/a	n/a	n/a	"2020-01-31 12:37:02.126318"	"2020-01-31 12:37:02.631856"	16	2.20585401666667
"S200131"	"Processing_Speed"	"LEFT"	"DOWN"	321.056700000014	1116.6666689	""	n/a	n/a	n/a	n/a	n/a	n/a	"2020-01-31 12:37:03.758032"	"2020-01-31 12:37:04.287265"	17	2.20585401666667
"S200131"	"Processing_Speed"	"LEFT"	"DOWN"	294.918199999984	1216.6666691	""	n/a	n/a	n/a	n/a	n/a	n/a	"2020-01-31 12:37:05.512782"	"2020-01-31 12:37:06.015754"	18	2.20585401666667
"S200131"	"Processing_Speed"	"LEFT"	"DOWN"	684.806699999996	1466.6666696	"DOWN"	-86.87	n/a	n/a	n/a	n/a	n/a	"2020-01-31 12:37:07.490522"	"2020-01-31 12:37:08.384142"	19	2.20585401666667
"S200131"	"Processing_Speed"	"RIGHT"	"DOWN"	312.853500000017	950.0000019	""	n/a	n/a	n/a	n/a	n/a	n/a	"2020-01-31 12:37:09.342962"	"2020-01-31 12:37:09.864412"	20	2.20585401666667
"S200131"	"Processing_Speed"	"LEFT"	"DOWN"	398.694500000005	600.0000012	""	n/a	n/a	n/a	n/a	n/a	n/a	"2020-01-31 12:37:10.472475"	"2020-01-31 12:37:11.079359"	21	2.20585401666667
"S200131"	"Processing_Speed"	"RIGHT"	"DOWN"	264.195200000017	1183.3333357	""	n/a	n/a	n/a	n/a	n/a	n/a	"2020-01-31 12:37:12.271594"	"2020-01-31 12:37:12.744440"	22	2.20585401666667
"S200131"	"Processing_Speed"	"LEFT"	"DOWN"	278.432100000003	1400.0000028	""	n/a	n/a	n/a	n/a	n/a	n/a	"2020-01-31 12:37:14.153001"	"2020-01-31 12:37:14.638737"	23	2.20585401666667
"S200131"	"Processing_Speed"	"LEFT"	"DOWN"	375.453300000004	816.6666683	""	n/a	n/a	n/a	n/a	n/a	n/a	"2020-01-31 12:37:15.464039"	"2020-01-31 12:37:16.046487"	24	2.20585401666667
"S200131"	"Processing_Speed"	"LEFT"	"DOWN"	304.901999999998	1183.3333357	""	n/a	n/a	n/a	n/a	n/a	n/a	"2020-01-31 12:37:17.238579"	"2020-01-31 12:37:17.752336"	25	2.20585401666667
"S200131"	"Processing_Speed"	"RIGHT"	"DOWN"	285.975799999989	1216.6666691	""	n/a	n/a	n/a	n/a	n/a	n/a	"2020-01-31 12:37:18.977554"	"2020-01-31 12:37:19.470751"	26	2.20585401666667
"S200131"	"Processing_Speed"	"RIGHT"	"DOWN"	356.290400000006	700.0000014	""	n/a	n/a	n/a	n/a	n/a	n/a	"2020-01-31 12:37:20.179738"	"2020-01-31 12:37:20.742867"	27	2.20585401666667
"S200131"	"Processing_Speed"	"RIGHT"	"DOWN"	319.136200000003	1016.6666687	""	n/a	n/a	n/a	n/a	n/a	n/a	"2020-01-31 12:37:21.767705"	"2020-01-31 12:37:22.295993"	28	2.20585401666667
"S200131"	"Processing_Speed"	"RIGHT"	"DOWN"	282.356800000002	883.3333351	""	n/a	n/a	n/a	n/a	n/a	n/a	"2020-01-31 12:37:23.188890"	"2020-01-31 12:37:23.678586"	29	2.20585401666667
"S200131"	"Processing_Speed"	"LEFT"	"DOWN"	279.477200000002	983.3333353	""	n/a	n/a	n/a	n/a	n/a	n/a	"2020-01-31 12:37:24.672500"	"2020-01-31 12:37:25.158633"	30	2.20585401666667
"S200131"	"Processing_Speed"	"RIGHT"	"DOWN"	318.761999999992	633.3333346	""	n/a	n/a	n/a	n/a	n/a	n/a	"2020-01-31 12:37:25.800964"	"2020-01-31 12:37:26.327362"	31	2.20585401666667
"S200131"	"Processing_Speed"	"RIGHT"	"DOWN"	305.586799999986	1150.0000023	""	n/a	n/a	n/a	n/a	n/a	n/a	"2020-01-31 12:37:27.485812"	"2020-01-31 12:37:28.000234"	32	2.20585401666667
"S200131"	"Processing_Speed"	"RIGHT"	"DOWN"	310.267900000014	600.0000012	""	n/a	n/a	n/a	n/a	n/a	n/a	"2020-01-31 12:37:28.608764"	"2020-01-31 12:37:29.127960"	33	2.20585401666667
"S200131"	"Processing_Speed"	"RIGHT"	"DOWN"	301.579999999973	1433.3333362	""	n/a	n/a	n/a	n/a	n/a	n/a	"2020-01-31 12:37:30.570242"	"2020-01-31 12:37:31.078885"	34	2.20585401666667
"S200131"	"Processing_Speed"	"LEFT"	"DOWN"	284.281399999998	883.3333351	""	n/a	n/a	n/a	n/a	n/a	n/a	"2020-01-31 12:37:31.971297"	"2020-01-31 12:37:32.464106"	35	2.20585401666667
"S200131"	"Processing_Speed"	"RIGHT"	"DOWN"	330.828300000007	500.000001	""	n/a	n/a	n/a	n/a	n/a	n/a	"2020-01-31 12:37:32.972485"	"2020-01-31 12:37:33.510616"	36	2.20585401666667
"S200131"	"Processing_Speed"	"LEFT"	"DOWN"	225.639099999995	1366.6666694	""	n/a	n/a	n/a	n/a	n/a	n/a	"2020-01-31 12:37:34.885475"	"2020-01-31 12:37:35.320444"	37	2.20585401666667
"S200131"	"Processing_Speed"	"LEFT"	"DOWN"	293.501399999997	1016.6666687	""	n/a	n/a	n/a	n/a	n/a	n/a	"2020-01-31 12:37:36.345771"	"2020-01-31 12:37:36.847443"	38	2.20585401666667
"S200131"	"Processing_Speed"	"RIGHT"	"DOWN"	248.051599999997	983.3333353	""	n/a	n/a	n/a	n/a	n/a	n/a	"2020-01-31 12:37:37.839706"	"2020-01-31 12:37:38.295505"	39	2.20585401666667
"S200131"	"Processing_Speed"	"LEFT"	"DOWN"	286.077399999982	633.3333346	""	n/a	n/a	n/a	n/a	n/a	n/a	"2020-01-31 12:37:38.936904"	"2020-01-31 12:37:39.430918"	40	2.20585401666667
"S200131"	"Processing_Speed"	"RIGHT"	"DOWN"	262.196399999993	666.666668	""	n/a	n/a	n/a	n/a	n/a	n/a	"2020-01-31 12:37:40.106563"	"2020-01-31 12:37:40.576222"	41	2.20585401666667
"S200131"	"Processing_Speed"	"RIGHT"	"DOWN"	291.519900000026	1083.3333355	""	n/a	n/a	n/a	n/a	n/a	n/a	"2020-01-31 12:37:41.667655"	"2020-01-31 12:37:42.166907"	42	2.20585401666667
"S200131"	"Processing_Speed"	"RIGHT"	"DOWN"	274.322899999987	733.3333348	""	n/a	n/a	n/a	n/a	n/a	n/a	"2020-01-31 12:37:42.909003"	"2020-01-31 12:37:43.391410"	43	2.20585401666667
"S200131"	"Processing_Speed"	"LEFT"	"DOWN"	457.083100000006	566.6666678	""	n/a	n/a	n/a	n/a	n/a	n/a	"2020-01-31 12:37:43.966157"	"2020-01-31 12:37:44.630517"	44	2.20585401666667
"S200131"	"Processing_Speed"	"LEFT"	"DOWN"	354.500600000023	533.3333344	""	n/a	n/a	n/a	n/a	n/a	n/a	"2020-01-31 12:37:45.173433"	"2020-01-31 12:37:45.736124"	45	2.20585401666667
"S200131"	"Processing_Speed"	"LEFT"	"DOWN"	275.244700000002	1083.3333355	""	n/a	n/a	n/a	n/a	n/a	n/a	"2020-01-31 12:37:46.828280"	"2020-01-31 12:37:47.312150"	46	2.20585401666667
"S200131"	"Processing_Speed"	"RIGHT"	"DOWN"	254.738099999997	1400.0000028	""	n/a	n/a	n/a	n/a	n/a	n/a	"2020-01-31 12:37:48.720248"	"2020-01-31 12:37:49.182681"	47	2.20585401666667
"S200131"	"Processing_Speed"	"LEFT"	"DOWN"	332.035299999973	500.000001	""	n/a	n/a	n/a	n/a	n/a	n/a	"2020-01-31 12:37:49.691322"	"2020-01-31 12:37:50.231954"	48	2.20585401666667
"S200131"	"Processing_Speed"	"LEFT"	"DOWN"	296.558699999991	1150.0000023	""	n/a	n/a	n/a	n/a	n/a	n/a	"2020-01-31 12:37:51.390360"	"2020-01-31 12:37:51.896120"	49	2.20585401666667
"S200131"	"Processing_Speed"	"RIGHT"	"DOWN"	260.676799999999	850.0000017	""	n/a	n/a	n/a	n/a	n/a	n/a	"2020-01-31 12:37:52.754449"	"2020-01-31 12:37:53.224175"	50	2.20585401666667
"S200131"	"Processing_Speed"	"RIGHT"	"DOWN"	309.974299999993	816.6666683	""	n/a	n/a	n/a	n/a	n/a	n/a	"2020-01-31 12:37:54.049371"	"2020-01-31 12:37:54.567265"	51	2.20585401666667
"S200131"	"Processing_Speed"	"LEFT"	"DOWN"	237.436500000001	850.0000017	""	n/a	n/a	n/a	n/a	n/a	n/a	"2020-01-31 12:37:55.426071"	"2020-01-31 12:37:55.871971"	52	2.20585401666667
"S200131"	"Processing_Speed"	"RIGHT"	"DOWN"	524.06240000002	1266.6666692	"DOWN"	-118.738	n/a	n/a	n/a	n/a	n/a	"2020-01-31 12:37:57.147219"	"2020-01-31 12:37:57.879916"	53	2.20585401666667
"S200131"	"Processing_Speed"	"LEFT"	"DOWN"	268.310200000002	1266.6666692	""	n/a	n/a	n/a	n/a	n/a	n/a	"2020-01-31 12:37:59.155315"	"2020-01-31 12:37:59.632123"	54	2.20585401666667
"S200131"	"Processing_Speed"	"RIGHT"	"DOWN"	309.040599999975	1050.0000021	""	n/a	n/a	n/a	n/a	n/a	n/a	"2020-01-31 12:38:00.690540"	"2020-01-31 12:38:01.206899"	55	2.20585401666667
"S200131"	"Processing_Speed"	"LEFT"	"DOWN"	284.415599999988	1300.0000026	""	n/a	n/a	n/a	n/a	n/a	n/a	"2020-01-31 12:38:02.515026"	"2020-01-31 12:38:03.008419"	56	2.20585401666667
"S200131"	"Processing_Speed"	"LEFT"	"DOWN"	394.665000000003	700.0000014	""	n/a	n/a	n/a	n/a	n/a	n/a	"2020-01-31 12:38:03.716649"	"2020-01-31 12:38:04.318695"	57	2.20585401666667
"S200131"	"Processing_Speed"	"LEFT"	"DOWN"	275.114099999996	733.3333348	""	n/a	n/a	n/a	n/a	n/a	n/a	"2020-01-31 12:38:05.060318"	"2020-01-31 12:38:05.544032"	58	2.20585401666667
"S200131"	"Processing_Speed"	"LEFT"	"DOWN"	285.550900000004	1433.3333362	""	n/a	n/a	n/a	n/a	n/a	n/a	"2020-01-31 12:38:06.986239"	"2020-01-31 12:38:07.479280"	59	2.20585401666667
"S200131"	"Processing_Speed"	"RIGHT"	"DOWN"	288.938800000011	1366.6666694	""	n/a	n/a	n/a	n/a	n/a	n/a	"2020-01-31 12:38:08.854719"	"2020-01-31 12:38:09.351541"	60	2.20585401666667
"S200131"	"Response_Inhibition"	"RIGHT"	"RIGHT"	1035.16300000001	550.0000011	""	n/a	n/a	n/a	n/a	n/a	n/a	"2020-01-31 12:41:46.876946"	"2020-01-31 12:41:48.120203"	1	6.14249
"S200131"	"Response_Inhibition"	"RIGHT"	"RIGHT"	426.079399999992	1100.0000022	""	n/a	n/a	n/a	n/a	n/a	n/a	"2020-01-31 12:41:49.229713"	"2020-01-31 12:41:49.864449"	2	6.14249
"S200131"	"Response_Inhibition"	"RIGHT"	"RIGHT"	382.443000000023	1000.000002	""	n/a	n/a	n/a	n/a	n/a	n/a	"2020-01-31 12:41:50.873052"	"2020-01-31 12:41:51.463589"	3	6.14249
"S200131"	"Response_Inhibition"	"LEFT"	"LEFT"	531.940299999974	1483.3333363	""	n/a	n/a	n/a	n/a	n/a	n/a	"2020-01-31 12:41:52.955369"	"2020-01-31 12:41:53.695555"	4	6.14249
"S200131"	"Response_Inhibition"	"LEFT"	"LEFT"	407.0471	1416.6666695	""	n/a	n/a	n/a	n/a	n/a	n/a	"2020-01-31 12:41:55.120403"	"2020-01-31 12:41:55.735331"	5	6.14249
"S200131"	"Response_Inhibition"	"LEFT"	"LEFT"	504.723033899975	683.3333347	""	n/a	n/a	n/a	n/a	n/a	n/a	"2020-01-31 12:41:56.427607"	"2020-01-31 12:41:57.142913"	6	6.14249
"S200131"	"Response_Inhibition"	"RIGHT"	"RIGHT"	619.232099999977	1133.3333356	""	n/a	n/a	n/a	n/a	n/a	n/a	"2020-01-31 12:41:58.284323"	"2020-01-31 12:41:59.110570"	7	6.14249
"S200131"	"Response_Inhibition"	"LEFT"	"LEFT"	482.580300600041	1466.6666696	""	n/a	n/a	n/a	n/a	n/a	n/a	"2020-01-31 12:42:00.585727"	"2020-01-31 12:42:01.280443"	8	6.14249
"S200131"	"Response_Inhibition"	"RIGHT"	"RIGHT"	927.351699999974	1200.0000024	""	n/a	n/a	n/a	n/a	n/a	n/a	"2020-01-31 12:42:02.489094"	"2020-01-31 12:42:03.624034"	9	6.14249
"S200131"	"Response_Inhibition"	"LEFT"	"LEFT"	987.548199999992	683.3333347	""	n/a	n/a	n/a	n/a	n/a	n/a	"2020-01-31 12:42:04.316361"	"2020-01-31 12:42:05.512215"	10	6.14249
"S200131"	"Response_Inhibition"	"LEFT"	"Time_Max_Exceeded"	1500.0573339	533.3333344	""	n/a	n/a	n/a	n/a	n/a	n/a	"2020-01-31 12:42:06.054440"	"2020-01-31 12:42:07.557086"	11	6.14249
"S200131"	"Response_Inhibition"	"LEFT"	"LEFT"	950.96540000003	666.666668	""	n/a	n/a	n/a	n/a	n/a	n/a	"2020-01-31 12:42:08.233019"	"2020-01-31 12:42:09.392238"	12	6.14249
"S200131"	"Response_Inhibition"	"RIGHT"	"RIGHT"	655.536700000027	1000.000002	""	n/a	n/a	n/a	n/a	n/a	n/a	"2020-01-31 12:42:10.400925"	"2020-01-31 12:42:11.265263"	13	6.14249
"S200131"	"Response_Inhibition"	"LEFT"	"Time_Max_Exceeded"	1500.09056719999	833.333335	""	n/a	n/a	n/a	n/a	n/a	n/a	"2020-01-31 12:42:12.107332"	"2020-01-31 12:42:13.610860"	14	6.14249
"S200131"	"Response_Inhibition"	"RIGHT"	"RIGHT"	954.704699999979	1416.6666695	""	n/a	n/a	n/a	n/a	n/a	n/a	"2020-01-31 12:42:15.037469"	"2020-01-31 12:42:16.199930"	15	6.14249
"S200131"	"Response_Inhibition"	"RIGHT"	"Time_Max_Exceeded"	1500.05343399996	700.0000014	""	n/a	n/a	n/a	n/a	n/a	n/a	"2020-01-31 12:42:16.909700"	"2020-01-31 12:42:18.413314"	16	6.14249
"S200131"	"Response_Inhibition"	"LEFT"	"LEFT"	1277.64610000003	1283.3333359	""	n/a	n/a	n/a	n/a	n/a	n/a	"2020-01-31 12:42:19.706446"	"2020-01-31 12:42:21.191802"	17	6.14249
"S200131"	"Response_Inhibition"	"RIGHT"	"Time_Max_Exceeded"	1500.08299999996	1250.0000025	""	n/a	n/a	n/a	n/a	n/a	n/a	"2020-01-31 12:42:22.451721"	"2020-01-31 12:42:23.952044"	18	6.14249
"S200131"	"Response_Inhibition"	"RIGHT"	"RIGHT"	490.989500000012	1316.6666693	"RIGHT"	-720.521	n/a	n/a	n/a	n/a	n/a	"2020-01-31 12:42:25.276775"	"2020-01-31 12:42:25.975803"	19	6.14249
"S200131"	"Response_Inhibition"	"RIGHT"	"Time_Max_Exceeded"	1500.06640000004	650.0000013	""	n/a	n/a	n/a	n/a	n/a	n/a	"2020-01-31 12:42:26.635081"	"2020-01-31 12:42:28.134798"	20	6.14249
"S200131"	"Response_Inhibition"	"RIGHT"	"RIGHT"	887.511899999936	816.6666683	"RIGHT"	-156.58	n/a	n/a	n/a	n/a	n/a	"2020-01-31 12:42:28.960632"	"2020-01-31 12:42:30.056465"	21	6.14249
"S200131"	"Response_Inhibition"	"RIGHT"	"Time_Max_Exceeded"	1500.04590009996	1266.6666692	""	n/a	n/a	n/a	n/a	n/a	n/a	"2020-01-31 12:42:31.333009"	"2020-01-31 12:42:32.836995"	22	6.14249
"S200131"	"Response_Inhibition"	"RIGHT"	"RIGHT"	1315.55949999995	950.0000019	""	n/a	n/a	n/a	n/a	n/a	n/a	"2020-01-31 12:42:33.796076"	"2020-01-31 12:42:35.320482"	23	6.14249
"S200131"	"Response_Inhibition"	"LEFT"	"LEFT"	740.465799999924	866.6666684	""	n/a	n/a	n/a	n/a	n/a	n/a	"2020-01-31 12:42:36.195121"	"2020-01-31 12:42:37.144431"	24	6.14249
"S200131"	"Response_Inhibition"	"RIGHT"	"RIGHT"	466.842199999974	500.000001	""	n/a	n/a	n/a	n/a	n/a	n/a	"2020-01-31 12:42:37.653068"	"2020-01-31 12:42:38.326799"	25	6.14249
"S200131"	"Response_Inhibition"	"LEFT"	"LEFT"	835.199099999954	1133.3333356	""	n/a	n/a	n/a	n/a	n/a	n/a	"2020-01-31 12:42:39.468928"	"2020-01-31 12:42:40.513021"	26	6.14249
"S200131"	"Response_Inhibition"	"LEFT"	"LEFT"	384.994667099974	1450.0000029	""	n/a	n/a	n/a	n/a	n/a	n/a	"2020-01-31 12:42:41.971996"	"2020-01-31 12:42:42.568983"	27	6.14249
"S200131"	"Response_Inhibition"	"LEFT"	"LEFT"	665.46059999996	1116.6666689	""	n/a	n/a	n/a	n/a	n/a	n/a	"2020-01-31 12:42:43.694609"	"2020-01-31 12:42:44.568426"	28	6.14249
"S200131"	"Response_Inhibition"	"RIGHT"	"RIGHT"	550.614600000017	600.0000012	""	n/a	n/a	n/a	n/a	n/a	n/a	"2020-01-31 12:42:45.176960"	"2020-01-31 12:42:45.935477"	29	6.14249
"S200131"	"Response_Inhibition"	"LEFT"	"LEFT"	599.206299999992	1416.6666695	""	n/a	n/a	n/a	n/a	n/a	n/a	"2020-01-31 12:42:47.361031"	"2020-01-31 12:42:48.166892"	30	6.14249
"S200131"	"Response_Inhibition"	"RIGHT"	"Time_Max_Exceeded"	1500.04893389993	866.6666684	""	n/a	n/a	n/a	n/a	n/a	n/a	"2020-01-31 12:42:49.041653"	"2020-01-31 12:42:50.544850"	31	6.14249
"S200131"	"Response_Inhibition"	"RIGHT"	"RIGHT"	826.754000000051	1466.6666696	""	n/a	n/a	n/a	n/a	n/a	n/a	"2020-01-31 12:42:52.021261"	"2020-01-31 12:42:53.055972"	32	6.14249
"S200131"	"Response_Inhibition"	"RIGHT"	"Time_Max_Exceeded"	1500.05786700005	900.0000018	""	n/a	n/a	n/a	n/a	n/a	n/a	"2020-01-31 12:42:53.965291"	"2020-01-31 12:42:55.468472"	33	6.14249
"S200131"	"Response_Inhibition"	"LEFT"	"LEFT"	733.121499999925	533.3333344	""	n/a	n/a	n/a	n/a	n/a	n/a	"2020-01-31 12:42:56.011728"	"2020-01-31 12:42:56.953246"	34	6.14249
"S200131"	"Response_Inhibition"	"RIGHT"	"RIGHT"	728.601599999934	733.3333348	""	n/a	n/a	n/a	n/a	n/a	n/a	"2020-01-31 12:42:57.695454"	"2020-01-31 12:42:58.633392"	35	6.14249
"S200131"	"Response_Inhibition"	"RIGHT"	"Time_Max_Exceeded"	1500.05873380004	1233.3333358	""	n/a	n/a	n/a	n/a	n/a	n/a	"2020-01-31 12:42:59.874907"	"2020-01-31 12:43:01.378258"	36	6.14249
"S200131"	"Response_Inhibition"	"RIGHT"	"Time_Max_Exceeded"	1500.0571671	833.333335	""	n/a	n/a	n/a	n/a	n/a	n/a	"2020-01-31 12:43:02.220614"	"2020-01-31 12:43:03.723934"	37	6.14249
"S200131"	"Response_Inhibition"	"LEFT"	"Time_Max_Exceeded"	1500.05520059995	550.0000011	""	n/a	n/a	n/a	n/a	n/a	n/a	"2020-01-31 12:43:04.283090"	"2020-01-31 12:43:05.786691"	38	6.14249
"S200131"	"Response_Inhibition"	"LEFT"	"LEFT"	744.269600000052	1466.6666696	""	n/a	n/a	n/a	n/a	n/a	n/a	"2020-01-31 12:43:07.263832"	"2020-01-31 12:43:08.215489"	39	6.14249
"S200131"	"Response_Inhibition"	"RIGHT"	"Time_Max_Exceeded"	1500.05420029993	1150.0000023	""	n/a	n/a	n/a	n/a	n/a	n/a	"2020-01-31 12:43:09.373624"	"2020-01-31 12:43:10.877085"	40	6.14249
"S200131"	"Response_Inhibition"	"LEFT"	"Time_Max_Exceeded"	1500.04670039994	1300.0000026	""	n/a	n/a	n/a	n/a	n/a	n/a	"2020-01-31 12:43:12.186505"	"2020-01-31 12:43:13.689642"	41	6.14249
"S200131"	"Response_Inhibition"	"LEFT"	"LEFT"	624.228000000016	716.6666681	""	n/a	n/a	n/a	n/a	n/a	n/a	"2020-01-31 12:43:14.415891"	"2020-01-31 12:43:15.246615"	42	6.14249
"S200131"	"Response_Inhibition"	"LEFT"	"LEFT"	984.49190000008	800.0000016	""	n/a	n/a	n/a	n/a	n/a	n/a	"2020-01-31 12:43:16.055598"	"2020-01-31 12:43:17.248039"	43	6.14249
"S200131"	"Response_Inhibition"	"LEFT"	"LEFT"	664.684000000079	950.0000019	""	n/a	n/a	n/a	n/a	n/a	n/a	"2020-01-31 12:43:18.206701"	"2020-01-31 12:43:19.080249"	44	6.14249
"S200131"	"Response_Inhibition"	"RIGHT"	"RIGHT"	649.368799999934	533.3333344	""	n/a	n/a	n/a	n/a	n/a	n/a	"2020-01-31 12:43:19.622881"	"2020-01-31 12:43:20.480048"	45	6.14249
"S200131"	"Response_Inhibition"	"RIGHT"	"RIGHT"	532.261999999946	850.0000017	""	n/a	n/a	n/a	n/a	n/a	n/a	"2020-01-31 12:43:21.339941"	"2020-01-31 12:43:22.080190"	46	6.14249
"S200131"	"Response_Inhibition"	"RIGHT"	"RIGHT"	404.270599999904	1466.6666696	""	n/a	n/a	n/a	n/a	n/a	n/a	"2020-01-31 12:43:23.555820"	"2020-01-31 12:43:24.168421"	47	6.14249
"S200131"	"Response_Inhibition"	"RIGHT"	"RIGHT"	398.287500000038	1216.6666691	""	n/a	n/a	n/a	n/a	n/a	n/a	"2020-01-31 12:43:25.393703"	"2020-01-31 12:43:25.999831"	48	6.14249
"S200131"	"Response_Inhibition"	"LEFT"	"LEFT"	752.763500000015	566.6666678	""	n/a	n/a	n/a	n/a	n/a	n/a	"2020-01-31 12:43:26.575291"	"2020-01-31 12:43:27.534937"	49	6.14249
"S200131"	"Response_Inhibition"	"LEFT"	"LEFT"	513.793699999951	1366.6666694	""	n/a	n/a	n/a	n/a	n/a	n/a	"2020-01-31 12:43:28.909697"	"2020-01-31 12:43:29.631517"	50	6.14249
"S200131"	"Response_Inhibition"	"RIGHT"	"RIGHT"	367.456500000003	1400.0000028	""	n/a	n/a	n/a	n/a	n/a	n/a	"2020-01-31 12:43:31.041194"	"2020-01-31 12:43:31.616236"	51	6.14249
"S200131"	"Response_Inhibition"	"RIGHT"	"RIGHT"	427.794800000015	1266.6666692	""	n/a	n/a	n/a	n/a	n/a	n/a	"2020-01-31 12:43:32.892480"	"2020-01-31 12:43:33.528346"	52	6.14249
"S200131"	"Response_Inhibition"	"LEFT"	"LEFT"	389.123500000096	1250.0000025	""	n/a	n/a	n/a	n/a	n/a	n/a	"2020-01-31 12:43:34.787410"	"2020-01-31 12:43:35.384164"	53	6.14249
"S200131"	"Response_Inhibition"	"RIGHT"	"RIGHT"	523.861599999918	683.3333347	""	n/a	n/a	n/a	n/a	n/a	n/a	"2020-01-31 12:43:36.076420"	"2020-01-31 12:43:36.808074"	54	6.14249
"S200131"	"Response_Inhibition"	"RIGHT"	"Time_Max_Exceeded"	1500.04963349996	1450.0000029	""	n/a	n/a	n/a	n/a	n/a	n/a	"2020-01-31 12:43:38.266809"	"2020-01-31 12:43:39.770200"	55	6.14249
"S200131"	"Response_Inhibition"	"LEFT"	"Time_Max_Exceeded"	1500.04650050005	1233.3333358	""	n/a	n/a	n/a	n/a	n/a	n/a	"2020-01-31 12:43:41.012567"	"2020-01-31 12:43:42.515879"	56	6.14249
"S200131"	"Response_Inhibition"	"LEFT"	"LEFT"	723.135500000012	783.3333349	""	n/a	n/a	n/a	n/a	n/a	n/a	"2020-01-31 12:43:43.308826"	"2020-01-31 12:43:44.239689"	57	6.14249
"S200131"	"Response_Inhibition"	"LEFT"	"Time_Max_Exceeded"	1500.04803340001	1150.0000023	""	n/a	n/a	n/a	n/a	n/a	n/a	"2020-01-31 12:43:45.399276"	"2020-01-31 12:43:46.903090"	58	6.14249
"S200131"	"Response_Inhibition"	"RIGHT"	"RIGHT"	587.646199999995	1100.0000022	""	n/a	n/a	n/a	n/a	n/a	n/a	"2020-01-31 12:43:48.012252"	"2020-01-31 12:43:48.808089"	59	6.14249
"S200131"	"Response_Inhibition"	"LEFT"	"Time_Max_Exceeded"	1500.05333370003	1000.000002	""	n/a	n/a	n/a	n/a	n/a	n/a	"2020-01-31 12:43:49.816364"	"2020-01-31 12:43:51.319612"	60	6.14249
"S200131"	"Response_Inhibition"	"RIGHT"	"RIGHT"	473.877099999982	916.6666685	""	n/a	n/a	n/a	n/a	n/a	n/a	"2020-01-31 12:43:52.245490"	"2020-01-31 12:43:52.928324"	61	6.14249
"S200131"	"Response_Inhibition"	"LEFT"	"Time_Max_Exceeded"	1500.05380050005	850.0000017	""	n/a	n/a	n/a	n/a	n/a	n/a	"2020-01-31 12:43:53.786682"	"2020-01-31 12:43:55.290159"	62	6.14249
"S200131"	"Response_Inhibition"	"RIGHT"	"RIGHT"	401.564600399983	983.3333353	""	n/a	n/a	n/a	n/a	n/a	n/a	"2020-01-31 12:43:56.283290"	"2020-01-31 12:43:56.895651"	63	6.14249
"S200131"	"Response_Inhibition"	"LEFT"	"LEFT"	809.146499999997	766.6666682	""	n/a	n/a	n/a	n/a	n/a	n/a	"2020-01-31 12:43:57.671375"	"2020-01-31 12:43:58.686827"	64	6.14249
"S200131"	"Response_Inhibition"	"RIGHT"	"Time_Max_Exceeded"	1500.04696680007	783.3333349	""	n/a	n/a	n/a	n/a	n/a	n/a	"2020-01-31 12:43:59.478937"	"2020-01-31 12:44:00.982335"	65	6.14249
"S200131"	"Response_Inhibition"	"RIGHT"	"RIGHT"	745.432300000061	1166.666669	""	n/a	n/a	n/a	n/a	n/a	n/a	"2020-01-31 12:44:02.158472"	"2020-01-31 12:44:03.112200"	66	6.14249
"S200131"	"Response_Inhibition"	"LEFT"	"LEFT"	611.435899999947	900.0000018	""	n/a	n/a	n/a	n/a	n/a	n/a	"2020-01-31 12:44:04.020633"	"2020-01-31 12:44:04.840848"	67	6.14249
"S200131"	"Response_Inhibition"	"RIGHT"	"RIGHT"	865.892700000018	716.6666681	""	n/a	n/a	n/a	n/a	n/a	n/a	"2020-01-31 12:44:05.565875"	"2020-01-31 12:44:06.640369"	68	6.14249
"S200131"	"Response_Inhibition"	"RIGHT"	"RIGHT"	631.383000000028	1150.0000023	""	n/a	n/a	n/a	n/a	n/a	n/a	"2020-01-31 12:44:07.800204"	"2020-01-31 12:44:08.639593"	69	6.14249
"S200131"	"Response_Inhibition"	"RIGHT"	"RIGHT"	441.208299999971	966.6666686	""	n/a	n/a	n/a	n/a	n/a	n/a	"2020-01-31 12:44:09.614305"	"2020-01-31 12:44:10.264273"	70	6.14249
"S200131"	"Response_Inhibition"	"LEFT"	"LEFT"	529.713900000047	1316.6666693	""	n/a	n/a	n/a	n/a	n/a	n/a	"2020-01-31 12:44:11.590240"	"2020-01-31 12:44:12.327944"	71	6.14249
"S200131"	"Response_Inhibition"	"LEFT"	"LEFT"	453.002200000014	1066.6666688	""	n/a	n/a	n/a	n/a	n/a	n/a	"2020-01-31 12:44:13.402723"	"2020-01-31 12:44:14.063569"	72	6.14249
"S200131"	"Response_Inhibition"	"LEFT"	"LEFT"	331.765399999995	1500.000003	""	n/a	n/a	n/a	n/a	n/a	n/a	"2020-01-31 12:44:15.571931"	"2020-01-31 12:44:16.111522"	73	6.14249
"S200131"	"Response_Inhibition"	"LEFT"	"LEFT"	525.786499999981	650.0000013	""	n/a	n/a	n/a	n/a	n/a	n/a	"2020-01-31 12:44:16.769912"	"2020-01-31 12:44:17.502908"	74	6.14249
"S200131"	"Response_Inhibition"	"LEFT"	"LEFT"	366.196000000059	1266.6666692	""	n/a	n/a	n/a	n/a	n/a	n/a	"2020-01-31 12:44:18.777966"	"2020-01-31 12:44:19.350736"	75	6.14249
"S200131"	"Response_Inhibition"	"RIGHT"	"RIGHT"	462.358800400015	1383.3333361	""	n/a	n/a	n/a	n/a	n/a	n/a	"2020-01-31 12:44:20.742839"	"2020-01-31 12:44:21.415704"	76	6.14249
"S200131"	"Response_Inhibition"	"RIGHT"	"Time_Max_Exceeded"	1500.06313339994	666.666668	""	n/a	n/a	n/a	n/a	n/a	n/a	"2020-01-31 12:44:22.091358"	"2020-01-31 12:44:23.595014"	77	6.14249
"S200131"	"Response_Inhibition"	"RIGHT"	"Time_Max_Exceeded"	1500.10479999992	633.3333346	""	n/a	n/a	n/a	n/a	n/a	n/a	"2020-01-31 12:44:24.238277"	"2020-01-31 12:44:25.738379"	78	6.14249
"S200131"	"Response_Inhibition"	"RIGHT"	"RIGHT"	621.642000000065	933.3333352	""	n/a	n/a	n/a	n/a	n/a	n/a	"2020-01-31 12:44:26.682613"	"2020-01-31 12:44:27.511507"	79	6.14249
"S200131"	"Response_Inhibition"	"RIGHT"	"Time_Max_Exceeded"	1500.04893360002	1366.6666694	""	n/a	n/a	n/a	n/a	n/a	n/a	"2020-01-31 12:44:28.886532"	"2020-01-31 12:44:30.389692"	80	6.14249
"S200131"	"Response_Inhibition"	"LEFT"	"LEFT"	422.501399999987	850.0000017	""	n/a	n/a	n/a	n/a	n/a	n/a	"2020-01-31 12:44:31.249195"	"2020-01-31 12:44:31.880101"	81	6.14249
"S200131"	"Response_Inhibition"	"LEFT"	"Time_Max_Exceeded"	1500.0571335	900.0000018	""	n/a	n/a	n/a	n/a	n/a	n/a	"2020-01-31 12:44:32.788823"	"2020-01-31 12:44:34.292019"	82	6.14249
"S200131"	"Response_Inhibition"	"LEFT"	"LEFT"	427.008200000046	983.3333353	""	n/a	n/a	n/a	n/a	n/a	n/a	"2020-01-31 12:44:35.285256"	"2020-01-31 12:44:35.919542"	83	6.14249
"S200131"	"Response_Inhibition"	"LEFT"	"LEFT"	422.863333699945	1150.0000023	""	n/a	n/a	n/a	n/a	n/a	n/a	"2020-01-31 12:44:37.078249"	"2020-01-31 12:44:37.712181"	84	6.14249
"S200131"	"Response_Inhibition"	"RIGHT"	"RIGHT"	1184.00900000006	783.3333349	""	n/a	n/a	n/a	n/a	n/a	n/a	"2020-01-31 12:44:38.503582"	"2020-01-31 12:44:39.895887"	85	6.14249
"S200131"	"Response_Inhibition"	"RIGHT"	"Time_Max_Exceeded"	1500.05463399995	1016.6666687	""	n/a	n/a	n/a	n/a	n/a	n/a	"2020-01-31 12:44:40.921361"	"2020-01-31 12:44:42.425034"	86	6.14249
"S200131"	"Response_Inhibition"	"LEFT"	"LEFT"	922.274000000016	1083.3333355	""	n/a	n/a	n/a	n/a	n/a	n/a	"2020-01-31 12:44:43.518307"	"2020-01-31 12:44:44.647569"	87	6.14249
"S200131"	"Response_Inhibition"	"RIGHT"	"Time_Max_Exceeded"	1500.04916729999	1216.6666691	""	n/a	n/a	n/a	n/a	n/a	n/a	"2020-01-31 12:44:45.874339"	"2020-01-31 12:44:47.377991"	88	6.14249
"S200131"	"Response_Inhibition"	"RIGHT"	"Time_Max_Exceeded"	1500.04826720003	1483.3333363	""	n/a	n/a	n/a	n/a	n/a	n/a	"2020-01-31 12:44:48.870429"	"2020-01-31 12:44:50.373320"	89	6.14249
"S200131"	"Response_Inhibition"	"RIGHT"	"RIGHT"	736.738100000025	616.6666679	""	n/a	n/a	n/a	n/a	n/a	n/a	"2020-01-31 12:44:50.999799"	"2020-01-31 12:44:51.944978"	90	6.14249
"S200131"	"Response_Inhibition"	"LEFT"	"LEFT"	665.367600000081	933.3333352	""	n/a	n/a	n/a	n/a	n/a	n/a	"2020-01-31 12:44:52.886651"	"2020-01-31 12:44:53.759502"	91	6.14249
"S200131"	"Response_Inhibition"	"RIGHT"	"RIGHT"	556.577800000014	883.3333351	""	n/a	n/a	n/a	n/a	n/a	n/a	"2020-01-31 12:44:54.651115"	"2020-01-31 12:44:55.416395"	92	6.14249
"S200131"	"Response_Inhibition"	"LEFT"	"LEFT"	480.344700000046	1366.6666694	""	n/a	n/a	n/a	n/a	n/a	n/a	"2020-01-31 12:44:56.792001"	"2020-01-31 12:44:57.480308"	93	6.14249
"S200131"	"Response_Inhibition"	"LEFT"	"Time_Max_Exceeded"	1500.05446700008	633.3333346	""	n/a	n/a	n/a	n/a	n/a	n/a	"2020-01-31 12:44:58.122838"	"2020-01-31 12:44:59.625568"	94	6.14249
"S200131"	"Response_Inhibition"	"RIGHT"	"RIGHT"	1294.19870000004	766.6666682	""	n/a	n/a	n/a	n/a	n/a	n/a	"2020-01-31 12:45:00.402097"	"2020-01-31 12:45:01.903563"	95	6.14249
"S200131"	"Response_Inhibition"	"RIGHT"	"RIGHT"	437.963599999989	1033.3333354	""	n/a	n/a	n/a	n/a	n/a	n/a	"2020-01-31 12:45:02.945985"	"2020-01-31 12:45:03.591805"	96	6.14249
"S200131"	"Response_Inhibition"	"LEFT"	"Time_Max_Exceeded"	1500.05580050004	1350.0000027	""	n/a	n/a	n/a	n/a	n/a	n/a	"2020-01-31 12:45:04.950382"	"2020-01-31 12:45:06.453427"	97	6.14249
"S200131"	"Response_Inhibition"	"RIGHT"	"RIGHT"	516.864700000042	1500.000003	""	n/a	n/a	n/a	n/a	n/a	n/a	"2020-01-31 12:45:07.963043"	"2020-01-31 12:45:08.688092"	98	6.14249
"S200131"	"Response_Inhibition"	"RIGHT"	"RIGHT"	555.202099999974	900.0000018	""	n/a	n/a	n/a	n/a	n/a	n/a	"2020-01-31 12:45:09.597152"	"2020-01-31 12:45:10.361000"	99	6.14249
"S200131"	"Response_Inhibition"	"LEFT"	"Time_Max_Exceeded"	1500.04666670001	600.0000012	""	n/a	n/a	n/a	n/a	n/a	n/a	"2020-01-31 12:45:10.969729"	"2020-01-31 12:45:12.473026"	100	6.14249
"S200131"	"Response_Inhibition"	"RIGHT"	"Time_Max_Exceeded"	1500.05270019995	733.3333348	""	n/a	n/a	n/a	n/a	n/a	n/a	"2020-01-31 12:45:13.215386"	"2020-01-31 12:45:14.719066"	101	6.14249
"S200131"	"Response_Inhibition"	"LEFT"	"LEFT"	581.272000000013	1266.6666692	""	n/a	n/a	n/a	n/a	n/a	n/a	"2020-01-31 12:45:15.994856"	"2020-01-31 12:45:16.783783"	102	6.14249
"S200131"	"Response_Inhibition"	"LEFT"	"Time_Max_Exceeded"	1500.05100019996	783.3333349	""	n/a	n/a	n/a	n/a	n/a	n/a	"2020-01-31 12:45:17.575216"	"2020-01-31 12:45:19.079023"	103	6.14249
"S200131"	"Response_Inhibition"	"LEFT"	"LEFT"	591.689900000006	1000.000002	""	n/a	n/a	n/a	n/a	n/a	n/a	"2020-01-31 12:45:20.088136"	"2020-01-31 12:45:20.887549"	104	6.14249
"S200131"	"Response_Inhibition"	"LEFT"	"Time_Max_Exceeded"	1500.04983350001	1100.0000022	""	n/a	n/a	n/a	n/a	n/a	n/a	"2020-01-31 12:45:21.996306"	"2020-01-31 12:45:23.500059"	105	6.14249
"S200131"	"Response_Inhibition"	"LEFT"	"Time_Max_Exceeded"	1500.05150009997	950.0000019	""	n/a	n/a	n/a	n/a	n/a	n/a	"2020-01-31 12:45:24.458990"	"2020-01-31 12:45:25.962128"	106	6.14249
"S200131"	"Response_Inhibition"	"RIGHT"	"Time_Max_Exceeded"	1500.05763380008	566.6666678	""	n/a	n/a	n/a	n/a	n/a	n/a	"2020-01-31 12:45:26.538588"	"2020-01-31 12:45:28.041954"	107	6.14249
"S200131"	"Response_Inhibition"	"LEFT"	"LEFT"	564.988799999924	1216.6666691	""	n/a	n/a	n/a	n/a	n/a	n/a	"2020-01-31 12:45:29.267361"	"2020-01-31 12:45:30.040777"	108	6.14249
"S200131"	"Response_Inhibition"	"RIGHT"	"RIGHT"	443.312399999968	683.3333347	""	n/a	n/a	n/a	n/a	n/a	n/a	"2020-01-31 12:45:30.733003"	"2020-01-31 12:45:31.384262"	109	6.14249
"S200131"	"Response_Inhibition"	"RIGHT"	"RIGHT"	674.271699999963	516.6666677	""	n/a	n/a	n/a	n/a	n/a	n/a	"2020-01-31 12:45:31.909827"	"2020-01-31 12:45:32.791985"	110	6.14249
"S200131"	"Response_Inhibition"	"RIGHT"	"Time_Max_Exceeded"	1500.05116710001	1050.0000021	""	n/a	n/a	n/a	n/a	n/a	n/a	"2020-01-31 12:45:33.849983"	"2020-01-31 12:45:35.353849"	111	6.14249
"S200131"	"Response_Inhibition"	"LEFT"	"LEFT"	460.263400000031	816.6666683	""	n/a	n/a	n/a	n/a	n/a	n/a	"2020-01-31 12:45:36.179815"	"2020-01-31 12:45:36.846902"	112	6.14249
"S200131"	"Response_Inhibition"	"RIGHT"	"RIGHT"	548.697800000014	1283.3333359	""	n/a	n/a	n/a	n/a	n/a	n/a	"2020-01-31 12:45:38.139540"	"2020-01-31 12:45:38.895591"	113	6.14249
"S200131"	"Response_Inhibition"	"RIGHT"	"RIGHT"	590.263599999957	633.3333346	""	n/a	n/a	n/a	n/a	n/a	n/a	"2020-01-31 12:45:39.537316"	"2020-01-31 12:45:40.336161"	114	6.14249
"S200131"	"Response_Inhibition"	"LEFT"	"LEFT"	587.224800000058	500.000001	""	n/a	n/a	n/a	n/a	n/a	n/a	"2020-01-31 12:45:40.844458"	"2020-01-31 12:45:41.640112"	115	6.14249
"S200131"	"Response_Inhibition"	"LEFT"	"LEFT"	483.390200000031	700.0000014	""	n/a	n/a	n/a	n/a	n/a	n/a	"2020-01-31 12:45:42.348224"	"2020-01-31 12:45:43.040437"	116	6.14249
"S200131"	"Response_Inhibition"	"LEFT"	"LEFT"	558.370399999944	1400.0000028	""	n/a	n/a	n/a	n/a	n/a	n/a	"2020-01-31 12:45:44.449895"	"2020-01-31 12:45:45.214772"	117	6.14249
"S200131"	"Response_Inhibition"	"RIGHT"	"RIGHT"	352.888300000018	800.0000016	""	n/a	n/a	n/a	n/a	n/a	n/a	"2020-01-31 12:45:46.022750"	"2020-01-31 12:45:46.582887"	118	6.14249
"S200131"	"Response_Inhibition"	"LEFT"	"LEFT"	535.329700000034	1033.3333354	""	n/a	n/a	n/a	n/a	n/a	n/a	"2020-01-31 12:45:47.624583"	"2020-01-31 12:45:48.367618"	119	6.14249
"S200131"	"Response_Inhibition"	"LEFT"	"LEFT"	518.613399999936	1433.3333362	""	n/a	n/a	n/a	n/a	n/a	n/a	"2020-01-31 12:45:49.809836"	"2020-01-31 12:45:50.536462"	120	6.14249
"S200131"	"Response_Inhibition"	"RIGHT"	"RIGHT"	431.955600000038	750.0000015	""	n/a	n/a	n/a	n/a	n/a	n/a	"2020-01-31 12:45:51.296244"	"2020-01-31 12:45:51.936177"	121	6.14249
"S200131"	"Response_Inhibition"	"RIGHT"	"Time_Max_Exceeded"	1500.0496667	1416.6666695	""	n/a	n/a	n/a	n/a	n/a	n/a	"2020-01-31 12:45:53.362459"	"2020-01-31 12:45:54.865436"	122	6.14249
"S200131"	"Response_Inhibition"	"LEFT"	"Time_Max_Exceeded"	1500.05106690007	1016.6666687	""	n/a	n/a	n/a	n/a	n/a	n/a	"2020-01-31 12:45:55.891071"	"2020-01-31 12:45:57.394388"	123	6.14249
"S200131"	"Response_Inhibition"	"LEFT"	"LEFT"	497.053400000027	883.3333351	""	n/a	n/a	n/a	n/a	n/a	n/a	"2020-01-31 12:45:58.286740"	"2020-01-31 12:45:58.991497"	124	6.14249
"S200131"	"Response_Inhibition"	"RIGHT"	"RIGHT"	544.867699999941	1350.0000027	""	n/a	n/a	n/a	n/a	n/a	n/a	"2020-01-31 12:46:00.351447"	"2020-01-31 12:46:01.104423"	125	6.14249
"S200131"	"Response_Inhibition"	"LEFT"	"LEFT"	499.070867299951	1216.6666691	""	n/a	n/a	n/a	n/a	n/a	n/a	"2020-01-31 12:46:02.329515"	"2020-01-31 12:46:03.039648"	126	6.14249
"S200131"	"Response_Inhibition"	"LEFT"	"LEFT"	659.091099999955	516.6666677	""	n/a	n/a	n/a	n/a	n/a	n/a	"2020-01-31 12:46:03.564991"	"2020-01-31 12:46:04.431518"	127	6.14249
"S200131"	"Response_Inhibition"	"RIGHT"	"Time_Max_Exceeded"	1500.0590668	583.3333345	""	n/a	n/a	n/a	n/a	n/a	n/a	"2020-01-31 12:46:05.023579"	"2020-01-31 12:46:06.526767"	128	6.14249
"S200131"	"Response_Inhibition"	"LEFT"	"LEFT"	510.457200000019	633.3333346	""	n/a	n/a	n/a	n/a	n/a	n/a	"2020-01-31 12:46:07.169270"	"2020-01-31 12:46:07.888337"	129	6.14249
"S200131"	"Response_Inhibition"	"LEFT"	"LEFT"	696.51209999995	966.6666686	""	n/a	n/a	n/a	n/a	n/a	n/a	"2020-01-31 12:46:08.863799"	"2020-01-31 12:46:09.768392"	130	6.14249
"S200131"	"Response_Inhibition"	"LEFT"	"LEFT"	473.72729999995	733.3333348	""	n/a	n/a	n/a	n/a	n/a	n/a	"2020-01-31 12:46:10.510403"	"2020-01-31 12:46:11.192055"	131	6.14249
"S200131"	"Response_Inhibition"	"LEFT"	"Time_Max_Exceeded"	1500.04873359998	1383.3333361	""	n/a	n/a	n/a	n/a	n/a	n/a	"2020-01-31 12:46:12.584337"	"2020-01-31 12:46:14.086955"	132	6.14249
"S200131"	"Response_Inhibition"	"LEFT"	"LEFT"	723.712699999965	1100.0000022	""	n/a	n/a	n/a	n/a	n/a	n/a	"2020-01-31 12:46:15.196446"	"2020-01-31 12:46:16.128681"	133	6.14249
"S200131"	"Response_Inhibition"	"RIGHT"	"RIGHT"	513.802599999963	1333.333336	""	n/a	n/a	n/a	n/a	n/a	n/a	"2020-01-31 12:46:17.470248"	"2020-01-31 12:46:18.191542"	134	6.14249
"S200131"	"Response_Inhibition"	"RIGHT"	"RIGHT"	452.660099999889	1066.6666688	""	n/a	n/a	n/a	n/a	n/a	n/a	"2020-01-31 12:46:19.267314"	"2020-01-31 12:46:19.928216"	135	6.14249
"S200131"	"Response_Inhibition"	"RIGHT"	"RIGHT"	767.506700000013	583.3333345	""	n/a	n/a	n/a	n/a	n/a	n/a	"2020-01-31 12:46:20.520639"	"2020-01-31 12:46:21.497263"	136	6.14249
"S200131"	"Response_Inhibition"	"RIGHT"	"Time_Max_Exceeded"	1500.06343340006	1083.3333355	""	n/a	n/a	n/a	n/a	n/a	n/a	"2020-01-31 12:46:22.588949"	"2020-01-31 12:46:24.093683"	137	6.14249
"S200131"	"Response_Inhibition"	"RIGHT"	"Time_Max_Exceeded"	1500.05546690003	950.0000019	""	n/a	n/a	n/a	n/a	n/a	n/a	"2020-01-31 12:46:25.052804"	"2020-01-31 12:46:26.555580"	138	6.14249
"S200131"	"Response_Inhibition"	"LEFT"	"LEFT"	397.508700000003	1333.333336	""	n/a	n/a	n/a	n/a	n/a	n/a	"2020-01-31 12:46:27.898699"	"2020-01-31 12:46:28.503505"	139	6.14249
"S200131"	"Response_Inhibition"	"LEFT"	"Time_Max_Exceeded"	1500.04876699999	1316.6666693	""	n/a	n/a	n/a	n/a	n/a	n/a	"2020-01-31 12:46:29.828525"	"2020-01-31 12:46:31.332068"	140	6.14249
"S200131"	"Response_Inhibition"	"LEFT"	"LEFT"	545.905999999945	1200.0000024	""	n/a	n/a	n/a	n/a	n/a	n/a	"2020-01-31 12:46:32.541741"	"2020-01-31 12:46:33.295920"	141	6.14249
"S200131"	"Response_Inhibition"	"LEFT"	"LEFT"	421.847699999944	1050.0000021	""	n/a	n/a	n/a	n/a	n/a	n/a	"2020-01-31 12:46:34.354574"	"2020-01-31 12:46:34.984054"	142	6.14249
"S200131"	"Response_Inhibition"	"RIGHT"	"RIGHT"	622.59569999992	1183.3333357	""	n/a	n/a	n/a	n/a	n/a	n/a	"2020-01-31 12:46:36.177718"	"2020-01-31 12:46:37.009161"	143	6.14249
"S200131"	"Response_Inhibition"	"LEFT"	"LEFT"	527.283800000077	583.3333345	""	n/a	n/a	n/a	n/a	n/a	n/a	"2020-01-31 12:46:37.600548"	"2020-01-31 12:46:38.336374"	144	6.14249
"S200131"	"Response_Inhibition"	"RIGHT"	"RIGHT"	431.436900300017	1300.0000026	""	n/a	n/a	n/a	n/a	n/a	n/a	"2020-01-31 12:46:39.645663"	"2020-01-31 12:46:40.289347"	145	6.14249
"S200131"	"Response_Inhibition"	"RIGHT"	"RIGHT"	596.43630000005	850.0000017	""	n/a	n/a	n/a	n/a	n/a	n/a	"2020-01-31 12:46:41.147863"	"2020-01-31 12:46:41.952399"	146	6.14249
"S200131"	"Response_Inhibition"	"LEFT"	"LEFT"	414.535233600042	733.3333348	""	n/a	n/a	n/a	n/a	n/a	n/a	"2020-01-31 12:46:42.694979"	"2020-01-31 12:46:43.320604"	147	6.14249
"S200131"	"Response_Inhibition"	"RIGHT"	"RIGHT"	597.040300000003	1050.0000021	""	n/a	n/a	n/a	n/a	n/a	n/a	"2020-01-31 12:46:44.379314"	"2020-01-31 12:46:45.184769"	148	6.14249
"S200131"	"Response_Inhibition"	"LEFT"	"LEFT"	578.273500000023	916.6666685	""	n/a	n/a	n/a	n/a	n/a	n/a	"2020-01-31 12:46:46.110062"	"2020-01-31 12:46:46.896403"	149	6.14249
"S200131"	"Response_Inhibition"	"LEFT"	"LEFT"	511.738799999989	583.3333345	""	n/a	n/a	n/a	n/a	n/a	n/a	"2020-01-31 12:46:47.488092"	"2020-01-31 12:46:48.208369"	150	6.14249
"S200131"	"Response_Inhibition"	"RIGHT"	"Time_Max_Exceeded"	1500.0976	533.3333344	""	n/a	n/a	n/a	n/a	n/a	n/a	"2020-01-31 12:46:48.750989"	"2020-01-31 12:46:50.251027"	151	6.14249
"S200131"	"Response_Inhibition"	"LEFT"	"Time_Max_Exceeded"	1500.04686690003	750.0000015	""	n/a	n/a	n/a	n/a	n/a	n/a	"2020-01-31 12:46:51.010243"	"2020-01-31 12:46:52.513637"	152	6.14249
"S200131"	"Response_Inhibition"	"LEFT"	"Time_Max_Exceeded"	1500.06080009996	1050.0000021	""	n/a	n/a	n/a	n/a	n/a	n/a	"2020-01-31 12:46:53.572975"	"2020-01-31 12:46:55.076234"	153	6.14249
"S200131"	"Response_Inhibition"	"RIGHT"	"RIGHT"	545.129699999961	1433.3333362	""	n/a	n/a	n/a	n/a	n/a	n/a	"2020-01-31 12:46:56.519298"	"2020-01-31 12:46:57.271810"	154	6.14249
"S200131"	"Response_Inhibition"	"LEFT"	"LEFT"	519.081400000005	616.6666679	""	n/a	n/a	n/a	n/a	n/a	n/a	"2020-01-31 12:46:57.897359"	"2020-01-31 12:46:58.624951"	155	6.14249
"S200131"	"Response_Inhibition"	"RIGHT"	"RIGHT"	607.794200000058	1366.6666694	""	n/a	n/a	n/a	n/a	n/a	n/a	"2020-01-31 12:47:00.000392"	"2020-01-31 12:47:00.816404"	156	6.14249
"S200131"	"Response_Inhibition"	"RIGHT"	"RIGHT"	706.307100000004	1316.6666693	""	n/a	n/a	n/a	n/a	n/a	n/a	"2020-01-31 12:47:02.141561"	"2020-01-31 12:47:03.056150"	157	6.14249
"S200131"	"Response_Inhibition"	"RIGHT"	"RIGHT"	478.729100599941	1116.6666689	""	n/a	n/a	n/a	n/a	n/a	n/a	"2020-01-31 12:47:04.181745"	"2020-01-31 12:47:04.870938"	158	6.14249
"S200131"	"Response_Inhibition"	"LEFT"	"LEFT"	561.545599999931	1166.666669	""	n/a	n/a	n/a	n/a	n/a	n/a	"2020-01-31 12:47:06.046077"	"2020-01-31 12:47:06.816264"	159	6.14249
"S200131"	"Response_Inhibition"	"LEFT"	"LEFT"	830.993199999966	1183.3333357	""	n/a	n/a	n/a	n/a	n/a	n/a	"2020-01-31 12:47:08.009333"	"2020-01-31 12:47:09.048277"	160	6.14249
"S200131"	"Response_Selection"	"LEFT"	"LEFT"	466.893299999981	1083.3333355	n/a	n/a	n/a	n/a	n/a	n/a	n/a	"2020-01-31 12:38:56.068548"	"2020-01-31 12:38:56.742791"	1	2.8200211
"S200131"	"Response_Selection"	"RIGHT"	"RIGHT"	300.427000000013	883.3333351	n/a	n/a	n/a	n/a	n/a	n/a	n/a	"2020-01-31 12:38:57.635319"	"2020-01-31 12:38:58.143962"	2	2.8200211
"S200131"	"Response_Selection"	"LEFT"	"LEFT"	295.35820000001	1116.6666689	n/a	n/a	n/a	n/a	n/a	n/a	n/a	"2020-01-31 12:38:59.271962"	"2020-01-31 12:38:59.775650"	3	2.8200211
"S200131"	"Response_Selection"	"LEFT"	"LEFT"	319.472099999984	1400.0000028	n/a	n/a	n/a	n/a	n/a	n/a	n/a	"2020-01-31 12:39:01.184502"	"2020-01-31 12:39:01.711638"	4	2.8200211
"S200131"	"Response_Selection"	"RIGHT"	"RIGHT"	301.372700000002	1450.0000029	n/a	n/a	n/a	n/a	n/a	n/a	n/a	"2020-01-31 12:39:03.169786"	"2020-01-31 12:39:03.678988"	5	2.8200211
"S200131"	"Response_Selection"	"RIGHT"	"RIGHT"	372.02080000003	1300.0000026	n/a	n/a	n/a	n/a	n/a	n/a	n/a	"2020-01-31 12:39:04.987368"	"2020-01-31 12:39:05.568393"	6	2.8200211
"S200131"	"Response_Selection"	"LEFT"	"LEFT"	299.767099999997	1066.6666688	n/a	n/a	n/a	n/a	n/a	n/a	n/a	"2020-01-31 12:39:06.643367"	"2020-01-31 12:39:07.152236"	7	2.8200211
"S200131"	"Response_Selection"	"LEFT"	"LEFT"	516.44600000003	650.0000013	n/a	n/a	n/a	n/a	n/a	n/a	n/a	"2020-01-31 12:39:07.810449"	"2020-01-31 12:39:08.534603"	8	2.8200211
"S200131"	"Response_Selection"	"RIGHT"	"RIGHT"	261.816500000009	866.6666684	n/a	n/a	n/a	n/a	n/a	n/a	n/a	"2020-01-31 12:39:09.409990"	"2020-01-31 12:39:09.879742"	9	2.8200211
"S200131"	"Response_Selection"	"RIGHT"	"RIGHT"	384.912300000053	750.0000015	n/a	n/a	n/a	n/a	n/a	n/a	n/a	"2020-01-31 12:39:10.638899"	"2020-01-31 12:39:11.231869"	10	2.8200211
"S200131"	"Response_Selection"	"LEFT"	"LEFT"	287.346300000024	1166.666669	n/a	n/a	n/a	n/a	n/a	n/a	n/a	"2020-01-31 12:39:12.408495"	"2020-01-31 12:39:12.902778"	11	2.8200211
"S200131"	"Response_Selection"	"RIGHT"	"RIGHT"	440.52640000001	583.3333345	n/a	n/a	n/a	n/a	n/a	n/a	n/a	"2020-01-31 12:39:13.494758"	"2020-01-31 12:39:14.142852"	12	2.8200211
"S200131"	"Response_Selection"	"RIGHT"	"RIGHT"	321.553499999993	1366.6666694	n/a	n/a	n/a	n/a	n/a	n/a	n/a	"2020-01-31 12:39:15.518434"	"2020-01-31 12:39:16.048020"	13	2.8200211
"S200131"	"Response_Selection"	"RIGHT"	"RIGHT"	332.108199999993	1266.6666692	n/a	n/a	n/a	n/a	n/a	n/a	n/a	"2020-01-31 12:39:17.323683"	"2020-01-31 12:39:17.862807"	14	2.8200211
"S200131"	"Response_Selection"	"LEFT"	"LEFT"	714.177399999983	1133.3333356	n/a	n/a	n/a	n/a	n/a	n/a	n/a	"2020-01-31 12:39:19.005179"	"2020-01-31 12:39:19.928267"	15	2.8200211
"S200131"	"Response_Selection"	"RIGHT"	"RIGHT"	354.003700000021	700.0000014	n/a	n/a	n/a	n/a	n/a	n/a	n/a	"2020-01-31 12:39:20.637981"	"2020-01-31 12:39:21.198546"	16	2.8200211
"S200131"	"Response_Selection"	"RIGHT"	"RIGHT"	329.051799999945	783.3333349	n/a	n/a	n/a	n/a	n/a	n/a	n/a	"2020-01-31 12:39:21.991041"	"2020-01-31 12:39:22.526534"	17	2.8200211
"S200131"	"Response_Selection"	"RIGHT"	"RIGHT"	352.06629999999	1416.6666695	n/a	n/a	n/a	n/a	n/a	n/a	n/a	"2020-01-31 12:39:23.951318"	"2020-01-31 12:39:24.512411"	18	2.8200211
"S200131"	"Response_Selection"	"LEFT"	"LEFT"	284.395299999971	1450.0000029	n/a	n/a	n/a	n/a	n/a	n/a	n/a	"2020-01-31 12:39:25.971255"	"2020-01-31 12:39:26.463647"	19	2.8200211
"S200131"	"Response_Selection"	"RIGHT"	"RIGHT"	361.985199999992	533.3333344	n/a	n/a	n/a	n/a	n/a	n/a	n/a	"2020-01-31 12:39:27.005162"	"2020-01-31 12:39:27.576310"	20	2.8200211
"S200131"	"Response_Selection"	"RIGHT"	"RIGHT"	319.221400000004	983.3333353	n/a	n/a	n/a	n/a	n/a	n/a	n/a	"2020-01-31 12:39:28.568115"	"2020-01-31 12:39:29.096322"	21	2.8200211
"S200131"	"Response_Selection"	"RIGHT"	"RIGHT"	301.870899999983	1016.6666687	n/a	n/a	n/a	n/a	n/a	n/a	n/a	"2020-01-31 12:39:30.121500"	"2020-01-31 12:39:30.632169"	22	2.8200211
"S200131"	"Response_Selection"	"RIGHT"	"RIGHT"	326.722899999993	1400.0000028	n/a	n/a	n/a	n/a	n/a	n/a	n/a	"2020-01-31 12:39:32.040234"	"2020-01-31 12:39:32.575835"	23	2.8200211
"S200131"	"Response_Selection"	"RIGHT"	"RIGHT"	422.665900000027	600.0000012	n/a	n/a	n/a	n/a	n/a	n/a	n/a	"2020-01-31 12:39:33.184348"	"2020-01-31 12:39:33.814801"	24	2.8200211
"S200131"	"Response_Selection"	"RIGHT"	"RIGHT"	358.009100000004	1250.0000025	n/a	n/a	n/a	n/a	n/a	n/a	n/a	"2020-01-31 12:39:35.073632"	"2020-01-31 12:39:35.638710"	25	2.8200211
"S200131"	"Response_Selection"	"LEFT"	"LEFT"	348.260799999991	700.0000014	n/a	n/a	n/a	n/a	n/a	n/a	n/a	"2020-01-31 12:39:36.346911"	"2020-01-31 12:39:36.903559"	26	2.8200211
"S200131"	"Response_Selection"	"RIGHT"	"RIGHT"	263.32309999998	1200.0000024	n/a	n/a	n/a	n/a	n/a	n/a	n/a	"2020-01-31 12:39:38.112206"	"2020-01-31 12:39:38.584044"	27	2.8200211
"S200131"	"Response_Selection"	"LEFT"	"LEFT"	331.287900000007	883.3333351	n/a	n/a	n/a	n/a	n/a	n/a	n/a	"2020-01-31 12:39:39.475965"	"2020-01-31 12:39:40.014576"	28	2.8200211
"S200131"	"Response_Selection"	"LEFT"	"LEFT"	329.942300000027	1350.0000027	n/a	n/a	n/a	n/a	n/a	n/a	n/a	"2020-01-31 12:39:41.373898"	"2020-01-31 12:39:41.911748"	29	2.8200211
"S200131"	"Response_Selection"	"RIGHT"	"RIGHT"	266.4896	1316.6666693	n/a	n/a	n/a	n/a	n/a	n/a	n/a	"2020-01-31 12:39:43.236810"	"2020-01-31 12:39:43.711811"	30	2.8200211
"S200131"	"Response_Selection"	"LEFT"	"LEFT"	283.035799999993	1300.0000026	n/a	n/a	n/a	n/a	n/a	n/a	n/a	"2020-01-31 12:39:45.020842"	"2020-01-31 12:39:45.511563"	31	2.8200211
"S200131"	"Response_Selection"	"RIGHT"	"RIGHT"	346.10269999996	733.3333348	n/a	n/a	n/a	n/a	n/a	n/a	n/a	"2020-01-31 12:39:46.253361"	"2020-01-31 12:39:46.808040"	32	2.8200211
"S200131"	"Response_Selection"	"RIGHT"	"RIGHT"	349.621799999966	833.333335	n/a	n/a	n/a	n/a	n/a	n/a	n/a	"2020-01-31 12:39:47.649968"	"2020-01-31 12:39:48.209076"	33	2.8200211
"S200131"	"Response_Selection"	"RIGHT"	"RIGHT"	334.175499999958	966.6666686	n/a	n/a	n/a	n/a	n/a	n/a	n/a	"2020-01-31 12:39:49.185490"	"2020-01-31 12:39:49.726577"	34	2.8200211
"S200131"	"Response_Selection"	"RIGHT"	"RIGHT"	299.687100000028	1133.3333356	n/a	n/a	n/a	n/a	n/a	n/a	n/a	"2020-01-31 12:39:50.867919"	"2020-01-31 12:39:51.376204"	35	2.8200211
"S200131"	"Response_Selection"	"LEFT"	"LEFT"	333.470299999988	833.333335	n/a	n/a	n/a	n/a	n/a	n/a	n/a	"2020-01-31 12:39:52.218464"	"2020-01-31 12:39:52.760000"	36	2.8200211
"S200131"	"Response_Selection"	"RIGHT"	"RIGHT"	334.136999999998	800.0000016	n/a	n/a	n/a	n/a	n/a	n/a	n/a	"2020-01-31 12:39:53.569427"	"2020-01-31 12:39:54.111948"	37	2.8200211
"S200131"	"Response_Selection"	"LEFT"	"LEFT"	335.069200000021	800.0000016	n/a	n/a	n/a	n/a	n/a	n/a	n/a	"2020-01-31 12:39:54.920452"	"2020-01-31 12:39:55.464160"	38	2.8200211
"S200131"	"Response_Selection"	"RIGHT"	"RIGHT"	271.304199999975	1166.666669	n/a	n/a	n/a	n/a	n/a	n/a	n/a	"2020-01-31 12:39:56.640278"	"2020-01-31 12:39:57.120211"	39	2.8200211
"S200131"	"Response_Selection"	"LEFT"	"LEFT"	320.149499999957	750.0000015	n/a	n/a	n/a	n/a	n/a	n/a	n/a	"2020-01-31 12:39:57.879163"	"2020-01-31 12:39:58.408028"	40	2.8200211
"S200131"	"Response_Selection"	"LEFT"	"LEFT"	358.45740000002	1216.6666691	n/a	n/a	n/a	n/a	n/a	n/a	n/a	"2020-01-31 12:39:59.632690"	"2020-01-31 12:40:00.199925"	41	2.8200211
"S200131"	"Response_Selection"	"LEFT"	"LEFT"	567.925199999991	550.0000011	n/a	n/a	n/a	n/a	n/a	n/a	n/a	"2020-01-31 12:40:00.759603"	"2020-01-31 12:40:01.534539"	42	2.8200211
"S200131"	"Response_Selection"	"LEFT"	"LEFT"	399.277199999972	866.6666684	n/a	n/a	n/a	n/a	n/a	n/a	n/a	"2020-01-31 12:40:02.409354"	"2020-01-31 12:40:03.015778"	43	2.8200211
"S200131"	"Response_Selection"	"RIGHT"	"RIGHT"	333.318099999985	650.0000013	n/a	n/a	n/a	n/a	n/a	n/a	n/a	"2020-01-31 12:40:03.674808"	"2020-01-31 12:40:04.216014"	44	2.8200211
"S200131"	"Response_Selection"	"RIGHT"	"RIGHT"	396.105200000022	1466.6666696	n/a	n/a	n/a	n/a	n/a	n/a	n/a	"2020-01-31 12:40:05.691624"	"2020-01-31 12:40:06.296159"	45	2.8200211
"S200131"	"Response_Selection"	"RIGHT"	"RIGHT"	330.560999999989	1500.000003	n/a	n/a	n/a	n/a	n/a	n/a	n/a	"2020-01-31 12:40:07.805357"	"2020-01-31 12:40:08.344965"	46	2.8200211
"S200131"	"Response_Selection"	"LEFT"	"LEFT"	298.205999999993	1500.000003	n/a	n/a	n/a	n/a	n/a	n/a	n/a	"2020-01-31 12:40:09.853980"	"2020-01-31 12:40:10.359632"	47	2.8200211
"S200131"	"Response_Selection"	"RIGHT"	"RIGHT"	345.55899999998	933.3333352	n/a	n/a	n/a	n/a	n/a	n/a	n/a	"2020-01-31 12:40:11.302407"	"2020-01-31 12:40:11.855257"	48	2.8200211
"S200131"	"Response_Selection"	"RIGHT"	"RIGHT"	352.886399999988	1350.0000027	n/a	n/a	n/a	n/a	n/a	n/a	n/a	"2020-01-31 12:40:13.214634"	"2020-01-31 12:40:13.774807"	49	2.8200211
"S200131"	"Response_Selection"	"RIGHT"	"RIGHT"	342.681499999969	1033.3333354	n/a	n/a	n/a	n/a	n/a	n/a	n/a	"2020-01-31 12:40:14.816501"	"2020-01-31 12:40:15.366758"	50	2.8200211
"S200131"	"Response_Selection"	"LEFT"	"LEFT"	367.671900000005	1416.6666695	n/a	n/a	n/a	n/a	n/a	n/a	n/a	"2020-01-31 12:40:16.792039"	"2020-01-31 12:40:17.367563"	51	2.8200211
"S200131"	"Response_Selection"	"LEFT"	"LEFT"	392.519600000014	1366.6666694	n/a	n/a	n/a	n/a	n/a	n/a	n/a	"2020-01-31 12:40:18.743559"	"2020-01-31 12:40:19.343239"	52	2.8200211
"S200131"	"Response_Selection"	"RIGHT"	"RIGHT"	308.610700000031	1066.6666688	n/a	n/a	n/a	n/a	n/a	n/a	n/a	"2020-01-31 12:40:20.418901"	"2020-01-31 12:40:20.936200"	53	2.8200211
"S200131"	"Response_Selection"	"RIGHT"	"RIGHT"	467.98849999999	683.3333347	n/a	n/a	n/a	n/a	n/a	n/a	n/a	"2020-01-31 12:40:21.627631"	"2020-01-31 12:40:22.304145"	54	2.8200211
"S200131"	"Response_Selection"	"LEFT"	"LEFT"	288.535500000023	966.6666686	n/a	n/a	n/a	n/a	n/a	n/a	n/a	"2020-01-31 12:40:23.279675"	"2020-01-31 12:40:23.775901"	55	2.8200211
"S200131"	"Response_Selection"	"LEFT"	"LEFT"	459.909499999981	500.000001	n/a	n/a	n/a	n/a	n/a	n/a	n/a	"2020-01-31 12:40:24.284818"	"2020-01-31 12:40:24.953195"	56	2.8200211
"S200131"	"Response_Selection"	"LEFT"	"LEFT"	354.802900000038	1266.6666692	n/a	n/a	n/a	n/a	n/a	n/a	n/a	"2020-01-31 12:40:26.228455"	"2020-01-31 12:40:26.792109"	57	2.8200211
"S200131"	"Response_Selection"	"RIGHT"	"RIGHT"	333.73180000001	633.3333346	n/a	n/a	n/a	n/a	n/a	n/a	n/a	"2020-01-31 12:40:27.434004"	"2020-01-31 12:40:27.974936"	58	2.8200211
"S200131"	"Response_Selection"	"LEFT"	"LEFT"	432.020000000023	600.0000012	n/a	n/a	n/a	n/a	n/a	n/a	n/a	"2020-01-31 12:40:28.583196"	"2020-01-31 12:40:29.222691"	59	2.8200211
"S200131"	"Response_Selection"	"LEFT"	"LEFT"	323.31640000001	733.3333348	n/a	n/a	n/a	n/a	n/a	n/a	n/a	"2020-01-31 12:40:29.964696"	"2020-01-31 12:40:30.496276"	60	2.8200211
"S200131"	"Response_Selection"	"LEFT"	"LEFT"	345.427899999947	933.3333352	n/a	n/a	n/a	n/a	n/a	n/a	n/a	"2020-01-31 12:40:31.438069"	"2020-01-31 12:40:31.992320"	61	2.8200211
"S200131"	"Response_Selection"	"LEFT"	"LEFT"	364.395600000023	1466.6666696	n/a	n/a	n/a	n/a	n/a	n/a	n/a	"2020-01-31 12:40:33.467770"	"2020-01-31 12:40:34.040462"	62	2.8200211
"S200131"	"Response_Selection"	"LEFT"	"LEFT"	368.947800000001	783.3333349	n/a	n/a	n/a	n/a	n/a	n/a	n/a	"2020-01-31 12:40:34.831817"	"2020-01-31 12:40:35.410227"	63	2.8200211
"S200131"	"Response_Selection"	"RIGHT"	"RIGHT"	315.799499999969	1216.6666691	n/a	n/a	n/a	n/a	n/a	n/a	n/a	"2020-01-31 12:40:36.636066"	"2020-01-31 12:40:37.159354"	64	2.8200211
"S200131"	"Response_Selection"	"RIGHT"	"RIGHT"	451.58600000002	500.000001	n/a	n/a	n/a	n/a	n/a	n/a	n/a	"2020-01-31 12:40:37.667994"	"2020-01-31 12:40:38.327982"	65	2.8200211
"S200131"	"Response_Selection"	"LEFT"	"LEFT"	298.180500000001	1316.6666693	n/a	n/a	n/a	n/a	n/a	n/a	n/a	"2020-01-31 12:40:39.652941"	"2020-01-31 12:40:40.158609"	66	2.8200211
"S200131"	"Response_Selection"	"LEFT"	"LEFT"	328.569900000048	1200.0000024	n/a	n/a	n/a	n/a	n/a	n/a	n/a	"2020-01-31 12:40:41.366707"	"2020-01-31 12:40:41.903224"	67	2.8200211
"S200131"	"Response_Selection"	"RIGHT"	"RIGHT"	346.940899999993	916.6666685	n/a	n/a	n/a	n/a	n/a	n/a	n/a	"2020-01-31 12:40:42.828430"	"2020-01-31 12:40:43.385210"	68	2.8200211
"S200131"	"Response_Selection"	"RIGHT"	"RIGHT"	354.063300000007	1083.3333355	n/a	n/a	n/a	n/a	n/a	n/a	n/a	"2020-01-31 12:40:44.477524"	"2020-01-31 12:40:45.039831"	69	2.8200211
"S200131"	"Response_Selection"	"LEFT"	"LEFT"	362.049899999988	533.3333344	n/a	n/a	n/a	n/a	n/a	n/a	n/a	"2020-01-31 12:40:45.581385"	"2020-01-31 12:40:46.153384"	70	2.8200211
"S200131"	"Response_Selection"	"LEFT"	"LEFT"	316.471399999955	1033.3333354	n/a	n/a	n/a	n/a	n/a	n/a	n/a	"2020-01-31 12:40:47.194795"	"2020-01-31 12:40:47.719303"	71	2.8200211
"S200131"	"Response_Selection"	"LEFT"	"LEFT"	323.554800000011	916.6666685	n/a	n/a	n/a	n/a	n/a	n/a	n/a	"2020-01-31 12:40:48.644118"	"2020-01-31 12:40:49.175612"	72	2.8200211
"S200131"	"Response_Selection"	"LEFT"	"LEFT"	318.207599999994	1016.6666687	n/a	n/a	n/a	n/a	n/a	n/a	n/a	"2020-01-31 12:40:50.201445"	"2020-01-31 12:40:50.728072"	73	2.8200211
"S200131"	"Response_Selection"	"LEFT"	"LEFT"	311.597300000017	983.3333353	n/a	n/a	n/a	n/a	n/a	n/a	n/a	"2020-01-31 12:40:51.720093"	"2020-01-31 12:40:52.238741"	74	2.8200211
"S200131"	"Response_Selection"	"LEFT"	"LEFT"	365.785499999959	633.3333346	n/a	n/a	n/a	n/a	n/a	n/a	n/a	"2020-01-31 12:40:52.881996"	"2020-01-31 12:40:53.455110"	75	2.8200211
"S200131"	"Response_Selection"	"RIGHT"	"RIGHT"	266.980499999988	1116.6666689	n/a	n/a	n/a	n/a	n/a	n/a	n/a	"2020-01-31 12:40:54.580614"	"2020-01-31 12:40:55.055672"	76	2.8200211
"S200131"	"Response_Selection"	"LEFT"	"LEFT"	348.942800000032	1250.0000025	n/a	n/a	n/a	n/a	n/a	n/a	n/a	"2020-01-31 12:40:56.314924"	"2020-01-31 12:40:56.870919"	77	2.8200211
"S200131"	"Response_Selection"	"RIGHT"	"RIGHT"	386.059400000022	550.0000011	n/a	n/a	n/a	n/a	n/a	n/a	n/a	"2020-01-31 12:40:57.429649"	"2020-01-31 12:40:58.024247"	78	2.8200211
"S200131"	"Response_Selection"	"LEFT"	"LEFT"	331.356599999992	683.3333347	n/a	n/a	n/a	n/a	n/a	n/a	n/a	"2020-01-31 12:40:58.716072"	"2020-01-31 12:40:59.256113"	79	2.8200211
"S200131"	"Response_Selection"	"LEFT"	"LEFT"	375.622099999987	583.3333345	n/a	n/a	n/a	n/a	n/a	n/a	n/a	"2020-01-31 12:40:59.847952"	"2020-01-31 12:41:00.432181"	80	2.8200211
