index	Trial_Type	Participant_ID	Trial_Probability	Question_Position_Prediction_Correct	Question_Position_Prediction_Agent	Question_Position_Comparison_Self	Question_Position_Comparison_Irrelevant	Trial_Stake	Trial_Stake_Jitter	Trial_Type_Jitter	Trial_Result_Jitter	Balance_Update_Jitter	Question_Comparison_Condition	Question_Comparison_Type	Question_Comparison_Question	Question_Comparison_Label	Question_Comparison_Item	Question_Comparison_Proportion_Yes	Question_Factual_Condition	Question_Factual_Item	Question_Factual_Question	Question_Factual_Label	Question_Factual_Proportion_DontKnow	Question_Factual_Type	Answer_Prediction_Correct	Answer_Prediction_Correct_RT	Answer_Prediction_Agent	Answer_Prediction_Agent_RT	Answer_Self	Answer_Self_RT	Answer_Irrelevant	Answer_Irrelevant_RT	Trial_Balance	Trial_Balance_Effect	Trial_Condition	Trial_ProbableSide	Prediction_Choice	Prediction_Result	Prediction_RT	Trial_Order	Trial_Datetime
96	Computer	S210204	0.5	1	2	1	2	0.2	1000.000002	1066.6666688	2350.0000047	1933.3333372	Major	Good_deeds	25	You have followed instructions	C2_11	0.2	Hard	I1_1	39	Some owl species hunt fish	0.0	Yes	RIGHT	982.046700000069	LEFT	672.7263000000221	RIGHT	1913.6455000000296	RIGHT	3792.313400000012	10.0	0.2	Probable_Truth	RIGHT	RIGHT	4	577.0499635548526	0	2021-02-04 14:21:01.097992
141	Computer	S210204	0.8333333333333334	2	1	2	1	0.8	1216.6666691	1350.0000027	2500.000005	1783.3333369	Major	Wrong_doings	14	You have faked an illness	C1_5	0.0	Hard	I1_41	32	The human's inner ear is larger than a pencil eraser	0.0	Yes	RIGHT	769.075799999996	LEFT	819.4557000000486	LEFT	1576.5473999999813	RIGHT	4256.2827000000425	10.0	0.8	Probable_Truth	RIGHT	RIGHT	4	673.8150093034768	1	2021-02-04 14:21:28.619359
128	Computer	S210204	0.8333333333333334	1	2	1	2	0.6	1066.6666688	1150.0000023	2500.000005	1933.3333372	Major	Good_deeds	57	You have cursed at your loved ones	C1_49	1.0	Hard	I1_25	42	There is typically 0.6 grams of mercury in glass thermometer	0.764705882352941	Yes	LEFT	1021.7010000000072	LEFT	448.8352999999279	RIGHT	2733.44110000005	RIGHT	4662.9184999999325	10.0	0.6	Probable_Lie	LEFT	RIGHT	1	627.4317934813745	2	2021-02-04 14:21:57.337597
86	Self	S210204	0.8333333333333334	1	2	2	1	0.6	1350.0000027	1066.6666688	1650.0000033	2350.0000047	Major	Wrong_doings	9	You have said thank you when you have received help	C2_33	1.0	Hard	I2_60	60	Slavery was abolished in Cuba in 1886	0.722222222222222	No	RIGHT	655.6621999999379	RIGHT	656.8767999999636	RIGHT	1760.168900000053	LEFT	4060.8700999998746	10.6	0.6	Probable_Truth	LEFT	LEFT	1	767.1976000000313	3	2021-02-04 14:22:24.225940
136	Computer	S210204	0.8333333333333334	2	1	1	2	0.7	1350.0000027	1150.0000023	1500.000003	2066.6666708	Minor	Good_deeds	46	You have coveted things that belong to others	C2_43	0.45	Hard	I1_2	41	A triangle has three sides	0.0	Yes	LEFT	840.2068000000327	LEFT	793.0526999998619	LEFT	2653.973200000109	RIGHT	1647.4752000001445	10.6	0.7	Probable_Lie	LEFT	RIGHT	1	974.7063959369848	4	2021-02-04 14:22:49.769453
58	Self	S210204	0.5	2	1	1	2	0.5	1350.0000027	1150.0000023	2216.6666711000003	1500.000003	Minor	Good_deeds	30	You have lied to your parents	C2_52	1.0	Hard	I2_52	52	Brazil is in South America	0.0	Yes	RIGHT	583.6982000000717	RIGHT	551.6434999999547	RIGHT	1366.3872999998148	RIGHT	1560.653000000002	11.1	0.5	Probable_Truth	LEFT	RIGHT	6	2429.7846999998	5	2021-02-04 14:23:15.050065
122	Computer	S210204	0.6666666666666666	2	1	1	2	0.5	1150.0000023	1000.000002	2066.6666708	1500.000003	Major	Wrong_doings	37	You have bought cigarettes for a minor	C2_37	0.0	Hard	I1_54	46	Singapore ranked 8th in World's smallest countries	0.0	Yes	LEFT	440.5091999999513	LEFT	768.8144000001103	LEFT	1798.4913999998753	RIGHT	2551.9484999999804	11.1	0.5	Probable_Lie	RIGHT	LEFT	6	846.4311086158186	6	2021-02-04 14:23:39.747226
45	Self	S210204	0.8333333333333334	2	1	2	1	0.5	1150.0000023	1500.000003	1783.3333369	1500.000003	Major	Wrong_doings	14	You have faked an illness	C1_5	0.0	Hard	I1_41	32	The human's inner ear is larger than a pencil eraser	0.0	Yes	RIGHT	552.8414999998859	RIGHT	690.3047000000697	LEFT	1640.4287000000295	RIGHT	3587.4421000000893	11.6	0.5	Probable_Truth	RIGHT	RIGHT	4	785.8900999999605	7	2021-02-04 14:24:05.514181
133	Computer	S210204	0.8333333333333334	1	2	2	1	0.1	1000.000002	1000.000002	2066.6666708	2216.6666711000003	Minor	Wrong_doings	29	You have provided shelter for stray animals	C2_39	0.95	Hard	I1_42	47	It sometimes snows in Singapore	0.833333333333333	Yes	LEFT	729.5759000000999	LEFT	326.3208000000759	RIGHT	2157.3737999999594	LEFT	2241.490499999827	11.6	0.1	Probable_Lie	RIGHT	LEFT	5	816.7298721242248	8	2021-02-04 14:24:30.641706
135	Computer	S210204	0.8333333333333334	1	2	2	1	0.4	1216.6666691	1066.6666688	2216.6666711000003	1783.3333369	Minor	Wrong_doings	39	You have organized a violent protest	C1_13	0.7	Hard	I2_16	44	The sun rises at night	0.0555555555555556	No	LEFT	780.8348999999453	LEFT	608.9286000001266	LEFT	1527.4148999999395	LEFT	1665.8941999999115	11.6	0.4	Probable_Lie	LEFT	LEFT	6	936.9456148932416	9	2021-02-04 14:24:55.010387
7	Self	S210204	0.5	1	2	2	1	0.6	1066.6666688	1433.3333362	1650.0000033	1650.0000033	Major	Wrong_doings	7	You have eaten something in the MRT train	C1_7	0.85	Hard	I2_36	36	Nanyang Technological University is in Australia	0.0	Yes	RIGHT	542.973800000027	RIGHT	527.9130999999779	LEFT	2311.3210999999865	LEFT	1559.32370000005	12.2	0.6	Probable_Truth	RIGHT	RIGHT	4	2037.3248000000783	10	2021-02-04 14:25:20.362123
55	Self	S210204	0.5	1	2	2	1	0.2	1283.3333359	1500.000003	1933.3333372	1933.3333372	Major	Good_deeds	45	You have returned your trays in food courts	C1_38	0.95	Easy	I1_33	22	Marijuana is legal in Singapore	0.0	No	RIGHT	692.8193999999621	RIGHT	464.7828000001937	RIGHT	1856.842700000016	LEFT	1133.7015999999949	12.4	0.2	Probable_Truth	LEFT	RIGHT	6	1536.6555999999036	11	2021-02-04 14:25:45.266841
52	Self	S210204	0.5	1	2	2	1	0.6	1066.6666688	1000.000002	2216.6666711000003	1650.0000033	Minor	Good_deeds	59	You have cursed at others	C1_28	1.0	Hard	I1_19	4	Milwaukee Art Museum is located in California	0.111111111111111	Yes	RIGHT	472.6740999999493	RIGHT	463.74869999999646	LEFT	2727.9207000001406	RIGHT	3640.118199999961	12.999999999999998	0.6	Probable_Truth	LEFT	LEFT	3	2135.9293000000434	12	2021-02-04 14:26:13.210448
20	Self	S210204	0.6666666666666666	1	2	2	1	0.6	1500.000003	1500.000003	2350.0000047	1783.3333369	Major	Good_deeds	3	You have taken responsibility for your actions	C1_3	0.0	Hard	I1_23	50	China is a part of Asia	1.0	No	LEFT	644.810600000028	RIGHT	615.9807999999884	RIGHT	1496.4763999998922	RIGHT	1563.437699999895	12.4	0.6	Probable_Lie	RIGHT	RIGHT	2	1443.263300000126	13	2021-02-04 14:26:38.681865
123	Computer	S210204	0.6666666666666666	2	1	1	2	0.3	1283.3333359	1283.3333359	2216.6666711000003	1650.0000033	Major	Wrong_doings	48	You have held the door open for a stranger	C1_58	0.05	Easy	I1_8	40	Septicemia is a lung infection condition	0.0	Yes	RIGHT	624.0450000000237	LEFT	696.2195999999494	RIGHT	1311.8285999998989	LEFT	2839.654800000062	12.4	0.3	Probable_Truth	LEFT	LEFT	2	937.4683893884958	14	2021-02-04 14:27:04.090270
98	Computer	S210204	0.5	1	2	1	2	0.1	1350.0000027	1283.3333359	1500.000003	1783.3333369	Minor	Wrong_doings	31	You have cheated on a national exam	C2_31	1.0	Easy	I1_15	34	Today is Sunday	0.777777777777778	No	RIGHT	958.6977999999816	LEFT	599.6883000000253	LEFT	1860.4941999999485	LEFT	1208.679200000006	12.4	0.1	Probable_Truth	LEFT	RIGHT	4	578.7079859640967	15	2021-02-04 14:27:27.785870
97	Computer	S210204	0.5	1	2	1	2	0.7	1066.6666688	1000.000002	1650.0000033	2216.6666711000003	Minor	Good_deeds	31	You have thrown your trash into the bin	C1_31	0.05	Easy	I2_50	38	Chickens lay eggs	0.833333333333333	Yes	RIGHT	461.3270000002103	LEFT	375.9119999999712	RIGHT	1873.2492999999977	RIGHT	1336.3902999999482	12.4	0.7	Probable_Truth	LEFT	RIGHT	6	783.6906559213423	16	2021-02-04 14:27:51.121567
74	Self	S210204	0.6666666666666666	2	1	1	2	0.4	1066.6666688	1283.3333359	1933.3333372	2216.6666711000003	Minor	Good_deeds	8	You have given way to the handicapped	C2_42	0.05	Hard	I1_10	10	French is Singapore's official language	0.0555555555555556	No	RIGHT	489.1832999999224	RIGHT	460.2383000001282	RIGHT	1864.0322999999623	LEFT	1334.9823000000924	12.8	0.4	Probable_Truth	RIGHT	RIGHT	6	825.0013000001672	17	2021-02-04 14:28:15.170229
111	Computer	S210204	0.5	2	1	2	1	0.7	1000.000002	1000.000002	2066.6666708	2066.6666708	Minor	Good_deeds	36	You have violated a traffic law	C1_36	0.8	Hard	I2_31	11	Mexico's National Day is September 16	0.833333333333333	Yes	RIGHT	423.7316999999621	LEFT	830.9655000000475	LEFT	1376.211300000023	LEFT	2829.807899999878	12.8	0.7	Probable_Truth	LEFT	RIGHT	6	611.7805275653317	18	2021-02-04 14:28:39.954290
62	Self	S210204	0.5	2	1	2	1	0.7	1500.000003	1350.0000027	1500.000003	1650.0000033	Minor	Good_deeds	40	You have adopted a zero-waste lifestyle	C1_12	1.0	Hard	I2_12	21	Singapore has four seasons	0.944444444444444	No	RIGHT	337.3666999998477	RIGHT	524.1651999999704	RIGHT	2080.3035999999797	LEFT	1727.5410000002012	13.499999999999998	0.7	Probable_Truth	RIGHT	RIGHT	5	1445.5718000001525	19	2021-02-04 14:29:04.640517
124	Computer	S210204	0.6666666666666666	2	1	2	1	0.8	1350.0000027	1150.0000023	1650.0000033	1933.3333372	Major	Good_deeds	53	You have been donating all your excess food to a food bank	C1_11	0.95	Easy	I2_13	40	Animals are living things	0.0555555555555556	Yes	RIGHT	640.937299999905	LEFT	764.6541000001434	LEFT	2368.563199999926	RIGHT	1077.942099999973	13.499999999999998	0.8	Probable_Truth	LEFT	RIGHT	5	500.0898219838347	20	2021-02-04 14:29:28.642201
79	Self	S210204	0.6666666666666666	2	1	2	1	0.5	1350.0000027	1350.0000027	2066.6666708	1650.0000033	Minor	Wrong_doings	7	You have watched a pirated movie	C1_47	0.65	Easy	I2_41	41	Acoustic Kitty refers to cat with implants	0.0	No	RIGHT	384.3916000000718	RIGHT	535.814400000163	RIGHT	2296.358699999928	Time_Max_Exceeded	5000.148800000034	13.999999999999998	0.5	Probable_Truth	RIGHT	RIGHT	4	1043.8446999999087	21	2021-02-04 14:29:56.889863
70	Self	S210204	0.6666666666666666	1	2	2	1	0.8	1283.3333359	1066.6666688	1650.0000033	2066.6666708	Minor	Wrong_doings	33	You have made counterfeit money	C2_60	0.0	Easy	I2_48	48	Carnivore refers to meat-eater	0.0	No	LEFT	1655.1863999998204	RIGHT	1160.924199999954	LEFT	1255.1582999999482	RIGHT	1400.5889000000025	13.199999999999998	0.8	Probable_Lie	RIGHT	RIGHT	2	872.6029999997991	22	2021-02-04 14:30:21.873646
9	Self	S210204	0.5	2	1	1	2	0.2	1283.3333359	1283.3333359	1933.3333372	1650.0000033	Minor	Good_deeds	50	You have stopped using products tested on animals	C2_53	0.75	Hard	I1_29	58	Christmas Day is in March	0.0	No	LEFT	680.0277999998343	RIGHT	1428.9128000000346	RIGHT	2023.5247999999049	LEFT	1112.0524000000387	12.999999999999998	0.2	Probable_Lie	LEFT	LEFT	6	1848.70960000012	23	2021-02-04 14:30:47.688693
35	Self	S210204	0.8333333333333334	1	2	1	2	0.6	1216.6666691	1066.6666688	2066.6666708	2350.0000047	Major	Good_deeds	13	You have stopped using plastics completely	C2_57	0.05	Easy	I2_8	25	Earth's atmosphere extends up to 10,000km into space	0.666666666666667	No	RIGHT	468.2143999998516	RIGHT	238.6553000001186	LEFT	2705.919600000016	RIGHT	2566.771000000017	13.599999999999998	0.6	Probable_Truth	LEFT	LEFT	1	683.8313999999173	24	2021-02-04 14:31:13.633120
108	Computer	S210204	0.5	2	1	2	1	0.8	1500.000003	1216.6666691	1783.3333369	2500.000005	Major	Wrong_doings	56	You have engaged in drink-driving	C2_56	0.0	Easy	I2_51	31	The Earth turns the closest to the sun in May	0.0	No	RIGHT	504.5542000000296	LEFT	826.7048999998678	LEFT	1607.3695999998563	RIGHT	2957.3120000000017	13.599999999999998	0.8	Probable_Truth	LEFT	LEFT	1	911.3070723007232	25	2021-02-04 14:31:40.017490
139	Computer	S210204	0.8333333333333334	2	1	1	2	0.6	1433.3333362	1283.3333359	2216.6666711000003	2500.000005	Minor	Wrong_doings	5	You have started an NGO using your savings	C1_35	0.0	Easy	I1_3	11	Mozambique is the world's poorest country	0.666666666666667	No	RIGHT	2015.4222000001027	LEFT	3910.410899999988	RIGHT	3086.492299999918	RIGHT	3128.733499999953	13.599999999999998	0.6	Probable_Truth	LEFT	RIGHT	4	832.6080670694844	26	2021-02-04 14:32:12.992905
80	Self	S210204	0.8333333333333334	1	2	1	2	0.8	1066.6666688	1000.000002	1500.000003	1933.3333372	Major	Wrong_doings	36	You have given up your seat in the MRT	C2_28	0.95	Hard	I1_24	60	Penguin can fly with their wings	0.888888888888889	Yes	RIGHT	436.388099999931	RIGHT	688.7856999999258	RIGHT	1148.946100000103	LEFT	1664.0652000000955	14.4	0.8	Probable_Truth	RIGHT	RIGHT	4	877.855800000134	27	2021-02-04 14:32:35.881678
72	Self	S210204	0.6666666666666666	2	1	1	2	0.1	1283.3333359	1150.0000023	2350.0000047	1783.3333369	Major	Good_deeds	42	You have been restricting your electricity consumption	C2_8	0.0	Hard	I2_45	33	Feijoa is a type of grape	0.722222222222222	Yes	RIGHT	551.6529999999875	RIGHT	626.7405999999482	RIGHT	1962.2891999999863	LEFT	1657.3750999998538	14.499999999999998	0.1	Probable_Truth	RIGHT	RIGHT	6	836.8381000000227	28	2021-02-04 14:33:00.657386
63	Self	S210204	0.5	2	1	2	1	0.8	1000.000002	1000.000002	2350.0000047	2350.0000047	Major	Wrong_doings	12	You have fabricated facts about yourself	C1_1	0.85	Easy	I1_6	35	Algeria is Africa's second largest country	0.833333333333333	Yes	RIGHT	520.8583000000999	RIGHT	314.66069999987667	LEFT	2401.078899999902	RIGHT	3963.0774999998266	15.3	0.8	Probable_Truth	RIGHT	RIGHT	5	1302.2636999999122	29	2021-02-04 14:33:28.434215
24	Self	S210204	0.6666666666666666	2	1	1	2	0.6	1350.0000027	1150.0000023	1650.0000033	1650.0000033	Major	Good_deeds	58	You have volunteered for a disaster-related humanitarian mission	C1_24	0.0	Hard	I1_21	13	Bears have the biggest eyes among mammals	0.833333333333333	No	RIGHT	402.0285999999942	RIGHT	478.3907999999428	RIGHT	1877.7964999999317	LEFT	2856.176000000005	15.9	0.6	Probable_Truth	LEFT	LEFT	1	747.4064000000453	30	2021-02-04 14:33:53.168475
94	Self	S210204	0.8333333333333334	2	1	2	1	0.6	1216.6666691	1216.6666691	1650.0000033	1500.000003	Major	Good_deeds	14	You have intentionally let others cut in line	C2_3	0.65	Easy	I1_53	28	"Statue of Liberty is 151 feet tall"	0.944444444444444	Yes	RIGHT	360.6296999998904	RIGHT	353.51489999993646	RIGHT	4320.141899999953	LEFT	2926.5376000000742	16.5	0.6	Probable_Truth	LEFT	LEFT	1	712.4459999999999	31	2021-02-04 14:34:19.993689
39	Self	S210204	0.8333333333333334	1	2	2	1	0.1	1350.0000027	1000.000002	2216.6666711000003	1933.3333372	Minor	Wrong_doings	39	You have organized a violent protest	C1_13	0.7	Hard	I2_16	44	The sun rises at night	0.0555555555555556	No	RIGHT	360.7477999998992	RIGHT	383.5200999999415	LEFT	1064.6790999999212	LEFT	1292.5063000000137	16.6	0.1	Probable_Truth	LEFT	LEFT	1	647.2575000000234	32	2021-02-04 14:34:42.817047
4	Self	S210204	0.5	1	2	2	1	0.7	1000.000002	1216.6666691	1783.3333369	2500.000005	Minor	Good_deeds	44	You have donated a pay cheque to charity	C1_44	0.0	Easy	I1_44	44	A dog has four legs	0.0	No	RIGHT	410.6179000000338	RIGHT	335.6533000001036	RIGHT	2584.4620000000305	RIGHT	1045.1706999999717	17.3	0.7	Probable_Truth	RIGHT	LEFT	1	936.465999999882	33	2021-02-04 14:35:07.200978
125	Computer	S210204	0.6666666666666666	2	1	2	1	0.2	1066.6666688	1500.000003	2350.0000047	2066.6666708	Minor	Good_deeds	29	You have sold illegal drugs	C2_48	0.55	Hard	I1_40	21	Polish is 20th most spoken language in the World	0.666666666666667	Yes	RIGHT	567.1522000000095	LEFT	795.8137999999053	LEFT	1352.2353000000749	RIGHT	3141.9897000000674	17.3	0.2	Probable_Truth	LEFT	LEFT	1	541.1650175860754	34	2021-02-04 14:35:33.146148
0	Self	S210204	0.5	1	2	1	2	0.5	1500.000003	1500.000003	2216.6666711000003	2066.6666708	Major	Good_deeds	25	You have followed instructions	C2_11	0.2	Hard	I1_1	39	Some owl species hunt fish	0.0	Yes	RIGHT	391.1877000000459	RIGHT	304.3197000001783	RIGHT	1284.2964000001302	LEFT	2119.696699999849	17.8	0.5	Probable_Truth	RIGHT	RIGHT	5	1260.0644000001466	35	2021-02-04 14:35:58.370301
138	Computer	S210204	0.8333333333333334	2	1	1	2	0.4	1000.000002	1433.3333362	2350.0000047	1933.3333372	Minor	Wrong_doings	20	You have been sued	C2_40	1.0	Hard	I2_3	3	It is snowing outside now	0.888888888888889	No	LEFT	536.725499999875	LEFT	895.1386999999613	LEFT	1027.9851000000235	LEFT	1383.960399999978	17.8	0.4	Probable_Lie	RIGHT	LEFT	6	580.2266007017554	36	2021-02-04 14:36:22.081399
3	Self	S210204	0.5	1	2	1	2	0.4	1150.0000023	1283.3333359	1500.000003	1783.3333369	Minor	Wrong_doings	17	You have cheated on a test	C1_17	0.65	Easy	I2_34	1	Africa is the continent with the least rainfall	0.611111111111111	No	RIGHT	470.0654000000668	RIGHT	312.6355000001695	LEFT	916.9283999999608	RIGHT	3167.5112000000354	18.2	0.4	Probable_Truth	RIGHT	LEFT	2	1373.3248000000913	37	2021-02-04 14:36:46.608909
30	Self	S210204	0.6666666666666666	2	1	2	1	0.8	1000.000002	1500.000003	1500.000003	2350.0000047	Minor	Wrong_doings	11	You have claimed doing things that you never did	C2_29	0.95	Hard	I2_46	8	The current century is 21st	0.888888888888889	No	RIGHT	368.2689999998274	RIGHT	347.6984999999786	LEFT	3191.243199999917	RIGHT	4761.853100000053	19.0	0.8	Probable_Truth	LEFT	LEFT	1	545.8466000000044	38	2021-02-04 14:37:14.752819
51	Self	S210204	0.5	1	2	1	2	0.8	1433.3333362	1350.0000027	1500.000003	2500.000005	Minor	Wrong_doings	38	You have taken part in burglary	C2_59	0.85	Easy	I1_26	26	Fishes can swim in water	0.666666666666667	No	RIGHT	341.7131999999583	RIGHT	320.5699000000095	LEFT	1206.4163000000008	RIGHT	1313.1495000000086	19.8	0.8	Probable_Truth	RIGHT	RIGHT	4	1181.9628000000648	39	2021-02-04 14:37:38.473069
103	Computer	S210204	0.5	1	2	2	1	0.5	1150.0000023	1150.0000023	2066.6666708	2066.6666708	Major	Wrong_doings	7	You have eaten something in the MRT train	C1_7	0.85	Hard	I2_36	36	Nanyang Technological University is in Australia	0.0	Yes	LEFT	546.1523999999827	LEFT	368.6220999998113	LEFT	1575.1460999999836	LEFT	1044.2473000000518	19.8	0.5	Probable_Lie	LEFT	RIGHT	2	918.6398877368274	40	2021-02-04 14:38:01.929435
90	Self	S210204	0.8333333333333334	2	1	1	2	0.2	1433.3333362	1283.3333359	2500.000005	2066.6666708	Minor	Good_deeds	26	You have attended all lectures as a student	C1_59	0.7	Hard	I2_6	53	It takes 112 years to build the Pisa Tower	0.0	No	RIGHT	383.2264000000123	RIGHT	532.2529000000031	LEFT	2616.294899999957	RIGHT	4047.686200000044	20.0	0.2	Probable_Truth	RIGHT	RIGHT	6	556.2016999999742	41	2021-02-04 14:38:29.921110
61	Self	S210204	0.5	2	1	2	1	0.1	1216.6666691	1216.6666691	2066.6666708	2500.000005	Major	Wrong_doings	52	You have helped others to pick up their belongings	C1_48	0.5	Hard	I1_45	12	Mageirocophobia is a fear of deathly disease	0.0555555555555556	Yes	RIGHT	296.4132999998128	RIGHT	398.5078999999132	RIGHT	1527.8227000001152	LEFT	2828.896900000018	20.1	0.1	Probable_Truth	LEFT	RIGHT	5	2060.236600000053	42	2021-02-04 14:38:56.608548
107	Computer	S210204	0.5	2	1	1	2	0.2	1433.3333362	1500.000003	2350.0000047	1500.000003	Minor	Wrong_doings	27	You have started a movement to support a cause	C1_27	0.9	Hard	I2_53	51	The first Olympic Games was held in the 5th century B.C	0.888888888888889	Yes	RIGHT	295.8849999999984	LEFT	636.1593999999968	LEFT	3056.000999999924	RIGHT	1964.952300000277	20.1	0.2	Probable_Truth	LEFT	RIGHT	6	891.526746363797	43	2021-02-04 14:39:22.800935
23	Self	S210204	0.6666666666666666	1	2	2	1	0.4	1150.0000023	1283.3333359	1650.0000033	1500.000003	Major	Good_deeds	58	You have a non-judgmental attitude towards everyone	C1_51	0.95	Easy	I2_17	36	It is 20th Century now	0.0	No	LEFT	1318.554899999981	RIGHT	824.2003000000295	RIGHT	2199.9909000001026	LEFT	1246.6139999996813	19.700000000000003	0.4	Probable_Lie	LEFT	LEFT	6	669.0035000001444	44	2021-02-04 14:39:47.216957
95	Self	S210204	0.8333333333333334	2	1	2	1	0.3	1150.0000023	1150.0000023	1500.000003	1783.3333369	Minor	Wrong_doings	3	You have deceived a loved one	C2_26	0.0	Hard	I1_17	23	North Korea is more developed than South Korea	0.888888888888889	Yes	RIGHT	391.387499999837	RIGHT	611.8940999999722	LEFT	1825.0364000000443	LEFT	1907.950300000266	20.000000000000004	0.3	Probable_Lie	LEFT	LEFT	5	620.1583000001847	45	2021-02-04 14:40:10.728915
102	Computer	S210204	0.5	1	2	2	1	0.6	1216.6666691	1216.6666691	1933.3333372	2500.000005	Major	Wrong_doings	11	You have risked your life to save another person's life	C2_47	0.95	Hard	I2_39	15	South East Asia is currently free from polio	0.722222222222222	Yes	RIGHT	1469.6193999998286	RIGHT	278.7834999999177	LEFT	4712.101900000107	LEFT	4205.854000000272	20.600000000000005	0.6	Probable_Truth	RIGHT	RIGHT	5	624.4612941386272	46	2021-02-04 14:40:41.449262
11	Self	S210204	0.5	2	1	1	2	0.7	1216.6666691	1433.3333362	2500.000005	1500.000003	Minor	Wrong_doings	27	You have started a movement to support a cause	C1_27	0.9	Hard	I2_53	51	The first Olympic Games was held in the 5th century B.C	0.888888888888889	Yes	LEFT	1072.4275000002308	RIGHT	2397.190000000137	LEFT	2941.873399999622	RIGHT	1151.1977999998635	19.90000000000001	0.7	Probable_Lie	RIGHT	LEFT	6	1539.0861999999288	47	2021-02-04 14:41:09.777321
78	Self	S210204	0.6666666666666666	2	1	2	1	0.7	1500.000003	1000.000002	1783.3333369	2350.0000047	Minor	Wrong_doings	47	You have kidnapped someone	C2_7	0.45	Easy	I2_33	46	There are 10 continents in the World	0.111111111111111	No	RIGHT	1744.0135000001646	RIGHT	754.5116000001144	LEFT	1144.534499999736	LEFT	3203.576100000191	20.600000000000005	0.7	Probable_Lie	RIGHT	RIGHT	1	667.8084000000126	48	2021-02-04 14:43:12.239624
110	Computer	S210204	0.5	2	1	2	1	0.4	1066.6666688	1433.3333362	1650.0000033	1783.3333369	Major	Wrong_doings	53	You have told someone's secret to others	C1_23	1.0	Easy	I2_2	2	Teddy Roosevelt was the youngest US President	0.0	No	LEFT	615.7358000000386	LEFT	784.7446999999192	RIGHT	4615.985400000227	LEFT	3218.956000000162	20.600000000000005	0.4	Probable_Lie	RIGHT	RIGHT	2	813.9299722150411	49	2021-02-04 14:43:40.800096
99	Computer	S210204	0.5	1	2	1	2	0.8	1500.000003	1433.3333362	1783.3333369	2350.0000047	Minor	Wrong_doings	17	You have cheated on a test	C1_17	0.65	Easy	I2_34	1	Africa is the continent with the least rainfall	0.611111111111111	No	RIGHT	691.03640000003	LEFT	311.1266999999316	LEFT	1460.8601999998427	RIGHT	1687.3509000001832	20.600000000000005	0.8	Probable_Truth	LEFT	RIGHT	4	820.901569063624	50	2021-02-04 14:44:05.401299
53	Self	S210204	0.5	1	2	2	1	0.1	1000.000002	1066.6666688	2350.0000047	2066.6666708	Major	Wrong_doings	20	You have pretended to be busy to avoid a social situation	C2_24	0.0	Hard	I2_4	33	Cheese is an Asian staple	0.888888888888889	No	LEFT	1171.2978000000476	RIGHT	240.71580000008908	RIGHT	2591.7841999998927	LEFT	1700.742900000023	20.500000000000004	0.1	Probable_Lie	LEFT	LEFT	4	898.4697000000779	51	2021-02-04 14:44:31.064807
43	Self	S210204	0.8333333333333334	2	1	1	2	0.2	1000.000002	1433.3333362	2350.0000047	1933.3333372	Minor	Wrong_doings	5	You have started an NGO using your savings	C1_35	0.0	Easy	I1_3	11	Mozambique is the world's poorest country	0.666666666666667	No	RIGHT	304.90810000037527	RIGHT	506.367599999976	RIGHT	3124.219999999696	LEFT	2303.85219999971	20.700000000000003	0.2	Probable_Lie	LEFT	LEFT	3	730.8274000001802	52	2021-02-04 14:44:57.327925
84	Self	S210204	0.8333333333333334	1	2	2	1	0.4	1433.3333362	1500.000003	2350.0000047	1500.000003	Minor	Wrong_doings	34	You have signed up as a bone marrow donor	C2_19	0.05	Easy	I2_38	38	Airbags in cars are filled with sodium azide	0.0555555555555556	No	RIGHT	362.01009999967937	RIGHT	584.0404999999009	RIGHT	2406.6108000001805	LEFT	4029.883499999869	21.1	0.4	Probable_Truth	RIGHT	RIGHT	6	586.233799999718	53	2021-02-04 14:45:24.656888
26	Self	S210204	0.6666666666666666	2	1	1	2	0.4	1283.3333359	1216.6666691	1933.3333372	2216.6666711000003	Major	Wrong_doings	37	You have bought cigarettes for a minor	C2_37	0.0	Hard	I1_54	46	Singapore ranked 8th in World's smallest countries	0.0	Yes	RIGHT	288.1750000001375	RIGHT	387.37540000011	LEFT	1376.9966000004388	RIGHT	1758.9560000001256	21.5	0.4	Probable_Lie	LEFT	LEFT	4	627.1005000003242	54	2021-02-04 14:45:48.320691
143	Computer	S210204	0.8333333333333334	2	1	2	1	0.3	1066.6666688	1066.6666688	1783.3333369	1500.000003	Major	Good_deeds	43	You have given directions to a lost tourist	C2_14	0.7	Hard	I2_11	3	Today is a weekday	0.722222222222222	No	RIGHT	272.32309999999416	RIGHT	326.94720000017696	RIGHT	1408.2596000002925	RIGHT	1826.7064000001485	21.8	0.3	Probable_Truth	LEFT	LEFT	1	777.7147596844969	55	2021-02-04 14:46:10.928800
5	Self	S210204	0.5	1	2	2	1	0.8	1283.3333359	1150.0000023	2066.6666708	2216.6666711000003	Major	Good_deeds	47	You have bribed someone to improve a grade	C2_25	0.05	Hard	I1_38	50	It takes 500 days to travel from Earth to Mars	0.0	No	RIGHT	1253.7376000000222	RIGHT	249.0944999999556	LEFT	1479.7519000003376	LEFT	2336.486899999727	22.6	0.8	Probable_Lie	RIGHT	RIGHT	2	1373.2451999999284	56	2021-02-04 14:46:36.913076
37	Self	S210204	0.8333333333333334	1	2	2	1	0.4	1066.6666688	1433.3333362	1933.3333372	2500.000005	Minor	Wrong_doings	29	You have provided shelter for stray animals	C2_39	0.95	Hard	I1_42	47	It sometimes snows in Singapore	0.833333333333333	Yes	RIGHT	413.0420999999842	RIGHT	2023.766899999828	RIGHT	1378.1840999999986	LEFT	1060.75890000011	23.0	0.4	Probable_Truth	LEFT	LEFT	1	1257.205100000192	57	2021-02-04 14:47:02.553699
42	Self	S210204	0.8333333333333334	2	1	1	2	0.7	1500.000003	1000.000002	2500.000005	1783.3333369	Minor	Wrong_doings	20	You have been sued	C2_40	1.0	Hard	I2_3	3	It is snowing outside now	0.888888888888889	No	RIGHT	296.7521000000488	RIGHT	222.10039999981743	LEFT	931.3568000002306	LEFT	911.7701000000123	23.7	0.7	Probable_Truth	RIGHT	RIGHT	3	457.7372999997351	58	2021-02-04 14:47:24.729338
109	Computer	S210204	0.5	2	1	2	1	0.1	1350.0000027	1066.6666688	1500.000003	2350.0000047	Major	Good_deeds	27	You have helped a friend in need	C1_50	0.05	Hard	I1_52	29	Statute of Liberty is in New York	0.777777777777778	Yes	LEFT	287.8967999999986	LEFT	600.4081999999471	RIGHT	816.3150000000314	RIGHT	1501.753600000029	23.7	0.1	Probable_Lie	LEFT	LEFT	5	759.0936848266427	59	2021-02-04 14:47:47.536421
140	Computer	S210204	0.8333333333333334	2	1	2	1	0.2	1283.3333359	1500.000003	1650.0000033	1650.0000033	Major	Good_deeds	40	You have offered a listening ear to a friend	C1_8	0.9	Easy	I2_58	25	Cleopatra was born in Greece	0.833333333333333	Yes	LEFT	151.79129999978613	LEFT	321.7711999996027	RIGHT	1182.3355999999876	RIGHT	2680.861599999844	23.7	0.2	Probable_Lie	LEFT	RIGHT	1	555.7467739893082	60	2021-02-04 14:48:11.080685
91	Self	S210204	0.8333333333333334	2	1	1	2	0.1	1000.000002	1433.3333362	1933.3333372	2350.0000047	Major	Wrong_doings	37	You have taken part in violent demonstration	C1_14	0.0	Hard	I1_28	35	There are 7 days in a week	0.0	No	RIGHT	287.491399999908	RIGHT	412.1086999998624	LEFT	1419.8586000002251	RIGHT	1264.2000000000735	23.8	0.1	Probable_Truth	RIGHT	RIGHT	2	429.8054999999295	61	2021-02-04 14:48:34.184499
33	Self	S210204	0.8333333333333334	1	2	1	2	0.3	1150.0000023	1350.0000027	2500.000005	1500.000003	Minor	Wrong_doings	10	You have made someone cry	C2_16	1.0	Easy	I2_44	42	There are 20 bones in the human skull	0.0555555555555556	No	RIGHT	212.15739999979635	RIGHT	152.70710000004328	RIGHT	2205.5774999998903	RIGHT	3320.1257000000624	24.1	0.3	Probable_Lie	LEFT	LEFT	3	627.0730000001095	62	2021-02-04 14:48:59.777033
31	Self	S210204	0.6666666666666666	2	1	2	1	0.3	1433.3333362	1433.3333362	2350.0000047	1500.000003	Minor	Wrong_doings	17	You have borrowed things and never returned	C2_17	0.05	Easy	I2_59	54	There are 30 hours in a day	0.0	No	RIGHT	113.00010000013572	RIGHT	114.78649999980917	LEFT	4038.669999999911	LEFT	1094.9152000002869	24.4	0.3	Probable_Lie	LEFT	LEFT	3	570.8972000002177	63	2021-02-04 14:49:24.999699
104	Computer	S210204	0.5	2	1	1	2	0.5	1283.3333359	1150.0000023	2216.6666711000003	2216.6666711000003	Major	Wrong_doings	13	You have participated in a scamming business	C2_27	0.0	Easy	I1_58	52	December is the last month of the year	0.0	No	LEFT	151.46010000034948	LEFT	267.8773000002366	LEFT	2231.853799999953	RIGHT	1263.3032000003368	24.4	0.5	Probable_Lie	RIGHT	RIGHT	1	943.1197425242268	64	2021-02-04 14:49:49.303882
134	Computer	S210204	0.8333333333333334	1	2	2	1	0.5	1433.3333362	1283.3333359	1500.000003	2066.6666708	Major	Good_deeds	16	You have shown your appreciation to your teachers	C1_29	0.2	Easy	I1_9	8	Most plants emit oxygen in the day	0.777777777777778	Yes	RIGHT	762.0157999999719	LEFT	72.85219999994297	RIGHT	1797.6489999996377	LEFT	2285.6354999998985	24.4	0.5	Probable_Truth	RIGHT	RIGHT	2	944.0459439857524	65	2021-02-04 14:50:14.023627
77	Self	S210204	0.6666666666666666	2	1	2	1	0.8	1000.000002	1500.000003	1650.0000033	1500.000003	Major	Good_deeds	60	You have confessed to your mistake	C1_60	1.0	Hard	I1_43	27	Red is a color	0.777777777777778	Yes	LEFT	185.01530000003183	RIGHT	982.7986000000236	RIGHT	1359.7532999997384	RIGHT	1231.664699999783	23.6	0.8	Probable_Lie	RIGHT	RIGHT	2	412.7033999998275	66	2021-02-04 14:50:36.415763
25	Self	S210204	0.6666666666666666	2	1	1	2	0.5	1066.6666688	1283.3333359	2216.6666711000003	2066.6666708	Minor	Good_deeds	24	You have said sorry when you were rude	C1_53	0.8	Easy	I2_40	59	Last day of the year is 30th December	0.944444444444444	No	RIGHT	15.89079999985188	RIGHT	137.35170000018115	RIGHT	1061.729699999887	RIGHT	1728.501999999935	24.1	0.5	Probable_Lie	LEFT	LEFT	3	687.6241999998456	67	2021-02-04 14:50:59.256931
119	Computer	S210204	0.6666666666666666	1	2	2	1	0.4	1216.6666691	1500.000003	1650.0000033	2500.000005	Major	Good_deeds	58	You have a non-judgmental attitude towards everyone	C1_51	0.95	Easy	I2_17	36	It is 20th Century now	0.0	No	LEFT	861.8218000001434	LEFT	336.5171000000373	RIGHT	2193.087000000105	LEFT	862.8107999998065	24.1	0.4	Probable_Lie	RIGHT	RIGHT	2	696.998658430876	68	2021-02-04 14:51:23.648481
40	Self	S210204	0.8333333333333334	2	1	1	2	0.6	1433.3333362	1350.0000027	2066.6666708	2066.6666708	Minor	Good_deeds	46	You have coveted things that belong to others	C2_43	0.45	Hard	I1_2	41	A triangle has three sides	0.0	Yes	RIGHT	112.53120000037596	RIGHT	63.3668000000398	LEFT	979.602099999738	RIGHT	936.2737999999808	24.700000000000003	0.6	Probable_Lie	LEFT	LEFT	5	430.52750000015294	69	2021-02-04 14:51:45.663781
50	Self	S210204	0.5	1	2	1	2	0.7	1150.0000023	1216.6666691	2500.000005	2350.0000047	Major	Wrong_doings	24	You have taken months off to volunteer	C2_34	0.0	Hard	I1_37	37	There are 6000 spoken languages in the World	0.0	Yes	RIGHT	163.7086000000636	RIGHT	160.36580000036338	RIGHT	1961.19009999984	RIGHT	2319.679299999734	25.4	0.7	Probable_Truth	RIGHT	RIGHT	5	1246.5549999997163	70	2021-02-04 14:52:11.312743
112	Computer	S210204	0.6666666666666666	1	2	1	2	0.3	1500.000003	1000.000002	2066.6666708	2216.6666711000003	Minor	Wrong_doings	51	You have watched an M18 movie when you were underage	C1_57	0.0	Hard	I2_55	17	Malay is one of the races in Singapore	0.0	Yes	LEFT	651.4613999997891	LEFT	1304.6721000000616	LEFT	2431.7213999997875	RIGHT	1799.6940999996696	25.4	0.3	Probable_Lie	LEFT	LEFT	5	951.5911284498612	71	2021-02-04 14:52:37.807600
48	Self	S210204	0.5	1	2	1	2	0.4	1350.0000027	1283.3333359	1783.3333369	2216.6666711000003	Major	Good_deeds	34	You have helped your parents when asked to	C1_20	1.0	Easy	I2_22	49	The Franco-Prussian War occurred in the 19th century	0.0	Yes	RIGHT	242.94989999998504	RIGHT	216.44989999958847	RIGHT	2186.046499999975	LEFT	1862.405999999737	25.8	0.4	Probable_Truth	LEFT	LEFT	3	1036.5431000000171	72	2021-02-04 14:53:02.560381
34	Self	S210204	0.8333333333333334	1	2	1	2	0.2	1500.000003	1500.000003	1500.000003	1783.3333369	Minor	Wrong_doings	42	You have extorted money from anyone	C2_10	0.0	Hard	I1_47	16	Saturn's rings are between 30 and 300 feet thick	0.0	No	RIGHT	261.55089999974734	RIGHT	215.9338999999818	LEFT	1353.8871999999174	RIGHT	2727.3771999998644	26.0	0.2	Probable_Lie	LEFT	LEFT	3	423.64520000000994	73	2021-02-04 14:53:26.400064
76	Self	S210204	0.6666666666666666	2	1	2	1	0.2	1433.3333362	1216.6666691	1500.000003	2500.000005	Major	Good_deeds	19	You have stolen something	C1_19	1.0	Easy	I2_56	43	The Moon orbits around the Earth	0.888888888888889	Yes	LEFT	520.6040000002758	RIGHT	797.3632000002908	LEFT	903.9828999998464	RIGHT	1494.709999999941	25.8	0.2	Probable_Lie	LEFT	LEFT	5	452.04910000029486	74	2021-02-04 14:53:49.791549
127	Computer	S210204	0.6666666666666666	2	1	2	1	0.4	1000.000002	1350.0000027	2500.000005	2500.000005	Minor	Wrong_doings	17	You have borrowed things and never returned	C2_17	0.05	Easy	I2_59	54	There are 30 hours in a day	0.0	No	LEFT	424.0239000000656	LEFT	1386.918600000172	LEFT	1591.4473999996517	LEFT	807.3108999997203	25.8	0.4	Probable_Lie	LEFT	RIGHT	2	564.1375232866933	75	2021-02-04 14:54:14.488125
29	Self	S210204	0.6666666666666666	2	1	2	1	0.1	1150.0000023	1350.0000027	2066.6666708	2500.000005	Minor	Good_deeds	29	You have sold illegal drugs	C2_48	0.55	Hard	I1_40	21	Polish is 20th most spoken language in the World	0.666666666666667	Yes	LEFT	216.02130000019315	RIGHT	1300.928500000282	LEFT	1409.3066000000365	RIGHT	2493.39689999988	25.7	0.1	Probable_Lie	LEFT	LEFT	5	682.2988999997506	76	2021-02-04 14:54:40.233086
54	Self	S210204	0.5	1	2	2	1	0.5	1500.000003	1433.3333362	2066.6666708	1783.3333369	Minor	Good_deeds	28	You have illegally stayed in a country	C1_45	0.05	Hard	I2_26	26	The Earth is round	0.611111111111111	Yes	RIGHT	1150.348799999847	RIGHT	152.85149999999703	LEFT	1312.8336999998282	RIGHT	987.382400000115	26.2	0.5	Probable_Lie	LEFT	LEFT	6	1686.6532999997617	77	2021-02-04 14:55:04.879866
1	Self	S210204	0.5	1	2	1	2	0.1	1216.6666691	1066.6666688	1933.3333372	1500.000003	Minor	Good_deeds	31	You have thrown your trash into the bin	C1_31	0.05	Easy	I2_50	38	Chickens lay eggs	0.833333333333333	Yes	LEFT	868.6008999998194	RIGHT	64.36630000007426	RIGHT	1581.0887000002367	RIGHT	824.3250000000444	26.1	0.1	Probable_Lie	RIGHT	RIGHT	3	1171.951799999988	78	2021-02-04 14:55:27.679633
2	Self	S210204	0.5	1	2	1	2	0.3	1350.0000027	1350.0000027	2350.0000047	2350.0000047	Minor	Wrong_doings	31	You have cheated on a national exam	C2_31	1.0	Easy	I1_15	34	Today is Sunday	0.777777777777778	No	LEFT	945.3462000001308	RIGHT	160.3224999998929	LEFT	1003.7646999999196	LEFT	831.9524999997157	25.8	0.3	Probable_Lie	LEFT	RIGHT	1	1199.9172999999246	79	2021-02-04 14:55:51.800188
88	Self	S210204	0.8333333333333334	2	1	1	2	0.8	1066.6666688	1066.6666688	1783.3333369	1933.3333372	Minor	Wrong_doings	54	You have assisted in a crime	C2_54	0.2	Easy	I2_1	31	Singapore is a poor country	0.888888888888889	No	LEFT	2984.7783000000163	LEFT	859.5663000000968	LEFT	2404.943399999865	LEFT	1311.90289999995	25.8	0.8	Probable_Lie	RIGHT	RIGHT	1	654.7826000000896	80	2021-02-04 14:56:18.440153
93	Self	S210204	0.8333333333333334	2	1	2	1	0.5	1500.000003	1350.0000027	2066.6666708	2216.6666711000003	Major	Wrong_doings	46	You have kept your promises	C2_46	0.85	Hard	I2_35	17	Lehman Brothers went bankrupt on 20th September	0.0555555555555556	Yes	RIGHT	120.348500000091	RIGHT	295.013000000381	RIGHT	1256.2417000003734	LEFT	3343.165599999793	26.3	0.5	Probable_Truth	RIGHT	RIGHT	5	571.3638000001993	81	2021-02-04 14:56:43.735932
36	Self	S210204	0.8333333333333334	1	2	2	1	0.7	1433.3333362	1283.3333359	1650.0000033	2216.6666711000003	Major	Good_deeds	49	You have helped with household chores	C1_42	0.0	Easy	I2_42	9	Beef comes from cows	0.0	Yes	RIGHT	120.18789999956424	RIGHT	152.17970000003334	RIGHT	975.5067000000964	RIGHT	1713.5244000000966	27.0	0.7	Probable_Truth	RIGHT	RIGHT	4	674.4189000000915	82	2021-02-04 14:57:06.528397
6	Self	S210204	0.5	1	2	2	1	0.2	1433.3333362	1000.000002	2500.000005	1933.3333372	Major	Wrong_doings	11	You have risked your life to save another person's life	C2_47	0.95	Hard	I2_39	15	South East Asia is currently free from polio	0.722222222222222	Yes	RIGHT	142.12079999970229	RIGHT	18.34090000011201	LEFT	1767.2092000002522	LEFT	1458.5034000001542	27.2	0.2	Probable_Truth	RIGHT	LEFT	2	603.294200000164	83	2021-02-04 14:57:29.959953
18	Self	S210204	0.6666666666666666	1	2	1	2	0.3	1350.0000027	1000.000002	2066.6666708	2066.6666708	Major	Good_deeds	30	You have blackmailed others for money	C2_18	0.65	Hard	I2_18	12	Hot chocolate was created by the Mayan culture	0.944444444444444	No	LEFT	1037.8817000000709	RIGHT	232.0268999997097	LEFT	782.141899999715	LEFT	3480.170799999996	26.899999999999995	0.3	Probable_Lie	LEFT	LEFT	6	582.4894000002132	84	2021-02-04 14:57:55.136138
13	Self	S210204	0.5	2	1	2	1	0.5	1000.000002	1150.0000023	1500.000003	2500.000005	Major	Good_deeds	27	You have helped a friend in need	C1_50	0.05	Hard	I1_52	29	Statute of Liberty is in New York	0.777777777777778	Yes	RIGHT	32.992899999953806	RIGHT	1236.4462999998975	RIGHT	1040.3056000000106	RIGHT	1189.5908000001327	27.399999999999995	0.5	Probable_Lie	RIGHT	RIGHT	1	1453.8612999999714	85	2021-02-04 14:58:18.815650
81	Self	S210204	0.8333333333333334	1	2	1	2	0.7	1216.6666691	1350.0000027	2066.6666708	1783.3333369	Minor	Wrong_doings	19	You have drunk alcohol when you were underage	C2_36	0.15	Hard	I1_60	39	A caterpillar has more muscle than a human	0.0	Yes	RIGHT	150.0173999997969	RIGHT	97.12469999976749	LEFT	1081.4050999997562	LEFT	3399.2502999999488	28.099999999999994	0.7	Probable_Truth	LEFT	LEFT	1	607.622900000024	86	2021-02-04 14:58:43.143228
116	Computer	S210204	0.6666666666666666	1	2	2	1	0.1	1433.3333362	1283.3333359	1500.000003	2066.6666708	Major	Good_deeds	3	You have taken responsibility for your actions	C1_3	0.0	Hard	I1_23	50	China is a part of Asia	1.0	No	LEFT	291.76989999996295	LEFT	137.31259999985923	RIGHT	894.8231000003943	RIGHT	992.4468999997772	28.099999999999994	0.1	Probable_Lie	RIGHT	LEFT	4	786.6347315009318	87	2021-02-04 14:59:05.095082
47	Self	S210204	0.8333333333333334	2	1	2	1	0.3	1350.0000027	1066.6666688	1650.0000033	2350.0000047	Major	Good_deeds	43	You have given directions to a lost tourist	C2_14	0.7	Hard	I2_11	3	Today is a weekday	0.722222222222222	No	LEFT	8.761300000060146	RIGHT	776.4018000002579	RIGHT	1150.9986000000936	RIGHT	1291.3862999998855	27.799999999999997	0.3	Probable_Lie	RIGHT	RIGHT	1	652.9161000003114	88	2021-02-04 14:59:27.967711
131	Computer	S210204	0.8333333333333334	1	2	1	2	0.7	1283.3333359	1433.3333362	1783.3333369	2500.000005	Major	Good_deeds	13	You have stopped using plastics completely	C2_57	0.05	Easy	I2_8	25	Earth's atmosphere extends up to 10,000km into space	0.666666666666667	No	LEFT	1290.3673000000708	LEFT	599.3108000002394	LEFT	1638.6361999998371	RIGHT	1184.2360999999073	27.799999999999997	0.7	Probable_Lie	RIGHT	LEFT	5	937.9645918326607	89	2021-02-04 14:59:53.183865
22	Self	S210204	0.6666666666666666	1	2	2	1	0.8	1066.6666688	1066.6666688	1783.3333369	1650.0000033	Minor	Wrong_doings	23	You have started a hotline for victims of bully	C2_58	0.7	Easy	I2_43	55	Cernan was the second last man to walk on the Moon	0.166666666666667	Yes	RIGHT	50.40359999975408	RIGHT	303.40449999994235	LEFT	2255.922400000145	RIGHT	3829.8111999997673	28.599999999999994	0.8	Probable_Truth	RIGHT	RIGHT	6	615.2147000002515	90	2021-02-04 15:00:18.384196
126	Computer	S210204	0.6666666666666666	2	1	2	1	0.6	1433.3333362	1216.6666691	1500.000003	1783.3333369	Minor	Wrong_doings	11	You have claimed doing things that you never did	C2_29	0.95	Hard	I2_46	8	The current century is 21st	0.888888888888889	No	RIGHT	793.3066999999028	LEFT	818.7670000002072	LEFT	3640.7915999998295	RIGHT	1041.7091999997865	28.599999999999994	0.6	Probable_Lie	LEFT	LEFT	3	726.3708687613521	91	2021-02-04 15:00:43.911714
115	Computer	S210204	0.6666666666666666	1	2	1	2	0.5	1283.3333359	1066.6666688	1933.3333372	1933.3333372	Minor	Good_deeds	35	You have held the elevator doors for others	C2_35	0.95	Easy	I1_50	23	R. Amundsen discovered the South Pole	0.666666666666667	Yes	LEFT	59.67379999992772	LEFT	95.26970000024448	RIGHT	1380.102099999931	LEFT	1855.8755000003655	28.599999999999994	0.5	Probable_Lie	LEFT	RIGHT	2	701.3059935710589	92	2021-02-04 15:01:06.790966
85	Self	S210204	0.8333333333333334	1	2	2	1	0.1	1150.0000023	1283.3333359	2500.000005	2066.6666708	Major	Good_deeds	4	You have failed to keep promises	C1_34	0.85	Hard	I2_30	27	There are 9 rings in the Olympic flag	1.0	No	RIGHT	282.55950000038865	RIGHT	527.4438999999802	LEFT	1535.5345000002671	LEFT	2520.774199999778	28.7	0.1	Probable_Truth	LEFT	LEFT	1	717.9769999997916	93	2021-02-04 15:01:31.951677
68	Self	S210204	0.6666666666666666	1	2	2	1	0.4	1216.6666691	1150.0000023	1783.3333369	2350.0000047	Major	Wrong_doings	60	You have rescued others from a catastrophe	C1_33	0.0	Easy	I2_54	54	The hyoid bone is the only jointless bone	0.0	Yes	LEFT	810.475199999928	RIGHT	248.0772999997498	LEFT	2176.644000000124	LEFT	2890.918699999929	28.3	0.4	Probable_Lie	RIGHT	RIGHT	1	391.3935999999012	94	2021-02-04 15:01:57.543071
44	Self	S210204	0.8333333333333334	2	1	2	1	0.4	1283.3333359	1283.3333359	2216.6666711000003	1650.0000033	Major	Good_deeds	40	You have offered a listening ear to a friend	C1_8	0.9	Easy	I2_58	25	Cleopatra was born in Greece	0.833333333333333	Yes	RIGHT	87.2733999999582	RIGHT	255.8254999999008	RIGHT	990.7278000000588	RIGHT	1492.3533999999563	28.7	0.4	Probable_Truth	RIGHT	RIGHT	3	592.6603999996587	95	2021-02-04 15:02:19.976383
118	Computer	S210204	0.6666666666666666	1	2	2	1	0.6	1066.6666688	1433.3333362	2500.000005	1650.0000033	Minor	Wrong_doings	23	You have started a hotline for victims of bully	C2_58	0.7	Easy	I2_43	55	Cernan was the second last man to walk on the Moon	0.166666666666667	Yes	RIGHT	910.8478000002832	LEFT	584.559999999783	LEFT	1848.0536000001848	RIGHT	1703.564599999936	28.7	0.6	Probable_Lie	LEFT	LEFT	3	744.6422088031597	96	2021-02-04 15:03:55.831292
69	Self	S210204	0.6666666666666666	1	2	2	1	0.3	1500.000003	1500.000003	1500.000003	1933.3333372	Major	Good_deeds	22	You have complimented others for good work	C1_6	0.05	Easy	I1_48	57	Vegetarians can eat vegetable products	0.0	No	RIGHT	309.5075999999608	RIGHT	584.650799999963	RIGHT	1280.4848999999194	RIGHT	2189.352500000041	29.0	0.3	Probable_Truth	LEFT	LEFT	2	714.8666000002777	97	2021-02-04 15:04:19.918625
32	Self	S210204	0.8333333333333334	1	2	1	2	0.8	1283.3333359	1216.6666691	2350.0000047	2066.6666708	Major	Good_deeds	57	You have cursed at your loved ones	C1_49	1.0	Hard	I1_25	42	There is typically 0.6 grams of mercury in glass thermometer	0.764705882352941	Yes	RIGHT	299.7826999999233	RIGHT	327.73539999971035	RIGHT	1839.634599999954	RIGHT	2342.667800000072	29.8	0.8	Probable_Truth	RIGHT	RIGHT	6	911.8988000000172	98	2021-02-04 15:04:45.136337
64	Self	S210204	0.6666666666666666	1	2	1	2	0.7	1350.0000027	1000.000002	2216.6666711000003	2216.6666711000003	Major	Wrong_doings	9	You have queued to enter the MRT train	C2_38	0.95	Hard	I2_24	48	Fibers in oranges can be used to make fabric	0.944444444444444	No	LEFT	1232.3210999998082	RIGHT	593.1196000001364	RIGHT	1967.294000000038	LEFT	2931.9628999996894	29.1	0.7	Probable_Lie	LEFT	LEFT	5	680.9622999999192	99	2021-02-04 15:05:11.903919
106	Computer	S210204	0.5	2	1	1	2	0.3	1150.0000023	1350.0000027	2500.000005	1933.3333372	Minor	Good_deeds	23	You have switched off appliances when not in use	C2_13	0.1	Easy	I1_11	53	A square has 3 corners	1.0	Yes	RIGHT	214.9176000002626	LEFT	695.137899999736	RIGHT	2532.8449000003275	LEFT	1400.215499999831	29.1	0.3	Probable_Truth	LEFT	LEFT	2	691.4030043256204	100	2021-02-04 15:05:36.958976
100	Computer	S210204	0.5	1	2	2	1	0.3	1283.3333359	1500.000003	2216.6666711000003	1650.0000033	Minor	Good_deeds	44	You have donated a pay cheque to charity	C1_44	0.0	Easy	I1_44	44	A dog has four legs	0.0	No	RIGHT	438.6930000000575	RIGHT	376.2041999998473	RIGHT	1656.1573999997563	RIGHT	937.0789999998124	29.4	0.3	Probable_Truth	RIGHT	RIGHT	5	998.9181337652008	101	2021-02-04 15:06:00.592019
137	Computer	S210204	0.8333333333333334	2	1	1	2	0.5	1500.000003	1000.000002	2066.6666708	2216.6666711000003	Major	Good_deeds	8	You have bought cocaine	C2_20	0.0	Easy	I1_32	58	There are 6 million animal species on Earth	0.0	Yes	LEFT	646.2498999999298	LEFT	1334.8823000001175	LEFT	1034.2241999996986	LEFT	2615.7568000003266	29.4	0.5	Probable_Lie	RIGHT	LEFT	4	779.2574195072613	102	2021-02-04 15:06:26.358586
113	Computer	S210204	0.6666666666666666	1	2	1	2	0.2	1150.0000023	1350.0000027	2216.6666711000003	2350.0000047	Minor	Wrong_doings	18	You have engaged in arson	C2_23	0.0	Hard	I1_36	43	Kangaroos live in Africa	0.0	No	LEFT	489.87010000018927	LEFT	287.753900000098	LEFT	1700.4900000001726	LEFT	2184.709000000112	29.4	0.2	Probable_Lie	LEFT	RIGHT	2	703.5403673466551	103	2021-02-04 15:06:51.358723
66	Self	S210204	0.6666666666666666	1	2	1	2	0.5	1066.6666688	1350.0000027	2350.0000047	2500.000005	Minor	Good_deeds	6	You have done something against your values	C2_9	0.9	Hard	I1_57	5	The Seine river is 50 feet above sea level	0.944444444444444	Yes	LEFT	1034.7130999998626	RIGHT	383.7962999996307	LEFT	2538.6366000002454	RIGHT	3655.780399999912	28.9	0.5	Probable_Lie	RIGHT	RIGHT	2	855.1499999998668	104	2021-02-04 15:07:19.670808
129	Computer	S210204	0.8333333333333334	1	2	1	2	0.3	1350.0000027	1350.0000027	1933.3333372	2350.0000047	Minor	Wrong_doings	10	You have made someone cry	C2_16	1.0	Easy	I2_44	42	There are 20 bones in the human skull	0.0555555555555556	No	LEFT	879.2954999998983	LEFT	399.2242000003898	RIGHT	2207.524999999805	LEFT	1439.665800000057	28.9	0.3	Probable_Lie	LEFT	RIGHT	1	778.3016588584755	105	2021-02-04 15:07:44.942799
117	Computer	S210204	0.6666666666666666	1	2	2	1	0.7	1000.000002	1150.0000023	1783.3333369	1500.000003	Major	Wrong_doings	57	You have downloaded pirated movies	C1_30	0.25	Easy	I1_12	18	Nomophobia is the fear of being without a phone or computer	1.0	Yes	LEFT	675.7369000001745	LEFT	415.9639999998035	RIGHT	3656.175900000108	LEFT	2638.723999999911	28.9	0.7	Probable_Lie	RIGHT	LEFT	5	830.8024949596486	106	2021-02-04 15:08:11.167052
87	Self	S210204	0.8333333333333334	1	2	2	1	0.2	1000.000002	1216.6666691	2216.6666711000003	2216.6666711000003	Minor	Good_deeds	28	You have engaged in underage smoking	C1_9	0.0	Easy	I1_5	24	Astatine is the rarest element in the Earth's crust	0.833333333333333	No	RIGHT	264.6021999998993	RIGHT	448.0555000000095	LEFT	1087.7534000001106	RIGHT	3095.343099999809	29.1	0.2	Probable_Lie	LEFT	LEFT	4	636.5599000000657	107	2021-02-04 15:08:35.927913
28	Self	S210204	0.6666666666666666	2	1	2	1	0.2	1216.6666691	1066.6666688	1783.3333369	1933.3333372	Major	Good_deeds	53	You have been donating all your excess food to a food bank	C1_11	0.95	Easy	I2_13	40	Animals are living things	0.0555555555555556	Yes	RIGHT	256.7367999999988	RIGHT	289.84710000031555	LEFT	2024.1485000001376	RIGHT	947.4819000001844	29.3	0.2	Probable_Truth	RIGHT	RIGHT	5	582.9529999996339	108	2021-02-04 15:08:58.607366
105	Computer	S210204	0.5	2	1	1	2	0.6	1216.6666691	1283.3333359	1933.3333372	1650.0000033	Minor	Good_deeds	50	You have stopped using products tested on animals	C2_53	0.75	Hard	I1_29	58	Christmas Day is in March	0.0	No	RIGHT	1711.4424999999756	RIGHT	483.0495000001065	RIGHT	1930.7001000001949	LEFT	887.7360000001318	29.9	0.6	Probable_Truth	LEFT	RIGHT	5	553.3756994948408	109	2021-02-04 15:09:22.822516
73	Self	S210204	0.6666666666666666	2	1	1	2	0.6	1150.0000023	1433.3333362	2500.000005	1933.3333372	Minor	Wrong_doings	16	You have engaged in money laundering	C2_45	1.0	Hard	I1_46	45	The Amazon forest covers an area of 1 billion acres	0.0	No	RIGHT	1920.3333999998904	RIGHT	963.3066999999756	LEFT	1358.6229000002277	RIGHT	2687.0327000001453	30.5	0.6	Probable_Lie	RIGHT	RIGHT	1	773.3690999998544	110	2021-02-04 15:09:50.117675
142	Computer	S210204	0.8333333333333334	2	1	2	1	0.1	1150.0000023	1216.6666691	1933.3333372	2350.0000047	Minor	Wrong_doings	35	You have been physically hurt to protect others	C1_46	1.0	Easy	I2_25	2	It is night time now	0.0	No	LEFT	264.736399999947	LEFT	643.9442999999301	RIGHT	2501.543899999888	LEFT	980.0269000002118	30.5	0.1	Probable_Lie	LEFT	LEFT	6	650.4641524165511	111	2021-02-04 15:10:14.375236
10	Self	S210204	0.5	2	1	1	2	0.3	1066.6666688	1066.6666688	1650.0000033	2350.0000047	Minor	Good_deeds	23	You have switched off appliances when not in use	C2_13	0.1	Easy	I1_11	53	A square has 3 corners	1.0	Yes	LEFT	496.4517999997042	RIGHT	687.2062000002188	RIGHT	1148.9616999997452	LEFT	966.5334000001168	30.2	0.3	Probable_Lie	LEFT	RIGHT	2	1127.4367999999413	112	2021-02-04 15:10:37.510753
12	Self	S210204	0.5	2	1	2	1	0.1	1150.0000023	1000.000002	2216.6666711000003	2066.6666708	Major	Wrong_doings	56	You have engaged in drink-driving	C2_56	0.0	Easy	I2_51	31	The Earth turns the closest to the sun in May	0.0	No	RIGHT	344.6040999997422	RIGHT	504.9111999996967	LEFT	911.6215000003648	RIGHT	2214.4499000000906	30.3	0.1	Probable_Truth	RIGHT	RIGHT	4	1469.2639999998391	113	2021-02-04 15:11:01.966920
92	Self	S210204	0.8333333333333334	2	1	2	1	0.4	1283.3333359	1500.000003	2350.0000047	1650.0000033	Minor	Good_deeds	59	You have used a fake name online	C1_37	0.1	Easy	I2_23	6	Beer is an alcoholic drink	1.0	Yes	RIGHT	327.92849999987084	RIGHT	322.33350000024075	LEFT	1687.9182999996374	RIGHT	1823.6323999999515	30.7	0.4	Probable_Lie	LEFT	LEFT	4	646.3384000003316	114	2021-02-04 15:11:26.135265
83	Self	S210204	0.8333333333333334	1	2	1	2	0.3	1283.3333359	1433.3333362	1933.3333372	2500.000005	Minor	Good_deeds	33	You have been convicted in court	C1_4	0.55	Easy	I2_27	5	The Eiffel Tower is in Paris	0.0	Yes	RIGHT	347.0833000001221	RIGHT	440.7343000002584	LEFT	1205.151399999977	RIGHT	1207.8875999995944	31.0	0.3	Probable_Lie	LEFT	LEFT	4	690.7771000001048	115	2021-02-04 15:11:49.749532
65	Self	S210204	0.6666666666666666	1	2	1	2	0.1	1000.000002	1433.3333362	2066.6666708	1783.3333369	Major	Good_deeds	43	You have gossiped about your best friend	C1_43	1.0	Hard	I2_5	13	Obama is the USA president now	0.0	Yes	RIGHT	277.75249999967855	RIGHT	265.0923999999577	LEFT	1692.2361000001729	LEFT	1664.4683999998051	31.1	0.1	Probable_Truth	LEFT	LEFT	1	774.616000000151	116	2021-02-04 15:12:13.278702
46	Self	S210204	0.8333333333333334	2	1	2	1	0.1	1066.6666688	1150.0000023	1933.3333372	2500.000005	Minor	Wrong_doings	35	You have been physically hurt to protect others	C1_46	1.0	Easy	I2_25	2	It is night time now	0.0	No	RIGHT	199.97860000012224	RIGHT	284.85449999971024	RIGHT	2664.0495999999985	LEFT	845.9253999999419	31.200000000000003	0.1	Probable_Truth	LEFT	LEFT	1	805.413900000076	117	2021-02-04 15:12:37.303212
132	Computer	S210204	0.8333333333333334	1	2	2	1	0.2	1500.000003	1216.6666691	2350.0000047	1650.0000033	Major	Good_deeds	49	You have helped with household chores	C1_42	0.0	Easy	I2_42	9	Beef comes from cows	0.0	Yes	RIGHT	1060.771299999942	RIGHT	143.3606000000509	RIGHT	1200.0929999999244	RIGHT	1181.334500000048	31.4	0.2	Probable_Truth	RIGHT	RIGHT	4	995.79924806638	118	2021-02-04 15:13:01.182954
15	Self	S210204	0.5	2	1	2	1	0.8	1500.000003	1350.0000027	2350.0000047	2216.6666711000003	Minor	Good_deeds	36	You have violated a traffic law	C1_36	0.8	Hard	I2_31	11	Mexico's National Day is September 16	0.833333333333333	Yes	RIGHT	208.60359999960565	RIGHT	291.4271999998164	LEFT	895.86860000054	LEFT	1704.4246000000385	32.2	0.8	Probable_Truth	RIGHT	LEFT	1	1009.8028999996131	119	2021-02-04 15:13:25.285887
130	Computer	S210204	0.8333333333333334	1	2	1	2	0.8	1150.0000023	1500.000003	1650.0000033	1500.000003	Minor	Wrong_doings	42	You have extorted money from anyone	C2_10	0.0	Hard	I1_47	16	Saturn's rings are between 30 and 300 feet thick	0.0	No	RIGHT	2145.6960000004983	RIGHT	111.90410000017437	LEFT	1774.816699999974	RIGHT	1199.0409	33.0	0.8	Probable_Lie	LEFT	LEFT	4	982.2615934049056	120	2021-02-04 15:13:49.879404
16	Self	S210204	0.6666666666666666	1	2	1	2	0.5	1283.3333359	1433.3333362	2216.6666711000003	2216.6666711000003	Minor	Wrong_doings	51	You have watched an M18 movie when you were underage	C1_57	0.0	Hard	I2_55	17	Malay is one of the races in Singapore	0.0	Yes	RIGHT	294.5843999996214	RIGHT	231.50649999934103	LEFT	1312.9413000006025	RIGHT	967.1397000001888	33.5	0.5	Probable_Truth	RIGHT	RIGHT	6	561.6193999994721	121	2021-02-04 15:14:12.975373
121	Computer	S210204	0.6666666666666666	2	1	1	2	0.7	1216.6666691	1066.6666688	1783.3333369	2216.6666711000003	Minor	Good_deeds	24	You have said sorry when you were rude	C1_53	0.8	Easy	I2_40	59	Last day of the year is 30th December	0.944444444444444	No	LEFT	742.5616000000446	LEFT	1299.4564000000537	RIGHT	1289.9728000002142	LEFT	1239.1317999999956	33.5	0.7	Probable_Lie	RIGHT	LEFT	3	523.0021141657228	122	2021-02-04 15:14:36.918645
60	Self	S210204	0.5	2	1	2	1	0.3	1283.3333359	1283.3333359	1783.3333369	2066.6666708	Minor	Good_deeds	48	You have sorted your trash into recycling bin	C2_1	0.05	Hard	I2_28	4	Singapore is a country	0.888888888888889	No	RIGHT	208.09749999989435	RIGHT	280.0037000006341	RIGHT	1231.2546999992264	RIGHT	881.8009999995411	33.8	0.3	Probable_Truth	RIGHT	RIGHT	4	795.4957000001741	123	2021-02-04 15:14:59.302361
41	Self	S210204	0.8333333333333334	2	1	1	2	0.8	1216.6666691	1216.6666691	1500.000003	2216.6666711000003	Major	Good_deeds	8	You have bought cocaine	C2_20	0.0	Easy	I1_32	58	There are 6 million animal species on Earth	0.0	Yes	RIGHT	121.9547999999122	RIGHT	238.46279999997927	LEFT	920.3835999996954	LEFT	1631.962399999793	34.599999999999994	0.8	Probable_Lie	LEFT	LEFT	4	1003.27709999965	124	2021-02-04 15:15:21.943192
71	Self	S210204	0.6666666666666666	1	2	2	1	0.2	1433.3333362	1216.6666691	2500.000005	1500.000003	Minor	Wrong_doings	2	You have let a homeless man into your house	C1_22	0.55	Easy	I1_14	24	The first Grammy awards was held in 1959	0.944444444444444	Yes	LEFT	1540.8619999998336	RIGHT	335.254000000532	LEFT	2903.4581000005346	RIGHT	2092.129699999532	34.39999999999999	0.2	Probable_Lie	LEFT	LEFT	5	601.1712999998053	125	2021-02-04 15:15:48.647011
14	Self	S210204	0.5	2	1	2	1	0.6	1350.0000027	1216.6666691	2066.6666708	1783.3333369	Major	Wrong_doings	53	You have told someone's secret to others	C1_23	1.0	Easy	I2_2	2	Teddy Roosevelt was the youngest US President	0.0	No	RIGHT	80.43550000002142	RIGHT	268.93590000054246	RIGHT	1680.9744000001956	LEFT	1578.5642999999254	34.99999999999999	0.6	Probable_Truth	LEFT	RIGHT	6	770.8933999992951	126	2021-02-04 15:16:12.022859
8	Self	S210204	0.5	2	1	1	2	0.4	1433.3333362	1500.000003	1783.3333369	1933.3333372	Major	Wrong_doings	13	You have participated in a scamming business	C2_27	0.0	Easy	I1_58	52	December is the last month of the year	0.0	No	RIGHT	615.5314999996335	RIGHT	315.71080000048823	LEFT	1482.571000000462	LEFT	952.4885999999242	35.39999999999999	0.4	Probable_Truth	RIGHT	RIGHT	5	1174.263100000644	127	2021-02-04 15:16:35.790300
17	Self	S210204	0.6666666666666666	1	2	1	2	0.2	1216.6666691	1150.0000023	1500.000003	2350.0000047	Minor	Wrong_doings	18	You have engaged in arson	C2_23	0.0	Hard	I1_36	43	Kangaroos live in Africa	0.0	No	RIGHT	260.9507000006488	RIGHT	280.61650000017835	LEFT	1060.8203000001597	LEFT	999.7514000006048	35.599999999999994	0.2	Probable_Truth	LEFT	LEFT	1	750.7347999999183	128	2021-02-04 15:16:57.935064
89	Self	S210204	0.8333333333333334	2	1	1	2	0.7	1350.0000027	1000.000002	2216.6666711000003	2500.000005	Major	Good_deeds	15	You have donated blood every 6 months for many years	C1_15	0.85	Easy	I1_31	1	Pyramid of Giza is 468 feet tall	0.0555555555555556	No	RIGHT	280.834700000014	RIGHT	333.1922999996096	RIGHT	2609.032600000319	LEFT	3389.1848000002938	36.3	0.7	Probable_Lie	LEFT	LEFT	6	918.8370000001668	129	2021-02-04 15:17:25.111327
114	Computer	S210204	0.6666666666666666	1	2	1	2	0.8	1350.0000027	1216.6666691	2350.0000047	1783.3333369	Major	Good_deeds	30	You have blackmailed others for money	C2_18	0.65	Hard	I2_18	12	Hot chocolate was created by the Mayan culture	0.944444444444444	No	RIGHT	329.88529999965976	RIGHT	2048.0252999996083	LEFT	1036.728299999595	LEFT	1359.2167000006157	37.1	0.8	Probable_Truth	RIGHT	LEFT	1	515.1056047160273	130	2021-02-04 15:17:49.669872
49	Self	S210204	0.5	1	2	1	2	0.3	1216.6666691	1150.0000023	1650.0000033	1500.000003	Minor	Wrong_doings	6	You have sheltered others from disasters	C2_6	0.15	Easy	I2_49	19	The hardest bone in human body is the jawbone	0.888888888888889	No	LEFT	1488.9201000005414	RIGHT	269.8310000005222	RIGHT	1030.9403999999631	LEFT	3424.249900000177	36.8	0.3	Probable_Lie	LEFT	RIGHT	1	977.1571000001132	131	2021-02-04 15:18:14.958574
27	Self	S210204	0.6666666666666666	2	1	1	2	0.7	1500.000003	1000.000002	2500.000005	1783.3333369	Major	Wrong_doings	48	You have held the door open for a stranger	C1_58	0.05	Easy	I1_8	40	Septicemia is a lung infection condition	0.0	Yes	RIGHT	256.2772999999652	RIGHT	227.9318999999305	RIGHT	995.835500000794	LEFT	1495.3997000002346	37.5	0.7	Probable_Truth	LEFT	LEFT	2	1073.3178000000407	132	2021-02-04 15:18:38.367380
57	Self	S210204	0.5	2	1	1	2	0.4	1066.6666688	1500.000003	1933.3333372	1783.3333369	Minor	Good_deeds	1	You have used heroin	C2_50	0.0	Easy	I1_35	45	Dutch is the 6th Europe's most widely spoken language	0.944444444444444	No	RIGHT	631.4162000007855	RIGHT	452.9374999992797	LEFT	1417.6516000006814	RIGHT	2600.4431999999724	37.9	0.4	Probable_Truth	RIGHT	RIGHT	5	662.1962999997777	133	2021-02-04 15:19:02.989522
56	Self	S210204	0.5	2	1	1	2	0.2	1150.0000023	1066.6666688	1650.0000033	1933.3333372	Major	Wrong_doings	50	You have bribed a police officer	C1_40	0.0	Easy	I2_21	6	Singapore is in Africa	0.0	No	RIGHT	416.4723000003505	RIGHT	335.07430000008753	LEFT	1316.9207000000824	LEFT	832.0748999994976	38.1	0.2	Probable_Truth	RIGHT	RIGHT	5	956.7303000003448	134	2021-02-04 15:19:25.221690
120	Computer	S210204	0.6666666666666666	2	1	1	2	0.1	1500.000003	1433.3333362	1933.3333372	2350.0000047	Major	Good_deeds	58	You have volunteered for a disaster-related humanitarian mission	C1_24	0.0	Hard	I1_21	13	Bears have the biggest eyes among mammals	0.833333333333333	No	RIGHT	1561.3367999994807	RIGHT	299.89039999964007	RIGHT	1519.4404000003487	LEFT	1432.756100000006	38.2	0.1	Probable_Truth	LEFT	LEFT	1	580.5651268847695	135	2021-02-04 15:19:50.405493
75	Self	S210204	0.6666666666666666	2	1	1	2	0.3	1216.6666691	1066.6666688	2216.6666711000003	2066.6666708	Major	Wrong_doings	45	You have sign up to sponsor a needy child	C1_16	0.0	Easy	I1_27	56	Arabi is the oldest surviving breed of horse	0.777777777777778	Yes	RIGHT	288.3061000002272	RIGHT	247.47260000003732	RIGHT	1336.2457000002903	LEFT	1999.901299999692	38.5	0.3	Probable_Lie	LEFT	LEFT	6	851.8030000004728	136	2021-02-04 15:20:14.270449
82	Self	S210204	0.8333333333333334	1	2	1	2	0.5	1500.000003	1150.0000023	1783.3333369	1650.0000033	Major	Good_deeds	39	You have volunteered every week for many years	C1_39	0.1	Easy	I1_39	30	Summer is hotter than winter	0.0555555555555556	Yes	RIGHT	275.0106000003143	RIGHT	191.5245000000141	LEFT	1976.786999999604	RIGHT	2031.9368999998917	39.0	0.5	Probable_Lie	LEFT	LEFT	6	931.2933999999586	137	2021-02-04 15:20:38.333788
19	Self	S210204	0.6666666666666666	1	2	1	2	0.1	1433.3333362	1216.6666691	2500.000005	2500.000005	Minor	Good_deeds	35	You have held the elevator doors for others	C2_35	0.95	Easy	I1_50	23	R. Amundsen discovered the South Pole	0.666666666666667	Yes	RIGHT	893.4082999994644	RIGHT	296.9881999997597	RIGHT	1643.6160000002928	LEFT	1640.0949999997465	39.1	0.1	Probable_Lie	RIGHT	RIGHT	2	605.8828999994148	138	2021-02-04 15:21:03.638168
59	Self	S210204	0.5	2	1	1	2	0.6	1433.3333362	1433.3333362	2500.000005	2216.6666711000003	Major	Wrong_doings	1	You have lost everything just to help others	C2_30	0.0	Easy	I1_4	28	Afghan Hound is the first cloned cat	0.0	Yes	RIGHT	310.93999999939115	RIGHT	315.1462999994692	LEFT	2158.2244000001083	LEFT	1800.1203999992867	39.7	0.6	Probable_Truth	RIGHT	RIGHT	4	1092.1343999998498	139	2021-02-04 15:21:29.485893
67	Self	S210204	0.6666666666666666	1	2	1	2	0.6	1150.0000023	1283.3333359	1933.3333372	1650.0000033	Minor	Good_deeds	38	You have been arrested	C2_2	0.0	Hard	I1_13	14	February has 30 days	0.611111111111111	No	RIGHT	524.1533999997046	RIGHT	254.9168999994436	LEFT	1048.0680999999097	LEFT	1064.0003999997134	40.3	0.6	Probable_Truth	RIGHT	RIGHT	5	490.5312999999296	140	2021-02-04 15:21:51.462415
38	Self	S210204	0.8333333333333334	1	2	2	1	0.5	1000.000002	1150.0000023	1783.3333369	1650.0000033	Major	Good_deeds	16	You have shown your appreciation to your teachers	C1_29	0.2	Easy	I1_9	8	Most plants emit oxygen in the day	0.777777777777778	Yes	RIGHT	298.3793000003061	RIGHT	302.7474999998958	RIGHT	1190.7182999993893	LEFT	1824.4574000000284	40.8	0.5	Probable_Truth	RIGHT	RIGHT	3	585.3003000001991	141	2021-02-04 15:22:13.821726
21	Self	S210204	0.6666666666666666	1	2	2	1	0.7	1000.000002	1350.0000027	1933.3333372	1933.3333372	Major	Wrong_doings	57	You have downloaded pirated movies	C1_30	0.25	Easy	I1_12	18	Nomophobia is the fear of being without a phone or computer	1.0	Yes	RIGHT	300.6307999994533	RIGHT	184.5876999996108	LEFT	1776.4171999997416	LEFT	2076.937300000281	41.50000000000001	0.7	Probable_Lie	LEFT	LEFT	3	823.210100000324	142	2021-02-04 15:22:37.775431
101	Computer	S210204	0.5	1	2	2	1	0.4	1433.3333362	1350.0000027	2500.000005	1500.000003	Major	Good_deeds	47	You have bribed someone to improve a grade	C2_25	0.05	Hard	I1_38	50	It takes 500 days to travel from Earth to Mars	0.0	No	RIGHT	374.13420000029873	RIGHT	1176.5876999998	LEFT	1952.4037999999564	LEFT	2269.458300000224	41.900000000000006	0.4	Probable_Truth	LEFT	LEFT	1	727.5939289108895	143	2021-02-04 15:23:03.638369
