"Participant"	"Task"	"Stimulus_Side"	"Response"	"RT"	"ITI"	"Previous_Response"	"Previous_RT"	"Stop_Signal"	"Stop_Signal_RT"	"Conflict"	"Cue_Response"	"Cue_Response_RT"	"Trial_Onset"	"Trial_End"	"Trial_Order"	"Duration"
"S200302"	"Conflict_Resolution"	"RIGHT"	"RIGHT"	984.111299999995	1100.0000022	n/a	n/a	n/a	n/a	"True"	n/a	n/a	"2020-03-02 13:12:12.766509"	"2020-03-02 13:12:13.957590"	1	6.64973325
"S200302"	"Conflict_Resolution"	"LEFT"	"LEFT"	474.520999999982	866.6666684	n/a	n/a	n/a	n/a	"False"	n/a	n/a	"2020-03-02 13:12:14.843854"	"2020-03-02 13:12:15.526234"	2	6.64973325
"S200302"	"Conflict_Resolution"	"LEFT"	"LEFT"	472.280800000021	916.6666685	n/a	n/a	n/a	n/a	"False"	n/a	n/a	"2020-03-02 13:12:16.462322"	"2020-03-02 13:12:17.141586"	3	6.64973325
"S200302"	"Conflict_Resolution"	"RIGHT"	"RIGHT"	445.358100000021	983.3333353	n/a	n/a	n/a	n/a	"False"	n/a	n/a	"2020-03-02 13:12:18.144562"	"2020-03-02 13:12:18.797383"	4	6.64973325
"S200302"	"Conflict_Resolution"	"LEFT"	"LEFT"	528.946299999916	1366.6666694	n/a	n/a	n/a	n/a	"True"	n/a	n/a	"2020-03-02 13:12:20.181712"	"2020-03-02 13:12:20.918088"	5	6.64973325
"S200302"	"Conflict_Resolution"	"RIGHT"	"RIGHT"	564.926600000035	1000.000002	n/a	n/a	n/a	n/a	"False"	n/a	n/a	"2020-03-02 13:12:21.936925"	"2020-03-02 13:12:22.709392"	6	6.64973325
"S200302"	"Conflict_Resolution"	"LEFT"	"LEFT"	439.616000000001	566.6666678	n/a	n/a	n/a	n/a	"False"	n/a	n/a	"2020-03-02 13:12:23.294091"	"2020-03-02 13:12:23.943062"	7	6.64973325
"S200302"	"Conflict_Resolution"	"LEFT"	"LEFT"	420.669900000007	1016.6666687	n/a	n/a	n/a	n/a	"False"	n/a	n/a	"2020-03-02 13:12:24.977856"	"2020-03-02 13:12:25.607165"	8	6.64973325
"S200302"	"Conflict_Resolution"	"RIGHT"	"RIGHT"	501.953800000024	983.3333353	n/a	n/a	n/a	n/a	"True"	n/a	n/a	"2020-03-02 13:12:26.608528"	"2020-03-02 13:12:27.317653"	9	6.64973325
"S200302"	"Conflict_Resolution"	"LEFT"	"LEFT"	746.325100000035	666.666668	n/a	n/a	n/a	n/a	"True"	n/a	n/a	"2020-03-02 13:12:28.004355"	"2020-03-02 13:12:28.959304"	10	6.64973325
"S200302"	"Conflict_Resolution"	"RIGHT"	"RIGHT"	451.557500000035	800.0000016	n/a	n/a	n/a	n/a	"False"	n/a	n/a	"2020-03-02 13:12:29.779153"	"2020-03-02 13:12:30.437440"	11	6.64973325
"S200302"	"Conflict_Resolution"	"RIGHT"	"RIGHT"	673.047900000029	950.0000019	n/a	n/a	n/a	n/a	"True"	n/a	n/a	"2020-03-02 13:12:31.405329"	"2020-03-02 13:12:32.286327"	12	6.64973325
"S200302"	"Conflict_Resolution"	"RIGHT"	"RIGHT"	418.043900000043	1100.0000022	n/a	n/a	n/a	n/a	"False"	n/a	n/a	"2020-03-02 13:12:33.403915"	"2020-03-02 13:12:34.031014"	13	6.64973325
"S200302"	"Conflict_Resolution"	"LEFT"	"LEFT"	412.442199999987	583.3333345	n/a	n/a	n/a	n/a	"False"	n/a	n/a	"2020-03-02 13:12:34.633947"	"2020-03-02 13:12:35.255164"	14	6.64973325
"S200302"	"Conflict_Resolution"	"RIGHT"	"RIGHT"	500.34299999993	1183.3333357	n/a	n/a	n/a	n/a	"True"	n/a	n/a	"2020-03-02 13:12:36.457758"	"2020-03-02 13:12:37.165727"	15	6.64973325
"S200302"	"Conflict_Resolution"	"LEFT"	"LEFT"	552.635699999996	916.6666685	n/a	n/a	n/a	n/a	"True"	n/a	n/a	"2020-03-02 13:12:38.101290"	"2020-03-02 13:12:38.862138"	16	6.64973325
"S200302"	"Conflict_Resolution"	"RIGHT"	"RIGHT"	582.129000000009	600.0000012	n/a	n/a	n/a	n/a	"True"	n/a	n/a	"2020-03-02 13:12:39.480428"	"2020-03-02 13:12:40.269382"	17	6.64973325
"S200302"	"Conflict_Resolution"	"LEFT"	"LEFT"	464.952200000084	900.0000018	n/a	n/a	n/a	n/a	"False"	n/a	n/a	"2020-03-02 13:12:41.189597"	"2020-03-02 13:12:41.861416"	18	6.64973325
"S200302"	"Conflict_Resolution"	"LEFT"	"LEFT"	647.398400000043	950.0000019	n/a	n/a	n/a	n/a	"True"	n/a	n/a	"2020-03-02 13:12:42.831150"	"2020-03-02 13:12:43.686173"	19	6.64973325
"S200302"	"Conflict_Resolution"	"LEFT"	"LEFT"	442.206399999918	1066.6666688	n/a	n/a	n/a	n/a	"False"	n/a	n/a	"2020-03-02 13:12:44.771751"	"2020-03-02 13:12:45.423009"	20	6.64973325
"S200302"	"Conflict_Resolution"	"LEFT"	"LEFT"	663.911299999995	900.0000018	n/a	n/a	n/a	n/a	"True"	n/a	n/a	"2020-03-02 13:12:46.342592"	"2020-03-02 13:12:47.214748"	21	6.64973325
"S200302"	"Conflict_Resolution"	"RIGHT"	"RIGHT"	443.517100000008	1216.6666691	n/a	n/a	n/a	n/a	"False"	n/a	n/a	"2020-03-02 13:12:48.450668"	"2020-03-02 13:12:49.101391"	22	6.64973325
"S200302"	"Conflict_Resolution"	"LEFT"	"LEFT"	539.844399999993	1266.6666692	n/a	n/a	n/a	n/a	"True"	n/a	n/a	"2020-03-02 13:12:50.386161"	"2020-03-02 13:12:51.134802"	23	6.64973325
"S200302"	"Conflict_Resolution"	"LEFT"	"LEFT"	470.295299999975	733.3333348	n/a	n/a	n/a	n/a	"True"	n/a	n/a	"2020-03-02 13:12:51.888336"	"2020-03-02 13:12:52.566426"	24	6.64973325
"S200302"	"Conflict_Resolution"	"LEFT"	"LEFT"	523.793800000021	1416.6666695	n/a	n/a	n/a	n/a	"True"	n/a	n/a	"2020-03-02 13:12:54.002728"	"2020-03-02 13:12:54.733862"	25	6.64973325
"S200302"	"Conflict_Resolution"	"RIGHT"	"RIGHT"	534.251499999982	583.3333345	n/a	n/a	n/a	n/a	"True"	n/a	n/a	"2020-03-02 13:12:55.336253"	"2020-03-02 13:12:56.077564"	26	6.64973325
"S200302"	"Conflict_Resolution"	"LEFT"	"LEFT"	574.978299999998	1000.000002	n/a	n/a	n/a	n/a	"True"	n/a	n/a	"2020-03-02 13:12:57.095421"	"2020-03-02 13:12:57.877327"	27	6.64973325
"S200302"	"Conflict_Resolution"	"RIGHT"	"RIGHT"	582.513199999994	1383.3333361	n/a	n/a	n/a	n/a	"False"	n/a	n/a	"2020-03-02 13:12:59.280040"	"2020-03-02 13:13:00.071010"	28	6.64973325
"S200302"	"Conflict_Resolution"	"RIGHT"	"RIGHT"	505.066299999953	650.0000013	n/a	n/a	n/a	n/a	"False"	n/a	n/a	"2020-03-02 13:13:00.741341"	"2020-03-02 13:13:01.453474"	29	6.64973325
"S200302"	"Conflict_Resolution"	"LEFT"	"LEFT"	470.604999999978	1400.0000028	n/a	n/a	n/a	n/a	"True"	n/a	n/a	"2020-03-02 13:13:02.871207"	"2020-03-02 13:13:03.549440"	30	6.64973325
"S200302"	"Conflict_Resolution"	"LEFT"	"LEFT"	515.465199999994	1050.0000021	n/a	n/a	n/a	n/a	"False"	n/a	n/a	"2020-03-02 13:13:04.618952"	"2020-03-02 13:13:05.341557"	31	6.64973325
"S200302"	"Conflict_Resolution"	"LEFT"	"LEFT"	609.235499999954	1150.0000023	n/a	n/a	n/a	n/a	"True"	n/a	n/a	"2020-03-02 13:13:06.510439"	"2020-03-02 13:13:07.327799"	32	6.64973325
"S200302"	"Conflict_Resolution"	"RIGHT"	"RIGHT"	529.869800000029	1000.000002	n/a	n/a	n/a	n/a	"True"	n/a	n/a	"2020-03-02 13:13:08.348128"	"2020-03-02 13:13:09.087194"	33	6.64973325
"S200302"	"Conflict_Resolution"	"RIGHT"	"RIGHT"	703.873499999986	500.000001	n/a	n/a	n/a	n/a	"False"	n/a	n/a	"2020-03-02 13:13:09.606789"	"2020-03-02 13:13:10.518905"	34	6.64973325
"S200302"	"Conflict_Resolution"	"RIGHT"	"RIGHT"	496.101499999895	900.0000018	n/a	n/a	n/a	n/a	"False"	n/a	n/a	"2020-03-02 13:13:11.437916"	"2020-03-02 13:13:12.142059"	35	6.64973325
"S200302"	"Conflict_Resolution"	"RIGHT"	"RIGHT"	598.059899999953	1150.0000023	n/a	n/a	n/a	n/a	"False"	n/a	n/a	"2020-03-02 13:13:13.312341"	"2020-03-02 13:13:14.118218"	36	6.64973325
"S200302"	"Conflict_Resolution"	"RIGHT"	"RIGHT"	726.950799999941	550.0000011	n/a	n/a	n/a	n/a	"True"	n/a	n/a	"2020-03-02 13:13:14.687713"	"2020-03-02 13:13:15.623321"	37	6.64973325
"S200302"	"Conflict_Resolution"	"LEFT"	"LEFT"	460.999100000095	966.6666686	n/a	n/a	n/a	n/a	"False"	n/a	n/a	"2020-03-02 13:13:16.609466"	"2020-03-02 13:13:17.278682"	38	6.64973325
"S200302"	"Conflict_Resolution"	"LEFT"	"LEFT"	407.82420000005	1316.6666693	n/a	n/a	n/a	n/a	"False"	n/a	n/a	"2020-03-02 13:13:18.614724"	"2020-03-02 13:13:19.230168"	39	6.64973325
"S200302"	"Conflict_Resolution"	"RIGHT"	"RIGHT"	437.82090000002	1383.3333361	n/a	n/a	n/a	n/a	"True"	n/a	n/a	"2020-03-02 13:13:20.632527"	"2020-03-02 13:13:21.277962"	40	6.64973325
"S200302"	"Conflict_Resolution"	"LEFT"	"LEFT"	473.241099999996	1300.0000026	n/a	n/a	n/a	n/a	"True"	n/a	n/a	"2020-03-02 13:13:22.596587"	"2020-03-02 13:13:23.278793"	41	6.64973325
"S200302"	"Conflict_Resolution"	"RIGHT"	"RIGHT"	519.757899999945	500.000001	n/a	n/a	n/a	n/a	"True"	n/a	n/a	"2020-03-02 13:13:23.798558"	"2020-03-02 13:13:24.525728"	42	6.64973325
"S200302"	"Conflict_Resolution"	"LEFT"	"LEFT"	493.273000000045	1166.666669	n/a	n/a	n/a	n/a	"True"	n/a	n/a	"2020-03-02 13:13:25.713202"	"2020-03-02 13:13:26.415012"	43	6.64973325
"S200302"	"Conflict_Resolution"	"RIGHT"	"RIGHT"	568.046200000026	1133.3333356	n/a	n/a	n/a	n/a	"True"	n/a	n/a	"2020-03-02 13:13:27.565861"	"2020-03-02 13:13:28.342349"	44	6.64973325
"S200302"	"Conflict_Resolution"	"LEFT"	"LEFT"	603.633599999966	1216.6666691	n/a	n/a	n/a	n/a	"True"	n/a	n/a	"2020-03-02 13:13:29.578388"	"2020-03-02 13:13:30.390820"	45	6.64973325
"S200302"	"Conflict_Resolution"	"LEFT"	"LEFT"	581.59749999993	766.6666682	n/a	n/a	n/a	n/a	"True"	n/a	n/a	"2020-03-02 13:13:31.176911"	"2020-03-02 13:13:31.966086"	46	6.64973325
"S200302"	"Conflict_Resolution"	"RIGHT"	"RIGHT"	421.749000000091	583.3333345	n/a	n/a	n/a	n/a	"False"	n/a	n/a	"2020-03-02 13:13:32.568476"	"2020-03-02 13:13:33.197895"	47	6.64973325
"S200302"	"Conflict_Resolution"	"RIGHT"	"RIGHT"	567.769700000099	533.3333344	n/a	n/a	n/a	n/a	"True"	n/a	n/a	"2020-03-02 13:13:33.750584"	"2020-03-02 13:13:34.526122"	48	6.64973325
"S200302"	"Conflict_Resolution"	"LEFT"	"LEFT"	476.960099999928	783.3333349	n/a	n/a	n/a	n/a	"False"	n/a	n/a	"2020-03-02 13:13:35.328916"	"2020-03-02 13:13:36.013933"	49	6.64973325
"S200302"	"Conflict_Resolution"	"RIGHT"	"RIGHT"	548.021399999925	833.333335	n/a	n/a	n/a	n/a	"True"	n/a	n/a	"2020-03-02 13:13:36.865865"	"2020-03-02 13:13:37.621497"	50	6.64973325
"S200302"	"Conflict_Resolution"	"RIGHT"	"RIGHT"	581.451799999968	800.0000016	n/a	n/a	n/a	n/a	"True"	n/a	n/a	"2020-03-02 13:13:38.440863"	"2020-03-02 13:13:39.229434"	51	6.64973325
"S200302"	"Conflict_Resolution"	"LEFT"	"LEFT"	522.306100000151	666.666668	n/a	n/a	n/a	n/a	"False"	n/a	n/a	"2020-03-02 13:13:39.915833"	"2020-03-02 13:13:40.645564"	52	6.64973325
"S200302"	"Conflict_Resolution"	"RIGHT"	"RIGHT"	552.520200000117	1316.6666693	n/a	n/a	n/a	n/a	"False"	n/a	n/a	"2020-03-02 13:13:41.982218"	"2020-03-02 13:13:42.742258"	53	6.64973325
"S200302"	"Conflict_Resolution"	"RIGHT"	"RIGHT"	617.981699999973	1216.6666691	n/a	n/a	n/a	n/a	"True"	n/a	n/a	"2020-03-02 13:13:43.980212"	"2020-03-02 13:13:44.806876"	54	6.64973325
"S200302"	"Conflict_Resolution"	"RIGHT"	"RIGHT"	480.177800000092	1466.6666696	n/a	n/a	n/a	n/a	"True"	n/a	n/a	"2020-03-02 13:13:46.293739"	"2020-03-02 13:13:46.983024"	55	6.64973325
"S200302"	"Conflict_Resolution"	"RIGHT"	"RIGHT"	477.77700000006	1150.0000023	n/a	n/a	n/a	n/a	"True"	n/a	n/a	"2020-03-02 13:13:48.152308"	"2020-03-02 13:13:48.839145"	56	6.64973325
"S200302"	"Conflict_Resolution"	"RIGHT"	"RIGHT"	464.143400000012	1283.3333359	n/a	n/a	n/a	n/a	"True"	n/a	n/a	"2020-03-02 13:13:50.141906"	"2020-03-02 13:13:50.814112"	57	6.64973325
"S200302"	"Conflict_Resolution"	"RIGHT"	"RIGHT"	459.089800000129	633.3333346	n/a	n/a	n/a	n/a	"False"	n/a	n/a	"2020-03-02 13:13:51.467482"	"2020-03-02 13:13:52.134287"	58	6.64973325
"S200302"	"Conflict_Resolution"	"RIGHT"	"RIGHT"	504.182299999911	1483.3333363	n/a	n/a	n/a	n/a	"True"	n/a	n/a	"2020-03-02 13:13:53.638573"	"2020-03-02 13:13:54.349552"	59	6.64973325
"S200302"	"Conflict_Resolution"	"LEFT"	"LEFT"	444.582099999934	1216.6666691	n/a	n/a	n/a	n/a	"False"	n/a	n/a	"2020-03-02 13:13:55.585513"	"2020-03-02 13:13:56.238589"	60	6.64973325
"S200302"	"Conflict_Resolution"	"RIGHT"	"RIGHT"	474.880000000212	633.3333346	n/a	n/a	n/a	n/a	"True"	n/a	n/a	"2020-03-02 13:13:56.891443"	"2020-03-02 13:13:57.574876"	61	6.64973325
"S200302"	"Conflict_Resolution"	"RIGHT"	"RIGHT"	442.489199999955	1433.3333362	n/a	n/a	n/a	n/a	"False"	n/a	n/a	"2020-03-02 13:13:59.027636"	"2020-03-02 13:13:59.678045"	62	6.64973325
"S200302"	"Conflict_Resolution"	"RIGHT"	"RIGHT"	466.944300000023	1033.3333354	n/a	n/a	n/a	n/a	"False"	n/a	n/a	"2020-03-02 13:14:00.731649"	"2020-03-02 13:14:01.405400"	63	6.64973325
"S200302"	"Conflict_Resolution"	"RIGHT"	"RIGHT"	580.968000000212	1033.3333354	n/a	n/a	n/a	n/a	"True"	n/a	n/a	"2020-03-02 13:14:02.457193"	"2020-03-02 13:14:03.245583"	64	6.64973325
"S200302"	"Conflict_Resolution"	"LEFT"	"LEFT"	470.71219999998	1200.0000024	n/a	n/a	n/a	n/a	"False"	n/a	n/a	"2020-03-02 13:14:04.463175"	"2020-03-02 13:14:05.142276"	65	6.64973325
"S200302"	"Conflict_Resolution"	"LEFT"	"LEFT"	496.852600000011	716.6666681	n/a	n/a	n/a	n/a	"False"	n/a	n/a	"2020-03-02 13:14:05.877198"	"2020-03-02 13:14:06.583080"	66	6.64973325
"S200302"	"Conflict_Resolution"	"RIGHT"	"RIGHT"	436.854900000071	1183.3333357	n/a	n/a	n/a	n/a	"False"	n/a	n/a	"2020-03-02 13:14:07.785555"	"2020-03-02 13:14:08.430211"	67	6.64973325
"S200302"	"Conflict_Resolution"	"LEFT"	"LEFT"	586.71500000014	1450.0000029	n/a	n/a	n/a	n/a	"True"	n/a	n/a	"2020-03-02 13:14:09.899226"	"2020-03-02 13:14:10.695114"	68	6.64973325
"S200302"	"Conflict_Resolution"	"RIGHT"	"RIGHT"	422.464499999933	1333.333336	n/a	n/a	n/a	n/a	"False"	n/a	n/a	"2020-03-02 13:14:12.047508"	"2020-03-02 13:14:12.678311"	69	6.64973325
"S200302"	"Conflict_Resolution"	"RIGHT"	"RIGHT"	616.257599999926	1433.3333362	n/a	n/a	n/a	n/a	"True"	n/a	n/a	"2020-03-02 13:14:14.134075"	"2020-03-02 13:14:14.957661"	70	6.64973325
"S200302"	"Conflict_Resolution"	"RIGHT"	"RIGHT"	794.473299999936	1266.6666692	n/a	n/a	n/a	n/a	"True"	n/a	n/a	"2020-03-02 13:14:16.243758"	"2020-03-02 13:14:17.246432"	71	6.64973325
"S200302"	"Conflict_Resolution"	"LEFT"	"LEFT"	469.957000000022	1400.0000028	n/a	n/a	n/a	n/a	"False"	n/a	n/a	"2020-03-02 13:14:18.664907"	"2020-03-02 13:14:19.342802"	72	6.64973325
"S200302"	"Conflict_Resolution"	"LEFT"	"LEFT"	636.899599999879	566.6666678	n/a	n/a	n/a	n/a	"True"	n/a	n/a	"2020-03-02 13:14:19.928960"	"2020-03-02 13:14:20.774457"	73	6.64973325
"S200302"	"Conflict_Resolution"	"LEFT"	"LEFT"	445.865799999865	1166.666669	n/a	n/a	n/a	n/a	"False"	n/a	n/a	"2020-03-02 13:14:21.960018"	"2020-03-02 13:14:22.613552"	74	6.64973325
"S200302"	"Conflict_Resolution"	"RIGHT"	"RIGHT"	612.20719999983	1233.3333358	n/a	n/a	n/a	n/a	"True"	n/a	n/a	"2020-03-02 13:14:23.866230"	"2020-03-02 13:14:24.686165"	75	6.64973325
"S200302"	"Conflict_Resolution"	"LEFT"	"LEFT"	443.061799999896	816.6666683	n/a	n/a	n/a	n/a	"True"	n/a	n/a	"2020-03-02 13:14:25.522596"	"2020-03-02 13:14:26.174892"	76	6.64973325
"S200302"	"Conflict_Resolution"	"LEFT"	"LEFT"	574.875799999973	1350.0000027	n/a	n/a	n/a	n/a	"True"	n/a	n/a	"2020-03-02 13:14:27.543991"	"2020-03-02 13:14:28.326943"	77	6.64973325
"S200302"	"Conflict_Resolution"	"LEFT"	"LEFT"	498.612200000025	1250.0000025	n/a	n/a	n/a	n/a	"True"	n/a	n/a	"2020-03-02 13:14:29.596029"	"2020-03-02 13:14:30.302054"	78	6.64973325
"S200302"	"Conflict_Resolution"	"LEFT"	"LEFT"	538.72309999997	683.3333347	n/a	n/a	n/a	n/a	"False"	n/a	n/a	"2020-03-02 13:14:31.003393"	"2020-03-02 13:14:31.751278"	79	6.64973325
"S200302"	"Conflict_Resolution"	"LEFT"	"LEFT"	444.176399999833	616.6666679	n/a	n/a	n/a	n/a	"False"	n/a	n/a	"2020-03-02 13:14:32.385563"	"2020-03-02 13:14:33.039187"	80	6.64973325
"S200302"	"Conflict_Resolution"	"LEFT"	"LEFT"	636.178700000073	1200.0000024	n/a	n/a	n/a	n/a	"True"	n/a	n/a	"2020-03-02 13:14:34.258276"	"2020-03-02 13:14:35.102656"	81	6.64973325
"S200302"	"Conflict_Resolution"	"RIGHT"	"RIGHT"	377.714799999922	1466.6666696	n/a	n/a	n/a	n/a	"False"	n/a	n/a	"2020-03-02 13:14:36.588421"	"2020-03-02 13:14:37.173748"	82	6.64973325
"S200302"	"Conflict_Resolution"	"LEFT"	"LEFT"	435.683200000085	1000.000002	n/a	n/a	n/a	n/a	"False"	n/a	n/a	"2020-03-02 13:14:38.194068"	"2020-03-02 13:14:38.838901"	83	6.64973325
"S200302"	"Conflict_Resolution"	"RIGHT"	"RIGHT"	468.169900000021	783.3333349	n/a	n/a	n/a	n/a	"False"	n/a	n/a	"2020-03-02 13:14:39.641768"	"2020-03-02 13:14:40.317747"	84	6.64973325
"S200302"	"Conflict_Resolution"	"LEFT"	"LEFT"	442.714199999955	1450.0000029	n/a	n/a	n/a	n/a	"False"	n/a	n/a	"2020-03-02 13:14:41.787331"	"2020-03-02 13:14:42.439231"	85	6.64973325
"S200302"	"Conflict_Resolution"	"LEFT"	"LEFT"	438.205799999878	766.6666682	n/a	n/a	n/a	n/a	"False"	n/a	n/a	"2020-03-02 13:14:43.224112"	"2020-03-02 13:14:43.869837"	86	6.64973325
"S200302"	"Conflict_Resolution"	"RIGHT"	"RIGHT"	482.526499999949	883.3333351	n/a	n/a	n/a	n/a	"True"	n/a	n/a	"2020-03-02 13:14:44.771323"	"2020-03-02 13:14:45.462525"	87	6.64973325
"S200302"	"Conflict_Resolution"	"LEFT"	"LEFT"	600.876499999913	1500.000003	n/a	n/a	n/a	n/a	"False"	n/a	n/a	"2020-03-02 13:14:46.981480"	"2020-03-02 13:14:47.789600"	88	6.64973325
"S200302"	"Conflict_Resolution"	"RIGHT"	"RIGHT"	527.624900000092	933.3333352	n/a	n/a	n/a	n/a	"False"	n/a	n/a	"2020-03-02 13:14:48.743087"	"2020-03-02 13:14:49.478570"	89	6.64973325
"S200302"	"Conflict_Resolution"	"LEFT"	"LEFT"	506.513300000051	633.3333346	n/a	n/a	n/a	n/a	"False"	n/a	n/a	"2020-03-02 13:14:50.132051"	"2020-03-02 13:14:50.847238"	90	6.64973325
"S200302"	"Conflict_Resolution"	"RIGHT"	"RIGHT"	594.984000000068	650.0000013	n/a	n/a	n/a	n/a	"True"	n/a	n/a	"2020-03-02 13:14:51.514938"	"2020-03-02 13:14:52.318787"	91	6.64973325
"S200302"	"Conflict_Resolution"	"LEFT"	"LEFT"	753.447699999924	866.6666684	n/a	n/a	n/a	n/a	"True"	n/a	n/a	"2020-03-02 13:14:53.204988"	"2020-03-02 13:14:54.166066"	92	6.64973325
"S200302"	"Conflict_Resolution"	"LEFT"	"LEFT"	596.907300000112	783.3333349	n/a	n/a	n/a	n/a	"True"	n/a	n/a	"2020-03-02 13:14:54.968731"	"2020-03-02 13:14:55.775597"	93	6.64973325
"S200302"	"Conflict_Resolution"	"RIGHT"	"RIGHT"	462.085000000116	533.3333344	n/a	n/a	n/a	n/a	"False"	n/a	n/a	"2020-03-02 13:14:56.327812"	"2020-03-02 13:14:56.997704"	94	6.64973325
"S200302"	"Conflict_Resolution"	"RIGHT"	"RIGHT"	444.105900000068	1233.3333358	n/a	n/a	n/a	n/a	"False"	n/a	n/a	"2020-03-02 13:14:58.249668"	"2020-03-02 13:14:58.901962"	95	6.64973325
"S200302"	"Conflict_Resolution"	"RIGHT"	"RIGHT"	375.468599999977	950.0000019	n/a	n/a	n/a	n/a	"False"	n/a	n/a	"2020-03-02 13:14:59.871154"	"2020-03-02 13:15:00.454328"	96	6.64973325
"S200302"	"Conflict_Resolution"	"LEFT"	"LEFT"	514.83189999999	633.3333346	n/a	n/a	n/a	n/a	"True"	n/a	n/a	"2020-03-02 13:15:01.107572"	"2020-03-02 13:15:01.829824"	97	6.64973325
"S200302"	"Conflict_Resolution"	"RIGHT"	"RIGHT"	431.320400000004	550.0000011	n/a	n/a	n/a	n/a	"False"	n/a	n/a	"2020-03-02 13:15:02.399270"	"2020-03-02 13:15:03.037552"	98	6.64973325
"S200302"	"Conflict_Resolution"	"RIGHT"	"RIGHT"	607.333500000095	933.3333352	n/a	n/a	n/a	n/a	"True"	n/a	n/a	"2020-03-02 13:15:03.991200"	"2020-03-02 13:15:04.805443"	99	6.64973325
"S200302"	"Conflict_Resolution"	"LEFT"	"LEFT"	411.030799999935	850.0000017	n/a	n/a	n/a	n/a	"False"	n/a	n/a	"2020-03-02 13:15:05.674718"	"2020-03-02 13:15:06.295186"	100	6.64973325
"S200302"	"Conflict_Resolution"	"RIGHT"	"RIGHT"	396.247499999845	750.0000015	n/a	n/a	n/a	n/a	"False"	n/a	n/a	"2020-03-02 13:15:07.066132"	"2020-03-02 13:15:07.671186"	101	6.64973325
"S200302"	"Conflict_Resolution"	"RIGHT"	"RIGHT"	458.419400000139	833.333335	n/a	n/a	n/a	n/a	"False"	n/a	n/a	"2020-03-02 13:15:08.523386"	"2020-03-02 13:15:09.189612"	102	6.64973325
"S200302"	"Conflict_Resolution"	"RIGHT"	"RIGHT"	585.369499999842	900.0000018	n/a	n/a	n/a	n/a	"True"	n/a	n/a	"2020-03-02 13:15:10.108710"	"2020-03-02 13:15:10.901524"	103	6.64973325
"S200302"	"Conflict_Resolution"	"RIGHT"	"RIGHT"	426.472600000125	1283.3333359	n/a	n/a	n/a	n/a	"False"	n/a	n/a	"2020-03-02 13:15:12.203632"	"2020-03-02 13:15:12.838240"	104	6.64973325
"S200302"	"Conflict_Resolution"	"LEFT"	"LEFT"	462.418800000023	950.0000019	n/a	n/a	n/a	n/a	"False"	n/a	n/a	"2020-03-02 13:15:13.807347"	"2020-03-02 13:15:14.478809"	105	6.64973325
"S200302"	"Conflict_Resolution"	"LEFT"	"LEFT"	647.987300000068	1500.000003	n/a	n/a	n/a	n/a	"True"	n/a	n/a	"2020-03-02 13:15:15.998659"	"2020-03-02 13:15:16.856493"	106	6.64973325
"S200302"	"Conflict_Resolution"	"RIGHT"	"RIGHT"	415.185199999996	1483.3333363	n/a	n/a	n/a	n/a	"False"	n/a	n/a	"2020-03-02 13:15:18.359225"	"2020-03-02 13:15:18.982045"	107	6.64973325
"S200302"	"Conflict_Resolution"	"RIGHT"	"RIGHT"	425.101999999924	683.3333347	n/a	n/a	n/a	n/a	"False"	n/a	n/a	"2020-03-02 13:15:19.685185"	"2020-03-02 13:15:20.317436"	108	6.64973325
"S200302"	"Conflict_Resolution"	"LEFT"	"LEFT"	447.832600000083	1366.6666694	n/a	n/a	n/a	n/a	"False"	n/a	n/a	"2020-03-02 13:15:21.702285"	"2020-03-02 13:15:22.358264"	109	6.64973325
"S200302"	"Conflict_Resolution"	"LEFT"	"LEFT"	414.983800000073	1150.0000023	n/a	n/a	n/a	n/a	"False"	n/a	n/a	"2020-03-02 13:15:23.527513"	"2020-03-02 13:15:24.150888"	110	6.64973325
"S200302"	"Conflict_Resolution"	"LEFT"	"LEFT"	666.393499999913	850.0000017	n/a	n/a	n/a	n/a	"True"	n/a	n/a	"2020-03-02 13:15:25.020097"	"2020-03-02 13:15:25.893877"	111	6.64973325
"S200302"	"Conflict_Resolution"	"RIGHT"	"RIGHT"	693.06830000005	1416.6666695	n/a	n/a	n/a	n/a	"True"	n/a	n/a	"2020-03-02 13:15:27.329349"	"2020-03-02 13:15:28.229863"	112	6.64973325
"S200302"	"Conflict_Resolution"	"RIGHT"	"RIGHT"	618.466799999851	850.0000017	n/a	n/a	n/a	n/a	"True"	n/a	n/a	"2020-03-02 13:15:29.100167"	"2020-03-02 13:15:29.927076"	113	6.64973325
"S200302"	"Conflict_Resolution"	"RIGHT"	"RIGHT"	505.542600000126	1083.3333355	n/a	n/a	n/a	n/a	"False"	n/a	n/a	"2020-03-02 13:15:31.028497"	"2020-03-02 13:15:31.742142"	114	6.64973325
"S200302"	"Conflict_Resolution"	"LEFT"	"LEFT"	598.776000000043	533.3333344	n/a	n/a	n/a	n/a	"True"	n/a	n/a	"2020-03-02 13:15:32.295743"	"2020-03-02 13:15:33.101670"	115	6.64973325
"S200302"	"Conflict_Resolution"	"LEFT"	"LEFT"	570.296700000199	1050.0000021	n/a	n/a	n/a	n/a	"True"	n/a	n/a	"2020-03-02 13:15:34.171575"	"2020-03-02 13:15:34.950058"	116	6.64973325
"S200302"	"Conflict_Resolution"	"RIGHT"	"RIGHT"	696.472699999958	700.0000014	n/a	n/a	n/a	n/a	"True"	n/a	n/a	"2020-03-02 13:15:35.669605"	"2020-03-02 13:15:36.573719"	117	6.64973325
"S200302"	"Conflict_Resolution"	"LEFT"	"LEFT"	680.507000000034	516.6666677	n/a	n/a	n/a	n/a	"True"	n/a	n/a	"2020-03-02 13:15:37.109289"	"2020-03-02 13:15:37.998275"	118	6.64973325
"S200302"	"Conflict_Resolution"	"RIGHT"	"RIGHT"	625.020699999823	1083.3333355	n/a	n/a	n/a	n/a	"True"	n/a	n/a	"2020-03-02 13:15:39.101473"	"2020-03-02 13:15:39.934698"	119	6.64973325
"S200302"	"Conflict_Resolution"	"LEFT"	"LEFT"	480.187999999998	1300.0000026	n/a	n/a	n/a	n/a	"False"	n/a	n/a	"2020-03-02 13:15:41.253864"	"2020-03-02 13:15:41.942204"	120	6.64973325
"S200302"	"Conflict_Resolution"	"LEFT"	"LEFT"	596.113000000059	583.3333345	n/a	n/a	n/a	n/a	"True"	n/a	n/a	"2020-03-02 13:15:42.546192"	"2020-03-02 13:15:43.349866"	121	6.64973325
"S200302"	"Conflict_Resolution"	"RIGHT"	"RIGHT"	544.04529999988	1316.6666693	n/a	n/a	n/a	n/a	"True"	n/a	n/a	"2020-03-02 13:15:44.685997"	"2020-03-02 13:15:45.439245"	122	6.64973325
"S200302"	"Conflict_Resolution"	"RIGHT"	"RIGHT"	444.979399999966	1133.3333356	n/a	n/a	n/a	n/a	"False"	n/a	n/a	"2020-03-02 13:15:46.593636"	"2020-03-02 13:15:47.247056"	123	6.64973325
"S200302"	"Conflict_Resolution"	"RIGHT"	"RIGHT"	475.201299999981	1416.6666695	n/a	n/a	n/a	n/a	"False"	n/a	n/a	"2020-03-02 13:15:48.682756"	"2020-03-02 13:15:49.365786"	124	6.64973325
"S200302"	"Conflict_Resolution"	"RIGHT"	"LEFT"	478.976099999954	750.0000015	n/a	n/a	n/a	n/a	"True"	n/a	n/a	"2020-03-02 13:15:50.135180"	"2020-03-02 13:15:50.822928"	125	6.64973325
"S200302"	"Conflict_Resolution"	"LEFT"	"LEFT"	598.889000000099	516.6666677	n/a	n/a	n/a	n/a	"False"	n/a	n/a	"2020-03-02 13:15:51.359606"	"2020-03-02 13:15:52.165940"	126	6.64973325
"S200302"	"Conflict_Resolution"	"LEFT"	"LEFT"	465.550399999984	1250.0000025	n/a	n/a	n/a	n/a	"False"	n/a	n/a	"2020-03-02 13:15:53.436722"	"2020-03-02 13:15:54.109567"	127	6.64973325
"S200302"	"Conflict_Resolution"	"LEFT"	"LEFT"	547.170899999855	1066.6666688	n/a	n/a	n/a	n/a	"True"	n/a	n/a	"2020-03-02 13:15:55.195199"	"2020-03-02 13:15:55.949995"	128	6.64973325
"S200302"	"Conflict_Resolution"	"LEFT"	"LEFT"	463.650500000085	1350.0000027	n/a	n/a	n/a	n/a	"False"	n/a	n/a	"2020-03-02 13:15:57.318402"	"2020-03-02 13:15:57.989339"	129	6.64973325
"S200302"	"Conflict_Resolution"	"RIGHT"	"RIGHT"	433.928700000024	883.3333351	n/a	n/a	n/a	n/a	"False"	n/a	n/a	"2020-03-02 13:15:58.893289"	"2020-03-02 13:15:59.534872"	130	6.64973325
"S200302"	"Conflict_Resolution"	"RIGHT"	"RIGHT"	697.156900000209	683.3333347	n/a	n/a	n/a	n/a	"True"	n/a	n/a	"2020-03-02 13:16:00.237159"	"2020-03-02 13:16:01.142914"	131	6.64973325
"S200302"	"Conflict_Resolution"	"LEFT"	"LEFT"	592.123499999843	1116.6666689	n/a	n/a	n/a	n/a	"False"	n/a	n/a	"2020-03-02 13:16:02.278381"	"2020-03-02 13:16:03.077502"	132	6.64973325
"S200302"	"Conflict_Resolution"	"LEFT"	"LEFT"	434.784199999967	1266.6666692	n/a	n/a	n/a	n/a	"False"	n/a	n/a	"2020-03-02 13:16:04.363522"	"2020-03-02 13:16:05.006083"	133	6.64973325
"S200302"	"Conflict_Resolution"	"LEFT"	"LEFT"	471.743899999865	533.3333344	n/a	n/a	n/a	n/a	"False"	n/a	n/a	"2020-03-02 13:16:05.557897"	"2020-03-02 13:16:06.240050"	134	6.64973325
"S200302"	"Conflict_Resolution"	"RIGHT"	"RIGHT"	439.288100000113	700.0000014	n/a	n/a	n/a	n/a	"False"	n/a	n/a	"2020-03-02 13:16:06.958958"	"2020-03-02 13:16:07.605343"	135	6.64973325
"S200302"	"Conflict_Resolution"	"RIGHT"	"RIGHT"	387.937599999987	1266.6666692	n/a	n/a	n/a	n/a	"False"	n/a	n/a	"2020-03-02 13:16:08.890295"	"2020-03-02 13:16:09.486696"	136	6.64973325
"S200302"	"Conflict_Resolution"	"LEFT"	"LEFT"	558.489699999882	966.6666686	n/a	n/a	n/a	n/a	"True"	n/a	n/a	"2020-03-02 13:16:10.471137"	"2020-03-02 13:16:11.237674"	137	6.64973325
"S200302"	"Conflict_Resolution"	"LEFT"	"LEFT"	700.96280000007	1016.6666687	n/a	n/a	n/a	n/a	"True"	n/a	n/a	"2020-03-02 13:16:12.273303"	"2020-03-02 13:16:13.181569"	138	6.64973325
"S200302"	"Conflict_Resolution"	"LEFT"	"LEFT"	514.561700000058	1100.0000022	n/a	n/a	n/a	n/a	"True"	n/a	n/a	"2020-03-02 13:16:14.299869"	"2020-03-02 13:16:15.021802"	139	6.64973325
"S200302"	"Conflict_Resolution"	"LEFT"	"LEFT"	513.78469999986	683.3333347	n/a	n/a	n/a	n/a	"True"	n/a	n/a	"2020-03-02 13:16:15.724694"	"2020-03-02 13:16:16.447050"	140	6.64973325
"S200302"	"Conflict_Resolution"	"RIGHT"	"RIGHT"	458.867699999928	850.0000017	n/a	n/a	n/a	n/a	"False"	n/a	n/a	"2020-03-02 13:16:17.315357"	"2020-03-02 13:16:17.981762"	141	6.64973325
"S200302"	"Conflict_Resolution"	"LEFT"	"LEFT"	608.594799999992	1116.6666689	n/a	n/a	n/a	n/a	"True"	n/a	n/a	"2020-03-02 13:16:19.117510"	"2020-03-02 13:16:19.934124"	142	6.64973325
"S200302"	"Conflict_Resolution"	"RIGHT"	"RIGHT"	450.719700000036	1050.0000021	n/a	n/a	n/a	n/a	"False"	n/a	n/a	"2020-03-02 13:16:21.002810"	"2020-03-02 13:16:21.662827"	143	6.64973325
"S200302"	"Conflict_Resolution"	"LEFT"	"LEFT"	502.956499999982	1316.6666693	n/a	n/a	n/a	n/a	"True"	n/a	n/a	"2020-03-02 13:16:22.998930"	"2020-03-02 13:16:23.709501"	144	6.64973325
"S200302"	"Conflict_Resolution"	"RIGHT"	"RIGHT"	598.575299999993	1366.6666694	n/a	n/a	n/a	n/a	"True"	n/a	n/a	"2020-03-02 13:16:25.095196"	"2020-03-02 13:16:25.901818"	145	6.64973325
"S200302"	"Conflict_Resolution"	"RIGHT"	"RIGHT"	468.201200000067	600.0000012	n/a	n/a	n/a	n/a	"False"	n/a	n/a	"2020-03-02 13:16:26.521839"	"2020-03-02 13:16:27.198836"	146	6.64973325
"S200302"	"Conflict_Resolution"	"LEFT"	"LEFT"	479.751000000078	1466.6666696	n/a	n/a	n/a	n/a	"False"	n/a	n/a	"2020-03-02 13:16:28.686282"	"2020-03-02 13:16:29.373437"	147	6.64973325
"S200302"	"Conflict_Resolution"	"RIGHT"	"RIGHT"	679.68279999991	733.3333348	n/a	n/a	n/a	n/a	"True"	n/a	n/a	"2020-03-02 13:16:30.126802"	"2020-03-02 13:16:31.014167"	148	6.64973325
"S200302"	"Conflict_Resolution"	"RIGHT"	"RIGHT"	525.60759999983	783.3333349	n/a	n/a	n/a	n/a	"True"	n/a	n/a	"2020-03-02 13:16:31.816220"	"2020-03-02 13:16:32.550938"	149	6.64973325
"S200302"	"Conflict_Resolution"	"RIGHT"	"RIGHT"	721.999699999969	1050.0000021	n/a	n/a	n/a	n/a	"True"	n/a	n/a	"2020-03-02 13:16:33.620290"	"2020-03-02 13:16:34.549623"	150	6.64973325
"S200302"	"Conflict_Resolution"	"RIGHT"	"RIGHT"	454.348100000061	1366.6666694	n/a	n/a	n/a	n/a	"False"	n/a	n/a	"2020-03-02 13:16:35.935835"	"2020-03-02 13:16:36.598821"	151	6.64973325
"S200302"	"Conflict_Resolution"	"LEFT"	"LEFT"	739.279500000066	616.6666679	n/a	n/a	n/a	n/a	"True"	n/a	n/a	"2020-03-02 13:16:37.235113"	"2020-03-02 13:16:38.182310"	152	6.64973325
"S200302"	"Conflict_Resolution"	"LEFT"	"LEFT"	403.760299999931	1416.6666695	n/a	n/a	n/a	n/a	"False"	n/a	n/a	"2020-03-02 13:16:39.617907"	"2020-03-02 13:16:40.230162"	153	6.64973325
"S200302"	"Conflict_Resolution"	"LEFT"	"LEFT"	400.778100000025	1100.0000022	n/a	n/a	n/a	n/a	"False"	n/a	n/a	"2020-03-02 13:16:41.349362"	"2020-03-02 13:16:41.958815"	154	6.64973325
"S200302"	"Conflict_Resolution"	"LEFT"	"LEFT"	403.632000000016	816.6666683	n/a	n/a	n/a	n/a	"False"	n/a	n/a	"2020-03-02 13:16:42.794783"	"2020-03-02 13:16:43.406983"	155	6.64973325
"S200302"	"Conflict_Resolution"	"RIGHT"	"RIGHT"	486.558900000091	1333.333336	n/a	n/a	n/a	n/a	"True"	n/a	n/a	"2020-03-02 13:16:44.759023"	"2020-03-02 13:16:45.453498"	156	6.64973325
"S200302"	"Conflict_Resolution"	"LEFT"	"LEFT"	768.657099999928	716.6666681	n/a	n/a	n/a	n/a	"True"	n/a	n/a	"2020-03-02 13:16:46.189169"	"2020-03-02 13:16:47.167236"	157	6.64973325
"S200302"	"Conflict_Resolution"	"RIGHT"	"RIGHT"	591.579700000011	733.3333348	n/a	n/a	n/a	n/a	"False"	n/a	n/a	"2020-03-02 13:16:47.918380"	"2020-03-02 13:16:48.718989"	158	6.64973325
"S200302"	"Conflict_Resolution"	"LEFT"	"LEFT"	430.230699999811	733.3333348	n/a	n/a	n/a	n/a	"False"	n/a	n/a	"2020-03-02 13:16:49.471328"	"2020-03-02 13:16:50.110295"	159	6.64973325
"S200302"	"Conflict_Resolution"	"LEFT"	"LEFT"	537.592800000084	1466.6666696	n/a	n/a	n/a	n/a	"True"	n/a	n/a	"2020-03-02 13:16:51.596105"	"2020-03-02 13:16:52.341955"	160	6.64973325
"S200302"	"Processing_Speed"	"LEFT"	"DOWN"	1155.71209999999	733.3333348	n/a	n/a	n/a	n/a	n/a	n/a	n/a	"2020-03-02 12:59:41.915185"	"2020-03-02 12:59:43.291204"	1	2.17387268333333
"S200302"	"Processing_Speed"	"LEFT"	"DOWN"	354.404700000003	816.6666683	n/a	n/a	n/a	n/a	n/a	n/a	n/a	"2020-03-02 12:59:44.116028"	"2020-03-02 12:59:44.678741"	2	2.17387268333333
"S200302"	"Processing_Speed"	"LEFT"	"DOWN"	298.544800000002	500.000001	n/a	n/a	n/a	n/a	n/a	n/a	n/a	"2020-03-02 12:59:45.188167"	"2020-03-02 12:59:45.695820"	3	2.17387268333333
"S200302"	"Processing_Speed"	"LEFT"	"DOWN"	308.789300000001	1216.6666691	n/a	n/a	n/a	n/a	n/a	n/a	n/a	"2020-03-02 12:59:46.922233"	"2020-03-02 12:59:47.438843"	4	2.17387268333333
"S200302"	"Processing_Speed"	"LEFT"	"DOWN"	280.196399999994	783.3333349	n/a	n/a	n/a	n/a	n/a	n/a	n/a	"2020-03-02 12:59:48.230470"	"2020-03-02 12:59:48.718400"	5	2.17387268333333
"S200302"	"Processing_Speed"	"RIGHT"	"DOWN"	456.576100000007	783.3333349	n/a	n/a	n/a	n/a	n/a	n/a	n/a	"2020-03-02 12:59:49.509836"	"2020-03-02 12:59:50.175303"	6	2.17387268333333
"S200302"	"Processing_Speed"	"LEFT"	"DOWN"	413.3171	633.3333346	n/a	n/a	n/a	n/a	n/a	n/a	n/a	"2020-03-02 12:59:50.817072"	"2020-03-02 12:59:51.439053"	7	2.17387268333333
"S200302"	"Processing_Speed"	"LEFT"	"DOWN"	387.529699999988	1266.6666692	n/a	n/a	n/a	n/a	n/a	n/a	n/a	"2020-03-02 12:59:52.715391"	"2020-03-02 12:59:53.310407"	8	2.17387268333333
"S200302"	"Processing_Speed"	"LEFT"	"DOWN"	347.35120000002	1116.6666689	n/a	n/a	n/a	n/a	n/a	n/a	n/a	"2020-03-02 12:59:54.435397"	"2020-03-02 12:59:54.991995"	9	2.17387268333333
"S200302"	"Processing_Speed"	"LEFT"	"DOWN"	235.568000000001	1050.0000021	n/a	n/a	n/a	n/a	n/a	n/a	n/a	"2020-03-02 12:59:56.051076"	"2020-03-02 12:59:56.494933"	10	2.17387268333333
"S200302"	"Processing_Speed"	"RIGHT"	"DOWN"	287.363900000003	1183.3333357	n/a	n/a	n/a	n/a	n/a	n/a	n/a	"2020-03-02 12:59:57.687774"	"2020-03-02 12:59:58.182633"	11	2.17387268333333
"S200302"	"Processing_Speed"	"LEFT"	"DOWN"	282.087099999984	1500.000003	n/a	n/a	n/a	n/a	n/a	n/a	n/a	"2020-03-02 12:59:59.693074"	"2020-03-02 13:00:00.182774"	12	2.17387268333333
"S200302"	"Processing_Speed"	"LEFT"	"DOWN"	380.028800000019	850.0000017	n/a	n/a	n/a	n/a	n/a	n/a	n/a	"2020-03-02 13:00:01.042653"	"2020-03-02 13:00:01.630951"	13	2.17387268333333
"S200302"	"Processing_Speed"	"RIGHT"	"DOWN"	280.453200000011	1366.6666694	n/a	n/a	n/a	n/a	n/a	n/a	n/a	"2020-03-02 13:00:03.006378"	"2020-03-02 13:00:03.494528"	14	2.17387268333333
"S200302"	"Processing_Speed"	"LEFT"	"DOWN"	242.087400000003	1333.333336	n/a	n/a	n/a	n/a	n/a	n/a	n/a	"2020-03-02 13:00:04.837023"	"2020-03-02 13:00:05.286327"	15	2.17387268333333
"S200302"	"Processing_Speed"	"RIGHT"	"DOWN"	245.955199999997	1433.3333362	n/a	n/a	n/a	n/a	n/a	n/a	n/a	"2020-03-02 13:00:06.728615"	"2020-03-02 13:00:07.183035"	16	2.17387268333333
"S200302"	"Processing_Speed"	"RIGHT"	"DOWN"	273.004299999997	1333.333336	n/a	n/a	n/a	n/a	n/a	n/a	n/a	"2020-03-02 13:00:08.526039"	"2020-03-02 13:00:09.007258"	17	2.17387268333333
"S200302"	"Processing_Speed"	"LEFT"	"DOWN"	332.104799999996	666.666668	n/a	n/a	n/a	n/a	n/a	n/a	n/a	"2020-03-02 13:00:09.682555"	"2020-03-02 13:00:10.222586"	18	2.17387268333333
"S200302"	"Processing_Speed"	"RIGHT"	"DOWN"	259.617900000023	1500.000003	n/a	n/a	n/a	n/a	n/a	n/a	n/a	"2020-03-02 13:00:11.731605"	"2020-03-02 13:00:12.198384"	19	2.17387268333333
"S200302"	"Processing_Speed"	"LEFT"	"DOWN"	297.15379999999	566.6666678	n/a	n/a	n/a	n/a	n/a	n/a	n/a	"2020-03-02 13:00:12.773209"	"2020-03-02 13:00:13.278572"	20	2.17387268333333
"S200302"	"Processing_Speed"	"LEFT"	"DOWN"	333.08550000001	1016.6666687	n/a	n/a	n/a	n/a	n/a	n/a	n/a	"2020-03-02 13:00:14.305368"	"2020-03-02 13:00:14.847158"	21	2.17387268333333
"S200302"	"Processing_Speed"	"RIGHT"	"DOWN"	290.795800000012	500.000001	n/a	n/a	n/a	n/a	n/a	n/a	n/a	"2020-03-02 13:00:15.356071"	"2020-03-02 13:00:15.853755"	22	2.17387268333333
"S200302"	"Processing_Speed"	"RIGHT"	"DOWN"	290.298899999982	1150.0000023	n/a	n/a	n/a	n/a	n/a	n/a	n/a	"2020-03-02 13:00:17.012791"	"2020-03-02 13:00:17.510495"	23	2.17387268333333
"S200302"	"Processing_Speed"	"LEFT"	"DOWN"	290.917500000006	916.6666685	n/a	n/a	n/a	n/a	n/a	n/a	n/a	"2020-03-02 13:00:18.435989"	"2020-03-02 13:00:18.934720"	24	2.17387268333333
"S200302"	"Processing_Speed"	"LEFT"	"DOWN"	279.5931	1400.0000028	n/a	n/a	n/a	n/a	n/a	n/a	n/a	"2020-03-02 13:00:20.343041"	"2020-03-02 13:00:20.831829"	25	2.17387268333333
"S200302"	"Processing_Speed"	"RIGHT"	"DOWN"	250.563499999998	1300.0000026	n/a	n/a	n/a	n/a	n/a	n/a	n/a	"2020-03-02 13:00:22.140149"	"2020-03-02 13:00:22.598803"	26	2.17387268333333
"S200302"	"Processing_Speed"	"RIGHT"	"DOWN"	414.278799999977	633.3333346	n/a	n/a	n/a	n/a	n/a	n/a	n/a	"2020-03-02 13:00:23.240386"	"2020-03-02 13:00:23.862983"	27	2.17387268333333
"S200302"	"Processing_Speed"	"RIGHT"	"DOWN"	284.394999999989	1266.6666692	n/a	n/a	n/a	n/a	n/a	n/a	n/a	"2020-03-02 13:00:25.137917"	"2020-03-02 13:00:25.631025"	28	2.17387268333333
"S200302"	"Processing_Speed"	"RIGHT"	"DOWN"	372.266400000001	666.666668	n/a	n/a	n/a	n/a	n/a	n/a	n/a	"2020-03-02 13:00:26.306240"	"2020-03-02 13:00:26.886490"	29	2.17387268333333
"S200302"	"Processing_Speed"	"LEFT"	"DOWN"	304.184900000024	1183.3333357	n/a	n/a	n/a	n/a	n/a	n/a	n/a	"2020-03-02 13:00:28.078579"	"2020-03-02 13:00:28.591018"	30	2.17387268333333
"S200302"	"Processing_Speed"	"LEFT"	"DOWN"	307.28640000001	1300.0000026	n/a	n/a	n/a	n/a	n/a	n/a	n/a	"2020-03-02 13:00:29.899528"	"2020-03-02 13:00:30.415267"	31	2.17387268333333
"S200302"	"Processing_Speed"	"LEFT"	"DOWN"	281.062300000002	950.0000019	n/a	n/a	n/a	n/a	n/a	n/a	n/a	"2020-03-02 13:00:31.373748"	"2020-03-02 13:00:31.862932"	32	2.17387268333333
"S200302"	"Processing_Speed"	"LEFT"	"DOWN"	329.093900000004	1150.0000023	n/a	n/a	n/a	n/a	n/a	n/a	n/a	"2020-03-02 13:00:33.021530"	"2020-03-02 13:00:33.560048"	33	2.17387268333333
"S200302"	"Processing_Speed"	"RIGHT"	"DOWN"	302.822999999989	983.3333353	n/a	n/a	n/a	n/a	n/a	n/a	n/a	"2020-03-02 13:00:34.552241"	"2020-03-02 13:00:35.062632"	34	2.17387268333333
"S200302"	"Processing_Speed"	"LEFT"	"DOWN"	307.949199999996	1466.6666696	n/a	n/a	n/a	n/a	n/a	n/a	n/a	"2020-03-02 13:00:36.539163"	"2020-03-02 13:00:37.054375"	35	2.17387268333333
"S200302"	"Processing_Speed"	"LEFT"	"DOWN"	350.765200000012	600.0000012	n/a	n/a	n/a	n/a	n/a	n/a	n/a	"2020-03-02 13:00:37.663835"	"2020-03-02 13:00:38.222783"	36	2.17387268333333
"S200302"	"Processing_Speed"	"RIGHT"	"DOWN"	297.710899999998	533.3333344	n/a	n/a	n/a	n/a	n/a	n/a	n/a	"2020-03-02 13:00:38.764789"	"2020-03-02 13:00:39.270647"	37	2.17387268333333
"S200302"	"Processing_Speed"	"RIGHT"	"DOWN"	330.4191	700.0000014	n/a	n/a	n/a	n/a	n/a	n/a	n/a	"2020-03-02 13:00:39.980388"	"2020-03-02 13:00:40.518962"	38	2.17387268333333
"S200302"	"Processing_Speed"	"RIGHT"	"DOWN"	350.411799999989	816.6666683	n/a	n/a	n/a	n/a	n/a	n/a	n/a	"2020-03-02 13:00:41.344240"	"2020-03-02 13:00:41.904128"	39	2.17387268333333
"S200302"	"Processing_Speed"	"RIGHT"	"DOWN"	266.399000000007	1083.3333355	n/a	n/a	n/a	n/a	n/a	n/a	n/a	"2020-03-02 13:00:42.996336"	"2020-03-02 13:00:43.470866"	40	2.17387268333333
"S200302"	"Processing_Speed"	"RIGHT"	"DOWN"	259.175699999986	883.3333351	n/a	n/a	n/a	n/a	n/a	n/a	n/a	"2020-03-02 13:00:44.364040"	"2020-03-02 13:00:44.830494"	41	2.17387268333333
"S200302"	"Processing_Speed"	"LEFT"	"DOWN"	300.613999999996	1083.3333355	n/a	n/a	n/a	n/a	n/a	n/a	n/a	"2020-03-02 13:00:45.922663"	"2020-03-02 13:00:46.431289"	42	2.17387268333333
"S200302"	"Processing_Speed"	"RIGHT"	"DOWN"	281.172900000001	916.6666685	n/a	n/a	n/a	n/a	n/a	n/a	n/a	"2020-03-02 13:00:47.357888"	"2020-03-02 13:00:47.846585"	43	2.17387268333333
"S200302"	"Processing_Speed"	"LEFT"	"DOWN"	304.779100000019	1366.6666694	n/a	n/a	n/a	n/a	n/a	n/a	n/a	"2020-03-02 13:00:49.222028"	"2020-03-02 13:00:49.735012"	44	2.17387268333333
"S200302"	"Processing_Speed"	"RIGHT"	"DOWN"	280.858199999955	950.0000019	n/a	n/a	n/a	n/a	n/a	n/a	n/a	"2020-03-02 13:00:50.694279"	"2020-03-02 13:00:51.183235"	45	2.17387268333333
"S200302"	"Processing_Speed"	"RIGHT"	"DOWN"	496.089299999994	566.6666678	n/a	n/a	n/a	n/a	n/a	n/a	n/a	"2020-03-02 13:00:51.758206"	"2020-03-02 13:00:52.462491"	46	2.17387268333333
"S200302"	"Processing_Speed"	"LEFT"	"DOWN"	266.996500000005	700.0000014	n/a	n/a	n/a	n/a	n/a	n/a	n/a	"2020-03-02 13:00:53.171559"	"2020-03-02 13:00:53.647035"	47	2.17387268333333
"S200302"	"Processing_Speed"	"RIGHT"	"DOWN"	280.542999999966	1116.6666689	n/a	n/a	n/a	n/a	n/a	n/a	n/a	"2020-03-02 13:00:54.773928"	"2020-03-02 13:00:55.262945"	48	2.17387268333333
"S200302"	"Processing_Speed"	"LEFT"	"DOWN"	277.605999999992	1433.3333362	n/a	n/a	n/a	n/a	n/a	n/a	n/a	"2020-03-02 13:00:56.705281"	"2020-03-02 13:00:57.191098"	49	2.17387268333333
"S200302"	"Processing_Speed"	"LEFT"	"DOWN"	377.132700000004	533.3333344	n/a	n/a	n/a	n/a	n/a	n/a	n/a	"2020-03-02 13:00:57.733694"	"2020-03-02 13:00:58.318800"	50	2.17387268333333
"S200302"	"Processing_Speed"	"RIGHT"	"DOWN"	294.542100000001	1216.6666691	n/a	n/a	n/a	n/a	n/a	n/a	n/a	"2020-03-02 13:00:59.544524"	"2020-03-02 13:01:00.047239"	51	2.17387268333333
"S200302"	"Processing_Speed"	"RIGHT"	"DOWN"	278.36659999997	1016.6666687	n/a	n/a	n/a	n/a	n/a	n/a	n/a	"2020-03-02 13:01:01.071993"	"2020-03-02 13:01:01.558888"	52	2.17387268333333
"S200302"	"Processing_Speed"	"RIGHT"	"DOWN"	293.438499999979	1050.0000021	n/a	n/a	n/a	n/a	n/a	n/a	n/a	"2020-03-02 13:01:02.617053"	"2020-03-02 13:01:03.119006"	53	2.17387268333333
"S200302"	"Processing_Speed"	"LEFT"	"DOWN"	306.935199999998	883.3333351	n/a	n/a	n/a	n/a	n/a	n/a	n/a	"2020-03-02 13:01:04.011964"	"2020-03-02 13:01:04.526373"	54	2.17387268333333
"S200302"	"Processing_Speed"	"RIGHT"	"DOWN"	263.781800000004	600.0000012	n/a	n/a	n/a	n/a	n/a	n/a	n/a	"2020-03-02 13:01:05.134766"	"2020-03-02 13:01:05.606610"	55	2.17387268333333
"S200302"	"Processing_Speed"	"RIGHT"	"DOWN"	290.445900000009	733.3333348	n/a	n/a	n/a	n/a	n/a	n/a	n/a	"2020-03-02 13:01:06.348104"	"2020-03-02 13:01:06.846588"	56	2.17387268333333
"S200302"	"Processing_Speed"	"LEFT"	"DOWN"	255.892499999959	983.3333353	n/a	n/a	n/a	n/a	n/a	n/a	n/a	"2020-03-02 13:01:07.838575"	"2020-03-02 13:01:08.302320"	57	2.17387268333333
"S200302"	"Processing_Speed"	"RIGHT"	"DOWN"	236.49469999998	850.0000017	n/a	n/a	n/a	n/a	n/a	n/a	n/a	"2020-03-02 13:01:09.162085"	"2020-03-02 13:01:09.607023"	58	2.17387268333333
"S200302"	"Processing_Speed"	"RIGHT"	"DOWN"	286.892799999976	1400.0000028	n/a	n/a	n/a	n/a	n/a	n/a	n/a	"2020-03-02 13:01:11.015845"	"2020-03-02 13:01:11.510606"	59	2.17387268333333
"S200302"	"Processing_Speed"	"RIGHT"	"DOWN"	276.459299999999	1466.6666696	n/a	n/a	n/a	n/a	n/a	n/a	n/a	"2020-03-02 13:01:12.986451"	"2020-03-02 13:01:13.471157"	60	2.17387268333333
"S200302"	"Response_Inhibition"	"LEFT"	"LEFT"	605.886400000031	733.3333348	n/a	n/a	n/a	n/a	n/a	n/a	n/a	"2020-03-02 13:05:01.640930"	"2020-03-02 13:05:02.455002"	1	5.94522571666667
"S200302"	"Response_Inhibition"	"LEFT"	"LEFT"	338.866600000017	700.0000014	n/a	n/a	n/a	n/a	n/a	n/a	n/a	"2020-03-02 13:05:03.164108"	"2020-03-02 13:05:03.711267"	2	5.94522571666667
"S200302"	"Response_Inhibition"	"LEFT"	"LEFT"	315.648899999985	683.3333347	n/a	n/a	n/a	n/a	n/a	n/a	n/a	"2020-03-02 13:05:04.402908"	"2020-03-02 13:05:04.927620"	3	5.94522571666667
"S200302"	"Response_Inhibition"	"RIGHT"	"RIGHT"	323.522400300024	1150.0000023	n/a	n/a	n/a	n/a	n/a	n/a	n/a	"2020-03-02 13:05:06.087937"	"2020-03-02 13:05:06.621485"	4	5.94522571666667
"S200302"	"Response_Inhibition"	"RIGHT"	"RIGHT"	531.391099999951	1133.3333356	n/a	n/a	n/a	n/a	n/a	n/a	n/a	"2020-03-02 13:05:07.762948"	"2020-03-02 13:05:08.502953"	5	5.94522571666667
"S200302"	"Response_Inhibition"	"LEFT"	"LEFT"	485.94490000005	1416.6666695	n/a	n/a	n/a	n/a	n/a	n/a	n/a	"2020-03-02 13:05:09.928577"	"2020-03-02 13:05:10.622060"	6	5.94522571666667
"S200302"	"Response_Inhibition"	"LEFT"	"LEFT"	413.592999999992	1033.3333354	n/a	n/a	n/a	n/a	n/a	n/a	n/a	"2020-03-02 13:05:11.665319"	"2020-03-02 13:05:12.286656"	7	5.94522571666667
"S200302"	"Response_Inhibition"	"LEFT"	"LEFT"	439.040999999975	983.3333353	n/a	n/a	n/a	n/a	n/a	n/a	n/a	"2020-03-02 13:05:13.279083"	"2020-03-02 13:05:13.925894"	8	5.94522571666667
"S200302"	"Response_Inhibition"	"LEFT"	"LEFT"	366.611399999897	833.333335	n/a	n/a	n/a	n/a	n/a	n/a	n/a	"2020-03-02 13:05:14.768273"	"2020-03-02 13:05:15.341816"	9	5.94522571666667
"S200302"	"Response_Inhibition"	"RIGHT"	"Time_Max_Exceeded"	1500.08483339999	1266.6666692	n/a	n/a	n/a	n/a	n/a	n/a	n/a	"2020-03-02 13:05:16.616932"	"2020-03-02 13:05:18.120981"	10	5.94522571666667
"S200302"	"Response_Inhibition"	"RIGHT"	"RIGHT"	554.776599999968	1250.0000025	n/a	n/a	n/a	n/a	n/a	n/a	n/a	"2020-03-02 13:05:19.380150"	"2020-03-02 13:05:20.141635"	11	5.94522571666667
"S200302"	"Response_Inhibition"	"RIGHT"	"Time_Max_Exceeded"	1500.04936689997	733.3333348	n/a	n/a	n/a	n/a	n/a	n/a	n/a	"2020-03-02 13:05:20.885192"	"2020-03-02 13:05:22.388291"	12	5.94522571666667
"S200302"	"Response_Inhibition"	"LEFT"	"Time_Max_Exceeded"	1500.06443370008	566.6666678	n/a	n/a	n/a	n/a	n/a	n/a	n/a	"2020-03-02 13:05:22.964262"	"2020-03-02 13:05:24.467207"	13	5.94522571666667
"S200302"	"Response_Inhibition"	"LEFT"	"LEFT"	465.521800000033	1216.6666691	n/a	n/a	n/a	n/a	n/a	n/a	n/a	"2020-03-02 13:05:25.692988"	"2020-03-02 13:05:26.367081"	14	5.94522571666667
"S200302"	"Response_Inhibition"	"RIGHT"	"RIGHT"	364.144833899982	966.6666686	n/a	n/a	n/a	n/a	n/a	n/a	n/a	"2020-03-02 13:05:27.343330"	"2020-03-02 13:05:27.919237"	15	5.94522571666667
"S200302"	"Response_Inhibition"	"LEFT"	"LEFT"	556.847700000048	1050.0000021	n/a	n/a	n/a	n/a	n/a	n/a	n/a	"2020-03-02 13:05:28.977420"	"2020-03-02 13:05:29.742416"	16	5.94522571666667
"S200302"	"Response_Inhibition"	"LEFT"	"Time_Max_Exceeded"	1500.04530019999	633.3333346	n/a	n/a	n/a	n/a	n/a	n/a	n/a	"2020-03-02 13:05:30.385211"	"2020-03-02 13:05:31.888379"	17	5.94522571666667
"S200302"	"Response_Inhibition"	"RIGHT"	"Time_Max_Exceeded"	1500.05730059991	1433.3333362	n/a	n/a	n/a	n/a	n/a	n/a	n/a	"2020-03-02 13:05:33.331638"	"2020-03-02 13:05:34.834455"	18	5.94522571666667
"S200302"	"Response_Inhibition"	"LEFT"	"LEFT"	389.136300000018	550.0000011	n/a	n/a	n/a	n/a	n/a	n/a	n/a	"2020-03-02 13:05:35.393778"	"2020-03-02 13:05:35.989785"	19	5.94522571666667
"S200302"	"Response_Inhibition"	"LEFT"	"LEFT"	523.80949999997	1083.3333355	n/a	n/a	n/a	n/a	n/a	n/a	n/a	"2020-03-02 13:05:37.083118"	"2020-03-02 13:05:37.814958"	20	5.94522571666667
"S200302"	"Response_Inhibition"	"RIGHT"	"Time_Max_Exceeded"	1500.04660029993	566.6666678	n/a	n/a	n/a	n/a	n/a	n/a	n/a	"2020-03-02 13:05:38.390010"	"2020-03-02 13:05:39.894041"	21	5.94522571666667
"S200302"	"Response_Inhibition"	"LEFT"	"LEFT"	446.876167199933	1350.0000027	n/a	n/a	n/a	n/a	n/a	n/a	n/a	"2020-03-02 13:05:41.252179"	"2020-03-02 13:05:41.910055"	22	5.94522571666667
"S200302"	"Response_Inhibition"	"LEFT"	"Time_Max_Exceeded"	1500.04676680002	716.6666681	n/a	n/a	n/a	n/a	n/a	n/a	n/a	"2020-03-02 13:05:42.634972"	"2020-03-02 13:05:44.138076"	23	5.94522571666667
"S200302"	"Response_Inhibition"	"RIGHT"	"RIGHT"	591.484100000002	683.3333347	n/a	n/a	n/a	n/a	n/a	n/a	n/a	"2020-03-02 13:05:44.831239"	"2020-03-02 13:05:45.631013"	24	5.94522571666667
"S200302"	"Response_Inhibition"	"LEFT"	"Time_Max_Exceeded"	1500.05333340001	866.6666684	n/a	n/a	n/a	n/a	n/a	n/a	n/a	"2020-03-02 13:05:46.505852"	"2020-03-02 13:05:48.009305"	25	5.94522571666667
"S200302"	"Response_Inhibition"	"RIGHT"	"RIGHT"	440.382099999965	1283.3333359	n/a	n/a	n/a	n/a	n/a	n/a	n/a	"2020-03-02 13:05:49.301977"	"2020-03-02 13:05:49.951031"	26	5.94522571666667
"S200302"	"Response_Inhibition"	"LEFT"	"Time_Max_Exceeded"	1500.05270010001	600.0000012	n/a	n/a	n/a	n/a	n/a	n/a	n/a	"2020-03-02 13:05:50.559926"	"2020-03-02 13:05:52.063693"	27	5.94522571666667
"S200302"	"Response_Inhibition"	"LEFT"	"LEFT"	456.928800000014	500.000001	n/a	n/a	n/a	n/a	n/a	n/a	n/a	"2020-03-02 13:05:52.573604"	"2020-03-02 13:05:53.238205"	28	5.94522571666667
"S200302"	"Response_Inhibition"	"LEFT"	"LEFT"	613.621700000067	1050.0000021	n/a	n/a	n/a	n/a	n/a	n/a	n/a	"2020-03-02 13:05:54.296829"	"2020-03-02 13:05:55.118112"	29	5.94522571666667
"S200302"	"Response_Inhibition"	"RIGHT"	"RIGHT"	535.192499999994	616.6666679	n/a	n/a	n/a	n/a	n/a	n/a	n/a	"2020-03-02 13:05:55.743441"	"2020-03-02 13:05:56.485989"	30	5.94522571666667
"S200302"	"Response_Inhibition"	"RIGHT"	"RIGHT"	575.88510000005	1000.000002	n/a	n/a	n/a	n/a	n/a	n/a	n/a	"2020-03-02 13:05:57.494935"	"2020-03-02 13:05:58.279194"	31	5.94522571666667
"S200302"	"Response_Inhibition"	"RIGHT"	"RIGHT"	484.392900000103	1033.3333354	n/a	n/a	n/a	n/a	n/a	n/a	n/a	"2020-03-02 13:05:59.321612"	"2020-03-02 13:06:00.015313"	32	5.94522571666667
"S200302"	"Response_Inhibition"	"RIGHT"	"RIGHT"	396.477799999957	633.3333346	n/a	n/a	n/a	n/a	n/a	n/a	n/a	"2020-03-02 13:06:00.657951"	"2020-03-02 13:06:01.262369"	33	5.94522571666667
"S200302"	"Response_Inhibition"	"RIGHT"	"Time_Max_Exceeded"	1500.054367	1183.3333357	n/a	n/a	n/a	n/a	n/a	n/a	n/a	"2020-03-02 13:06:02.454427"	"2020-03-02 13:06:03.957965"	34	5.94522571666667
"S200302"	"Response_Inhibition"	"LEFT"	"LEFT"	462.049033799952	950.0000019	n/a	n/a	n/a	n/a	n/a	n/a	n/a	"2020-03-02 13:06:04.917504"	"2020-03-02 13:06:05.590496"	35	5.94522571666667
"S200302"	"Response_Inhibition"	"RIGHT"	"RIGHT"	496.986200000038	1150.0000023	n/a	n/a	n/a	n/a	n/a	n/a	n/a	"2020-03-02 13:06:06.749055"	"2020-03-02 13:06:07.454461"	36	5.94522571666667
"S200302"	"Response_Inhibition"	"RIGHT"	"Time_Max_Exceeded"	1500.06370009999	1050.0000021	n/a	n/a	n/a	n/a	n/a	n/a	n/a	"2020-03-02 13:06:08.513603"	"2020-03-02 13:06:10.017561"	37	5.94522571666667
"S200302"	"Response_Inhibition"	"LEFT"	"LEFT"	591.132300000027	900.0000018	n/a	n/a	n/a	n/a	n/a	n/a	n/a	"2020-03-02 13:06:10.927658"	"2020-03-02 13:06:11.727037"	38	5.94522571666667
"S200302"	"Response_Inhibition"	"RIGHT"	"RIGHT"	601.047100000073	1350.0000027	n/a	n/a	n/a	n/a	n/a	n/a	n/a	"2020-03-02 13:06:13.085613"	"2020-03-02 13:06:13.895123"	39	5.94522571666667
"S200302"	"Response_Inhibition"	"RIGHT"	"RIGHT"	826.703099999918	900.0000018	n/a	n/a	n/a	n/a	n/a	n/a	n/a	"2020-03-02 13:06:14.803721"	"2020-03-02 13:06:15.838064"	40	5.94522571666667
"S200302"	"Response_Inhibition"	"RIGHT"	"RIGHT"	566.492499999981	833.333335	n/a	n/a	n/a	n/a	n/a	n/a	n/a	"2020-03-02 13:06:16.680328"	"2020-03-02 13:06:17.453530"	41	5.94522571666667
"S200302"	"Response_Inhibition"	"RIGHT"	"RIGHT"	463.507800000002	1416.6666695	n/a	n/a	n/a	n/a	n/a	n/a	n/a	"2020-03-02 13:06:18.878749"	"2020-03-02 13:06:19.549990"	42	5.94522571666667
"S200302"	"Response_Inhibition"	"LEFT"	"LEFT"	554.884399999992	1333.333336	n/a	n/a	n/a	n/a	n/a	n/a	n/a	"2020-03-02 13:06:20.891759"	"2020-03-02 13:06:21.653780"	43	5.94522571666667
"S200302"	"Response_Inhibition"	"RIGHT"	"Time_Max_Exceeded"	1500.0589	716.6666681	n/a	n/a	n/a	n/a	n/a	n/a	n/a	"2020-03-02 13:06:22.378809"	"2020-03-02 13:06:23.879107"	44	5.94522571666667
"S200302"	"Response_Inhibition"	"RIGHT"	"RIGHT"	573.908367299895	1316.6666693	n/a	n/a	n/a	n/a	n/a	n/a	n/a	"2020-03-02 13:06:25.205175"	"2020-03-02 13:06:25.991184"	45	5.94522571666667
"S200302"	"Response_Inhibition"	"LEFT"	"LEFT"	566.44110000002	583.3333345	n/a	n/a	n/a	n/a	n/a	n/a	n/a	"2020-03-02 13:06:26.584411"	"2020-03-02 13:06:27.359147"	46	5.94522571666667
"S200302"	"Response_Inhibition"	"RIGHT"	"RIGHT"	702.73229999998	600.0000012	n/a	n/a	n/a	n/a	n/a	n/a	n/a	"2020-03-02 13:06:27.967548"	"2020-03-02 13:06:28.877355"	47	5.94522571666667
"S200302"	"Response_Inhibition"	"LEFT"	"Time_Max_Exceeded"	1500.26920050005	666.666668	n/a	n/a	n/a	n/a	n/a	n/a	n/a	"2020-03-02 13:06:29.552719"	"2020-03-02 13:06:31.056100"	48	5.94522571666667
"S200302"	"Response_Inhibition"	"RIGHT"	"RIGHT"	555.469600000038	1233.3333358	n/a	n/a	n/a	n/a	n/a	n/a	n/a	"2020-03-02 13:06:32.298592"	"2020-03-02 13:06:33.062535"	49	5.94522571666667
"S200302"	"Response_Inhibition"	"RIGHT"	"RIGHT"	491.375299999959	1483.3333363	n/a	n/a	n/a	n/a	n/a	n/a	n/a	"2020-03-02 13:06:34.555124"	"2020-03-02 13:06:35.255292"	50	5.94522571666667
"S200302"	"Response_Inhibition"	"RIGHT"	"RIGHT"	385.482900000056	1316.6666693	n/a	n/a	n/a	n/a	n/a	n/a	n/a	"2020-03-02 13:06:36.580817"	"2020-03-02 13:06:37.173707"	51	5.94522571666667
"S200302"	"Response_Inhibition"	"RIGHT"	"RIGHT"	446.367500000065	850.0000017	n/a	n/a	n/a	n/a	n/a	n/a	n/a	"2020-03-02 13:06:38.031919"	"2020-03-02 13:06:38.685804"	52	5.94522571666667
"S200302"	"Response_Inhibition"	"RIGHT"	"Time_Max_Exceeded"	1500.05736680002	1016.6666687	n/a	n/a	n/a	n/a	n/a	n/a	n/a	"2020-03-02 13:06:39.711031"	"2020-03-02 13:06:41.214518"	53	5.94522571666667
"S200302"	"Response_Inhibition"	"LEFT"	"LEFT"	598.491099999933	800.0000016	n/a	n/a	n/a	n/a	n/a	n/a	n/a	"2020-03-02 13:06:42.023866"	"2020-03-02 13:06:42.830386"	54	5.94522571666667
"S200302"	"Response_Inhibition"	"RIGHT"	"RIGHT"	521.515300000033	550.0000011	n/a	n/a	n/a	n/a	n/a	n/a	n/a	"2020-03-02 13:06:43.388863"	"2020-03-02 13:06:44.118725"	55	5.94522571666667
"S200302"	"Response_Inhibition"	"LEFT"	"LEFT"	473.524100000077	533.3333344	n/a	n/a	n/a	n/a	n/a	n/a	n/a	"2020-03-02 13:06:44.661484"	"2020-03-02 13:06:45.341681"	56	5.94522571666667
"S200302"	"Response_Inhibition"	"LEFT"	"Time_Max_Exceeded"	1500.04813349991	1316.6666693	n/a	n/a	n/a	n/a	n/a	n/a	n/a	"2020-03-02 13:06:46.666428"	"2020-03-02 13:06:48.170028"	57	5.94522571666667
"S200302"	"Response_Inhibition"	"RIGHT"	"RIGHT"	460.226499999976	1366.6666694	n/a	n/a	n/a	n/a	n/a	n/a	n/a	"2020-03-02 13:06:49.546333"	"2020-03-02 13:06:50.214556"	58	5.94522571666667
"S200302"	"Response_Inhibition"	"LEFT"	"LEFT"	472.732899999983	1366.6666694	n/a	n/a	n/a	n/a	n/a	n/a	n/a	"2020-03-02 13:06:51.590069"	"2020-03-02 13:06:52.271259"	59	5.94522571666667
"S200302"	"Response_Inhibition"	"RIGHT"	"RIGHT"	402.693500000055	500.000001	n/a	n/a	n/a	n/a	n/a	n/a	n/a	"2020-03-02 13:06:52.779469"	"2020-03-02 13:06:53.390850"	60	5.94522571666667
"S200302"	"Response_Inhibition"	"RIGHT"	"RIGHT"	508.982100000026	650.0000013	n/a	n/a	n/a	n/a	n/a	n/a	n/a	"2020-03-02 13:06:54.049678"	"2020-03-02 13:06:54.766299"	61	5.94522571666667
"S200302"	"Response_Inhibition"	"LEFT"	"Time_Max_Exceeded"	1500.0528671	1266.6666692	n/a	n/a	n/a	n/a	n/a	n/a	n/a	"2020-03-02 13:06:56.042349"	"2020-03-02 13:06:57.544953"	62	5.94522571666667
"S200302"	"Response_Inhibition"	"LEFT"	"LEFT"	477.600100000018	1366.6666694	n/a	n/a	n/a	n/a	n/a	n/a	n/a	"2020-03-02 13:06:58.921062"	"2020-03-02 13:06:59.605458"	63	5.94522571666667
"S200302"	"Response_Inhibition"	"LEFT"	"LEFT"	446.395999999936	850.0000017	n/a	n/a	n/a	n/a	n/a	n/a	n/a	"2020-03-02 13:07:00.463966"	"2020-03-02 13:07:01.117776"	64	5.94522571666667
"S200302"	"Response_Inhibition"	"RIGHT"	"RIGHT"	343.883499999947	1000.000002	n/a	n/a	n/a	n/a	n/a	n/a	n/a	"2020-03-02 13:07:02.127136"	"2020-03-02 13:07:02.677688"	65	5.94522571666667
"S200302"	"Response_Inhibition"	"LEFT"	"Time_Max_Exceeded"	1500.04683359995	1450.0000029	n/a	n/a	n/a	n/a	n/a	n/a	n/a	"2020-03-02 13:07:04.136914"	"2020-03-02 13:07:05.639806"	66	5.94522571666667
"S200302"	"Response_Inhibition"	"RIGHT"	"RIGHT"	490.325999999982	1466.6666696	n/a	n/a	n/a	n/a	n/a	n/a	n/a	"2020-03-02 13:07:07.116203"	"2020-03-02 13:07:07.813503"	67	5.94522571666667
"S200302"	"Response_Inhibition"	"RIGHT"	"RIGHT"	431.740999999988	816.6666683	n/a	n/a	n/a	n/a	n/a	n/a	n/a	"2020-03-02 13:07:08.638444"	"2020-03-02 13:07:09.278356"	68	5.94522571666667
"S200302"	"Response_Inhibition"	"RIGHT"	"RIGHT"	506.302900000037	1333.333336	n/a	n/a	n/a	n/a	n/a	n/a	n/a	"2020-03-02 13:07:10.620359"	"2020-03-02 13:07:11.334653"	69	5.94522571666667
"S200302"	"Response_Inhibition"	"RIGHT"	"Time_Max_Exceeded"	1500.05280009998	583.3333345	n/a	n/a	n/a	n/a	n/a	n/a	n/a	"2020-03-02 13:07:11.927054"	"2020-03-02 13:07:13.430503"	70	5.94522571666667
"S200302"	"Response_Inhibition"	"LEFT"	"LEFT"	527.963999999997	783.3333349	n/a	n/a	n/a	n/a	n/a	n/a	n/a	"2020-03-02 13:07:14.222665"	"2020-03-02 13:07:14.957700"	71	5.94522571666667
"S200302"	"Response_Inhibition"	"LEFT"	"LEFT"	598.831099999984	1433.3333362	n/a	n/a	n/a	n/a	n/a	n/a	n/a	"2020-03-02 13:07:16.399365"	"2020-03-02 13:07:17.206398"	72	5.94522571666667
"S200302"	"Response_Inhibition"	"LEFT"	"LEFT"	409.422699999936	750.0000015	n/a	n/a	n/a	n/a	n/a	n/a	n/a	"2020-03-02 13:07:17.965022"	"2020-03-02 13:07:18.583091"	73	5.94522571666667
"S200302"	"Response_Inhibition"	"LEFT"	"LEFT"	430.905000599984	516.6666677	n/a	n/a	n/a	n/a	n/a	n/a	n/a	"2020-03-02 13:07:19.108687"	"2020-03-02 13:07:19.750453"	74	5.94522571666667
"S200302"	"Response_Inhibition"	"LEFT"	"LEFT"	587.011899999993	1100.0000022	n/a	n/a	n/a	n/a	n/a	n/a	n/a	"2020-03-02 13:07:20.859495"	"2020-03-02 13:07:21.654409"	75	5.94522571666667
"S200302"	"Response_Inhibition"	"RIGHT"	"RIGHT"	520.565799999986	983.3333353	n/a	n/a	n/a	n/a	n/a	n/a	n/a	"2020-03-02 13:07:22.645748"	"2020-03-02 13:07:23.374815"	76	5.94522571666667
"S200302"	"Response_Inhibition"	"RIGHT"	"RIGHT"	596.273499999938	866.6666684	n/a	n/a	n/a	n/a	n/a	n/a	n/a	"2020-03-02 13:07:24.250480"	"2020-03-02 13:07:25.053946"	77	5.94522571666667
"S200302"	"Response_Inhibition"	"LEFT"	"LEFT"	724.078899999995	1283.3333359	n/a	n/a	n/a	n/a	n/a	n/a	n/a	"2020-03-02 13:07:26.346694"	"2020-03-02 13:07:27.278803"	78	5.94522571666667
"S200302"	"Response_Inhibition"	"RIGHT"	"RIGHT"	662.548900000047	1416.6666695	n/a	n/a	n/a	n/a	n/a	n/a	n/a	"2020-03-02 13:07:28.704242"	"2020-03-02 13:07:29.574832"	79	5.94522571666667
"S200302"	"Response_Inhibition"	"RIGHT"	"Time_Max_Exceeded"	1500.07636690002	633.3333346	n/a	n/a	n/a	n/a	n/a	n/a	n/a	"2020-03-02 13:07:30.217410"	"2020-03-02 13:07:31.720985"	80	5.94522571666667
"S200302"	"Response_Inhibition"	"RIGHT"	"RIGHT"	528.305899999964	916.6666685	n/a	n/a	n/a	n/a	n/a	n/a	n/a	"2020-03-02 13:07:32.646213"	"2020-03-02 13:07:33.382358"	81	5.94522571666667
"S200302"	"Response_Inhibition"	"RIGHT"	"RIGHT"	540.284799999995	1083.3333355	n/a	n/a	n/a	n/a	n/a	n/a	n/a	"2020-03-02 13:07:34.473992"	"2020-03-02 13:07:35.223002"	82	5.94522571666667
"S200302"	"Response_Inhibition"	"LEFT"	"LEFT"	492.373533900004	1183.3333357	n/a	n/a	n/a	n/a	n/a	n/a	n/a	"2020-03-02 13:07:36.414905"	"2020-03-02 13:07:37.119057"	83	5.94522571666667
"S200302"	"Response_Inhibition"	"LEFT"	"LEFT"	597.627299999999	633.3333346	n/a	n/a	n/a	n/a	n/a	n/a	n/a	"2020-03-02 13:07:37.761054"	"2020-03-02 13:07:38.567015"	84	5.94522571666667
"S200302"	"Response_Inhibition"	"RIGHT"	"Time_Max_Exceeded"	1500.04653390007	883.3333351	n/a	n/a	n/a	n/a	n/a	n/a	n/a	"2020-03-02 13:07:39.458705"	"2020-03-02 13:07:40.962117"	85	5.94522571666667
"S200302"	"Response_Inhibition"	"RIGHT"	"RIGHT"	564.178399999946	766.6666682	n/a	n/a	n/a	n/a	n/a	n/a	n/a	"2020-03-02 13:07:41.737797"	"2020-03-02 13:07:42.510069"	86	5.94522571666667
"S200302"	"Response_Inhibition"	"LEFT"	"LEFT"	699.118399999975	1116.6666689	n/a	n/a	n/a	n/a	n/a	n/a	n/a	"2020-03-02 13:07:43.635651"	"2020-03-02 13:07:44.541991"	87	5.94522571666667
"S200302"	"Response_Inhibition"	"RIGHT"	"Time_Max_Exceeded"	1500.05866720009	1100.0000022	n/a	n/a	n/a	n/a	n/a	n/a	n/a	"2020-03-02 13:07:45.651509"	"2020-03-02 13:07:47.154867"	88	5.94522571666667
"S200302"	"Response_Inhibition"	"RIGHT"	"RIGHT"	571.445900000072	1200.0000024	n/a	n/a	n/a	n/a	n/a	n/a	n/a	"2020-03-02 13:07:48.363434"	"2020-03-02 13:07:49.143169"	89	5.94522571666667
"S200302"	"Response_Inhibition"	"LEFT"	"LEFT"	562.621100000001	1316.6666693	n/a	n/a	n/a	n/a	n/a	n/a	n/a	"2020-03-02 13:07:50.467876"	"2020-03-02 13:07:51.239010"	90	5.94522571666667
"S200302"	"Response_Inhibition"	"LEFT"	"LEFT"	542.882600499984	900.0000018	n/a	n/a	n/a	n/a	n/a	n/a	n/a	"2020-03-02 13:07:52.148056"	"2020-03-02 13:07:52.902069"	91	5.94522571666667
"S200302"	"Response_Inhibition"	"LEFT"	"LEFT"	782.32509999998	1233.3333358	n/a	n/a	n/a	n/a	n/a	n/a	n/a	"2020-03-02 13:07:54.143943"	"2020-03-02 13:07:55.134540"	92	5.94522571666667
"S200302"	"Response_Inhibition"	"RIGHT"	"Time_Max_Exceeded"	1500.06736699997	800.0000016	n/a	n/a	n/a	n/a	n/a	n/a	n/a	"2020-03-02 13:07:55.943881"	"2020-03-02 13:07:57.446626"	93	5.94522571666667
"S200302"	"Response_Inhibition"	"LEFT"	"LEFT"	702.174499999956	1400.0000028	n/a	n/a	n/a	n/a	n/a	n/a	n/a	"2020-03-02 13:07:58.855913"	"2020-03-02 13:07:59.767243"	94	5.94522571666667
"S200302"	"Response_Inhibition"	"LEFT"	"Time_Max_Exceeded"	1500.05433380008	1383.3333361	n/a	n/a	n/a	n/a	n/a	n/a	n/a	"2020-03-02 13:08:01.159037"	"2020-03-02 13:08:02.662478"	95	5.94522571666667
"S200302"	"Response_Inhibition"	"RIGHT"	"RIGHT"	745.671399999992	933.3333352	n/a	n/a	n/a	n/a	n/a	n/a	n/a	"2020-03-02 13:08:03.604855"	"2020-03-02 13:08:04.558014"	96	5.94522571666667
"S200302"	"Response_Inhibition"	"LEFT"	"LEFT"	799.678299999982	1000.000002	n/a	n/a	n/a	n/a	n/a	n/a	n/a	"2020-03-02 13:08:05.566650"	"2020-03-02 13:08:06.574949"	97	5.94522571666667
"S200302"	"Response_Inhibition"	"RIGHT"	"RIGHT"	498.715599999969	900.0000018	n/a	n/a	n/a	n/a	n/a	n/a	n/a	"2020-03-02 13:08:07.483479"	"2020-03-02 13:08:08.191206"	98	5.94522571666667
"S200302"	"Response_Inhibition"	"LEFT"	"LEFT"	520.143100000041	966.6666686	n/a	n/a	n/a	n/a	n/a	n/a	n/a	"2020-03-02 13:08:09.166240"	"2020-03-02 13:08:09.893455"	99	5.94522571666667
"S200302"	"Response_Inhibition"	"RIGHT"	"RIGHT"	488.743800000066	783.3333349	n/a	n/a	n/a	n/a	n/a	n/a	n/a	"2020-03-02 13:08:10.685438"	"2020-03-02 13:08:11.382531"	100	5.94522571666667
"S200302"	"Response_Inhibition"	"RIGHT"	"Time_Max_Exceeded"	1500.05203359998	1400.0000028	n/a	n/a	n/a	n/a	n/a	n/a	n/a	"2020-03-02 13:08:12.791075"	"2020-03-02 13:08:14.294523"	101	5.94522571666667
"S200302"	"Response_Inhibition"	"LEFT"	"Time_Max_Exceeded"	1500.05753370007	783.3333349	n/a	n/a	n/a	n/a	n/a	n/a	n/a	"2020-03-02 13:08:15.087486"	"2020-03-02 13:08:16.590646"	102	5.94522571666667
"S200302"	"Response_Inhibition"	"RIGHT"	"RIGHT"	444.374299999936	666.666668	n/a	n/a	n/a	n/a	n/a	n/a	n/a	"2020-03-02 13:08:17.266461"	"2020-03-02 13:08:17.918404"	103	5.94522571666667
"S200302"	"Response_Inhibition"	"LEFT"	"Time_Max_Exceeded"	1500.0665336	1300.0000026	n/a	n/a	n/a	n/a	n/a	n/a	n/a	"2020-03-02 13:08:19.227033"	"2020-03-02 13:08:20.730061"	104	5.94522571666667
"S200302"	"Response_Inhibition"	"LEFT"	"LEFT"	584.737000000018	850.0000017	n/a	n/a	n/a	n/a	n/a	n/a	n/a	"2020-03-02 13:08:21.589293"	"2020-03-02 13:08:22.382919"	105	5.94522571666667
"S200302"	"Response_Inhibition"	"RIGHT"	"RIGHT"	560.345499999926	950.0000019	n/a	n/a	n/a	n/a	n/a	n/a	n/a	"2020-03-02 13:08:23.342360"	"2020-03-02 13:08:24.110615"	106	5.94522571666667
"S200302"	"Response_Inhibition"	"LEFT"	"Time_Max_Exceeded"	1500.05656710009	766.6666682	n/a	n/a	n/a	n/a	n/a	n/a	n/a	"2020-03-02 13:08:24.885755"	"2020-03-02 13:08:26.389056"	107	5.94522571666667
"S200302"	"Response_Inhibition"	"LEFT"	"LEFT"	925.371199999972	1266.6666692	n/a	n/a	n/a	n/a	n/a	n/a	n/a	"2020-03-02 13:08:27.665496"	"2020-03-02 13:08:28.797987"	108	5.94522571666667
"S200302"	"Response_Inhibition"	"RIGHT"	"Time_Max_Exceeded"	1500.05850039998	1366.6666694	n/a	n/a	n/a	n/a	n/a	n/a	n/a	"2020-03-02 13:08:30.173337"	"2020-03-02 13:08:31.677346"	109	5.94522571666667
"S200302"	"Response_Inhibition"	"LEFT"	"Time_Max_Exceeded"	1500.05166689998	1100.0000022	n/a	n/a	n/a	n/a	n/a	n/a	n/a	"2020-03-02 13:08:32.786394"	"2020-03-02 13:08:34.289849"	110	5.94522571666667
"S200302"	"Response_Inhibition"	"LEFT"	"LEFT"	569.976099999963	616.6666679	n/a	n/a	n/a	n/a	n/a	n/a	n/a	"2020-03-02 13:08:34.916722"	"2020-03-02 13:08:35.694346"	111	5.94522571666667
"S200302"	"Response_Inhibition"	"RIGHT"	"Time_Max_Exceeded"	1500.07566669994	850.0000017	n/a	n/a	n/a	n/a	n/a	n/a	n/a	"2020-03-02 13:08:36.552584"	"2020-03-02 13:08:38.056663"	112	5.94522571666667
"S200302"	"Response_Inhibition"	"RIGHT"	"RIGHT"	822.751199999971	533.3333344	n/a	n/a	n/a	n/a	n/a	n/a	n/a	"2020-03-02 13:08:38.599721"	"2020-03-02 13:08:39.630346"	113	5.94522571666667
"S200302"	"Response_Inhibition"	"RIGHT"	"RIGHT"	607.758100000069	583.3333345	n/a	n/a	n/a	n/a	n/a	n/a	n/a	"2020-03-02 13:08:40.222988"	"2020-03-02 13:08:41.038805"	114	5.94522571666667
"S200302"	"Response_Inhibition"	"LEFT"	"Time_Max_Exceeded"	1500.05820060006	1066.6666688	n/a	n/a	n/a	n/a	n/a	n/a	n/a	"2020-03-02 13:08:42.114764"	"2020-03-02 13:08:43.618277"	115	5.94522571666667
"S200302"	"Response_Inhibition"	"LEFT"	"Time_Max_Exceeded"	1500.04930019998	1466.6666696	n/a	n/a	n/a	n/a	n/a	n/a	n/a	"2020-03-02 13:08:45.093974"	"2020-03-02 13:08:46.596841"	116	5.94522571666667
"S200302"	"Response_Inhibition"	"RIGHT"	"RIGHT"	691.345599999977	516.6666677	n/a	n/a	n/a	n/a	n/a	n/a	n/a	"2020-03-02 13:08:47.123190"	"2020-03-02 13:08:48.022378"	117	5.94522571666667
"S200302"	"Response_Inhibition"	"RIGHT"	"RIGHT"	540.849499999922	1266.6666692	n/a	n/a	n/a	n/a	n/a	n/a	n/a	"2020-03-02 13:08:49.297251"	"2020-03-02 13:08:50.045356"	118	5.94522571666667
"S200302"	"Response_Inhibition"	"RIGHT"	"RIGHT"	445.536000000061	1050.0000021	n/a	n/a	n/a	n/a	n/a	n/a	n/a	"2020-03-02 13:08:51.104619"	"2020-03-02 13:08:51.757582"	119	5.94522571666667
"S200302"	"Response_Inhibition"	"LEFT"	"LEFT"	553.506599999992	1166.666669	n/a	n/a	n/a	n/a	n/a	n/a	n/a	"2020-03-02 13:08:52.933067"	"2020-03-02 13:08:53.694463"	120	5.94522571666667
"S200302"	"Response_Inhibition"	"LEFT"	"LEFT"	476.641099999938	1250.0000025	n/a	n/a	n/a	n/a	n/a	n/a	n/a	"2020-03-02 13:08:54.954045"	"2020-03-02 13:08:55.638849"	121	5.94522571666667
"S200302"	"Response_Inhibition"	"LEFT"	"LEFT"	647.867700000006	583.3333345	n/a	n/a	n/a	n/a	n/a	n/a	n/a	"2020-03-02 13:08:56.230268"	"2020-03-02 13:08:57.085556"	122	5.94522571666667
"S200302"	"Response_Inhibition"	"RIGHT"	"RIGHT"	447.067567300041	950.0000019	n/a	n/a	n/a	n/a	n/a	n/a	n/a	"2020-03-02 13:08:58.044516"	"2020-03-02 13:08:58.701772"	123	5.94522571666667
"S200302"	"Response_Inhibition"	"RIGHT"	"RIGHT"	960.827699999982	1383.3333361	n/a	n/a	n/a	n/a	n/a	n/a	n/a	"2020-03-02 13:09:00.093125"	"2020-03-02 13:09:01.263013"	124	5.94522571666667
"S200302"	"Response_Inhibition"	"LEFT"	"LEFT"	579.359899999986	1483.3333363	n/a	n/a	n/a	n/a	n/a	n/a	n/a	"2020-03-02 13:09:02.754958"	"2020-03-02 13:09:03.542262"	125	5.94522571666667
"S200302"	"Response_Inhibition"	"RIGHT"	"Time_Max_Exceeded"	1500.05843350001	1500.000003	n/a	n/a	n/a	n/a	n/a	n/a	n/a	"2020-03-02 13:09:05.051243"	"2020-03-02 13:09:06.554014"	126	5.94522571666667
"S200302"	"Response_Inhibition"	"RIGHT"	"RIGHT"	495.981299999926	1466.6666696	n/a	n/a	n/a	n/a	n/a	n/a	n/a	"2020-03-02 13:09:08.030575"	"2020-03-02 13:09:08.733606"	127	5.94522571666667
"S200302"	"Response_Inhibition"	"LEFT"	"LEFT"	554.805800000054	533.3333344	n/a	n/a	n/a	n/a	n/a	n/a	n/a	"2020-03-02 13:09:09.275158"	"2020-03-02 13:09:10.038250"	128	5.94522571666667
"S200302"	"Response_Inhibition"	"RIGHT"	"RIGHT"	523.937100000012	1066.6666688	n/a	n/a	n/a	n/a	n/a	n/a	n/a	"2020-03-02 13:09:11.114573"	"2020-03-02 13:09:11.846599"	129	5.94522571666667
"S200302"	"Response_Inhibition"	"LEFT"	"LEFT"	450.613399999952	916.6666685	n/a	n/a	n/a	n/a	n/a	n/a	n/a	"2020-03-02 13:09:12.771350"	"2020-03-02 13:09:13.431133"	130	5.94522571666667
"S200302"	"Response_Inhibition"	"LEFT"	"LEFT"	401.211999999987	1133.3333356	n/a	n/a	n/a	n/a	n/a	n/a	n/a	"2020-03-02 13:09:14.573089"	"2020-03-02 13:09:15.183158"	131	5.94522571666667
"S200302"	"Response_Inhibition"	"LEFT"	"Time_Max_Exceeded"	1500.04563399997	1150.0000023	n/a	n/a	n/a	n/a	n/a	n/a	n/a	"2020-03-02 13:09:16.343084"	"2020-03-02 13:09:17.845929"	132	5.94522571666667
"S200302"	"Response_Inhibition"	"RIGHT"	"RIGHT"	507.070399999975	1300.0000026	n/a	n/a	n/a	n/a	n/a	n/a	n/a	"2020-03-02 13:09:19.155010"	"2020-03-02 13:09:19.870614"	133	5.94522571666667
"S200302"	"Response_Inhibition"	"LEFT"	"LEFT"	533.15120000002	650.0000013	n/a	n/a	n/a	n/a	n/a	n/a	n/a	"2020-03-02 13:09:20.529537"	"2020-03-02 13:09:21.270785"	134	5.94522571666667
"S200302"	"Response_Inhibition"	"LEFT"	"LEFT"	489.071299999978	733.3333348	n/a	n/a	n/a	n/a	n/a	n/a	n/a	"2020-03-02 13:09:22.013442"	"2020-03-02 13:09:22.710280"	135	5.94522571666667
"S200302"	"Response_Inhibition"	"LEFT"	"LEFT"	367.388399999982	1200.0000024	n/a	n/a	n/a	n/a	n/a	n/a	n/a	"2020-03-02 13:09:23.919228"	"2020-03-02 13:09:24.494248"	136	5.94522571666667
"S200302"	"Response_Inhibition"	"RIGHT"	"Time_Max_Exceeded"	1500.05566710006	683.3333347	n/a	n/a	n/a	n/a	n/a	n/a	n/a	"2020-03-02 13:09:25.187214"	"2020-03-02 13:09:26.690363"	137	5.94522571666667
"S200302"	"Response_Inhibition"	"RIGHT"	"RIGHT"	524.833100000023	733.3333348	n/a	n/a	n/a	n/a	n/a	n/a	n/a	"2020-03-02 13:09:27.433861"	"2020-03-02 13:09:28.165636"	138	5.94522571666667
"S200302"	"Response_Inhibition"	"RIGHT"	"RIGHT"	433.258199999955	1166.666669	n/a	n/a	n/a	n/a	n/a	n/a	n/a	"2020-03-02 13:09:29.340869"	"2020-03-02 13:09:29.982418"	139	5.94522571666667
"S200302"	"Response_Inhibition"	"LEFT"	"Time_Max_Exceeded"	1500.04826699994	816.6666683	n/a	n/a	n/a	n/a	n/a	n/a	n/a	"2020-03-02 13:09:30.808804"	"2020-03-02 13:09:32.312250"	140	5.94522571666667
"S200302"	"Response_Inhibition"	"LEFT"	"LEFT"	510.655199999974	950.0000019	n/a	n/a	n/a	n/a	n/a	n/a	n/a	"2020-03-02 13:09:33.271451"	"2020-03-02 13:09:33.990650"	141	5.94522571666667
"S200302"	"Response_Inhibition"	"RIGHT"	"RIGHT"	465.422699999976	1116.6666689	n/a	n/a	n/a	n/a	n/a	n/a	n/a	"2020-03-02 13:09:35.117194"	"2020-03-02 13:09:35.790441"	142	5.94522571666667
"S200302"	"Response_Inhibition"	"LEFT"	"LEFT"	503.009600000041	1416.6666695	n/a	n/a	n/a	n/a	n/a	n/a	n/a	"2020-03-02 13:09:37.215813"	"2020-03-02 13:09:37.925463"	143	5.94522571666667
"S200302"	"Response_Inhibition"	"RIGHT"	"RIGHT"	506.137099999933	750.0000015	n/a	n/a	n/a	n/a	n/a	n/a	n/a	"2020-03-02 13:09:38.684435"	"2020-03-02 13:09:39.398750"	144	5.94522571666667
"S200302"	"Response_Inhibition"	"LEFT"	"LEFT"	603.909899999962	883.3333351	n/a	n/a	n/a	n/a	n/a	n/a	n/a	"2020-03-02 13:09:40.290250"	"2020-03-02 13:09:41.101685"	145	5.94522571666667
"S200302"	"Response_Inhibition"	"RIGHT"	"Time_Max_Exceeded"	1500.0549667	533.3333344	n/a	n/a	n/a	n/a	n/a	n/a	n/a	"2020-03-02 13:09:41.643232"	"2020-03-02 13:09:43.146758"	146	5.94522571666667
"S200302"	"Response_Inhibition"	"LEFT"	"Time_Max_Exceeded"	1500.05140040003	1000.000002	n/a	n/a	n/a	n/a	n/a	n/a	n/a	"2020-03-02 13:09:44.155784"	"2020-03-02 13:09:45.659324"	147	5.94522571666667
"S200302"	"Response_Inhibition"	"LEFT"	"Time_Max_Exceeded"	1500.0581004	1216.6666691	n/a	n/a	n/a	n/a	n/a	n/a	n/a	"2020-03-02 13:09:46.884825"	"2020-03-02 13:09:48.388057"	148	5.94522571666667
"S200302"	"Response_Inhibition"	"RIGHT"	"RIGHT"	453.457600000092	700.0000014	n/a	n/a	n/a	n/a	n/a	n/a	n/a	"2020-03-02 13:09:49.096652"	"2020-03-02 13:09:49.757600"	149	5.94522571666667
"S200302"	"Response_Inhibition"	"RIGHT"	"RIGHT"	519.272699999988	1216.6666691	n/a	n/a	n/a	n/a	n/a	n/a	n/a	"2020-03-02 13:09:50.983056"	"2020-03-02 13:09:51.711277"	150	5.94522571666667
"S200302"	"Response_Inhibition"	"RIGHT"	"Time_Max_Exceeded"	1500.05673350002	1100.0000022	n/a	n/a	n/a	n/a	n/a	n/a	n/a	"2020-03-02 13:09:52.819552"	"2020-03-02 13:09:54.322857"	151	5.94522571666667
"S200302"	"Response_Inhibition"	"RIGHT"	"RIGHT"	452.755800499977	1450.0000029	n/a	n/a	n/a	n/a	n/a	n/a	n/a	"2020-03-02 13:09:55.782604"	"2020-03-02 13:09:56.447029"	152	5.94522571666667
"S200302"	"Response_Inhibition"	"LEFT"	"LEFT"	794.697999999926	683.3333347	n/a	n/a	n/a	n/a	n/a	n/a	n/a	"2020-03-02 13:09:57.139739"	"2020-03-02 13:09:58.141427"	153	5.94522571666667
"S200302"	"Response_Inhibition"	"LEFT"	"LEFT"	662.002600000051	1466.6666696	n/a	n/a	n/a	n/a	n/a	n/a	n/a	"2020-03-02 13:09:59.616449"	"2020-03-02 13:10:00.486946"	154	5.94522571666667
"S200302"	"Response_Inhibition"	"LEFT"	"LEFT"	632.747400000085	1150.0000023	n/a	n/a	n/a	n/a	n/a	n/a	n/a	"2020-03-02 13:10:01.646010"	"2020-03-02 13:10:02.485366"	155	5.94522571666667
"S200302"	"Response_Inhibition"	"LEFT"	"LEFT"	532.385599999998	1500.000003	n/a	n/a	n/a	n/a	n/a	n/a	n/a	"2020-03-02 13:10:03.993941"	"2020-03-02 13:10:04.733717"	156	5.94522571666667
"S200302"	"Response_Inhibition"	"RIGHT"	"Time_Max_Exceeded"	1500.05053340006	783.3333349	n/a	n/a	n/a	n/a	n/a	n/a	n/a	"2020-03-02 13:10:05.525262"	"2020-03-02 13:10:07.029222"	157	5.94522571666667
"S200302"	"Response_Inhibition"	"LEFT"	"Time_Max_Exceeded"	1500.05610000005	1016.6666687	n/a	n/a	n/a	n/a	n/a	n/a	n/a	"2020-03-02 13:10:08.054818"	"2020-03-02 13:10:09.554883"	158	5.94522571666667
"S200302"	"Response_Inhibition"	"LEFT"	"LEFT"	644.429899999977	933.3333352	n/a	n/a	n/a	n/a	n/a	n/a	n/a	"2020-03-02 13:10:10.497732"	"2020-03-02 13:10:11.349622"	159	5.94522571666667
"S200302"	"Response_Inhibition"	"RIGHT"	"RIGHT"	483.739334000089	1216.6666691	n/a	n/a	n/a	n/a	n/a	n/a	n/a	"2020-03-02 13:10:12.575383"	"2020-03-02 13:10:13.271192"	160	5.94522571666667
"S200302"	"Response_Selection"	"RIGHT"	"RIGHT"	498.199800000009	1316.6666693	n/a	n/a	n/a	n/a	n/a	n/a	n/a	"2020-03-02 13:02:12.972247"	"2020-03-02 13:02:13.678934"	1	3.01893491666667
"S200302"	"Response_Selection"	"RIGHT"	"RIGHT"	371.651499999984	883.3333351	n/a	n/a	n/a	n/a	n/a	n/a	n/a	"2020-03-02 13:02:14.570808"	"2020-03-02 13:02:15.150903"	2	3.01893491666667
"S200302"	"Response_Selection"	"LEFT"	"LEFT"	376.658700000007	1166.666669	n/a	n/a	n/a	n/a	n/a	n/a	n/a	"2020-03-02 13:02:16.326406"	"2020-03-02 13:02:16.910878"	3	3.01893491666667
"S200302"	"Response_Selection"	"RIGHT"	"RIGHT"	277.123999999958	1450.0000029	n/a	n/a	n/a	n/a	n/a	n/a	n/a	"2020-03-02 13:02:18.369760"	"2020-03-02 13:02:18.853460"	4	3.01893491666667
"S200302"	"Response_Selection"	"RIGHT"	"RIGHT"	463.848600000006	1216.6666691	n/a	n/a	n/a	n/a	n/a	n/a	n/a	"2020-03-02 13:02:20.079162"	"2020-03-02 13:02:20.750726"	5	3.01893491666667
"S200302"	"Response_Selection"	"RIGHT"	"RIGHT"	316.79170000001	866.6666684	n/a	n/a	n/a	n/a	n/a	n/a	n/a	"2020-03-02 13:02:21.626153"	"2020-03-02 13:02:22.149748"	6	3.01893491666667
"S200302"	"Response_Selection"	"LEFT"	"LEFT"	339.079099999992	533.3333344	n/a	n/a	n/a	n/a	n/a	n/a	n/a	"2020-03-02 13:02:22.691880"	"2020-03-02 13:02:23.239151"	7	3.01893491666667
"S200302"	"Response_Selection"	"LEFT"	"LEFT"	346.851700000002	1300.0000026	n/a	n/a	n/a	n/a	n/a	n/a	n/a	"2020-03-02 13:02:24.547967"	"2020-03-02 13:02:25.101630"	8	3.01893491666667
"S200302"	"Response_Selection"	"RIGHT"	"RIGHT"	347.330199999988	933.3333352	n/a	n/a	n/a	n/a	n/a	n/a	n/a	"2020-03-02 13:02:26.043153"	"2020-03-02 13:02:26.597715"	9	3.01893491666667
"S200302"	"Response_Selection"	"RIGHT"	"RIGHT"	369.126999999992	1166.666669	n/a	n/a	n/a	n/a	n/a	n/a	n/a	"2020-03-02 13:02:27.773033"	"2020-03-02 13:02:28.350533"	10	3.01893491666667
"S200302"	"Response_Selection"	"LEFT"	"LEFT"	315.758699999947	1116.6666689	n/a	n/a	n/a	n/a	n/a	n/a	n/a	"2020-03-02 13:02:29.475995"	"2020-03-02 13:02:29.998599"	11	3.01893491666667
"S200302"	"Response_Selection"	"LEFT"	"LEFT"	363.599599999986	833.333335	n/a	n/a	n/a	n/a	n/a	n/a	n/a	"2020-03-02 13:02:30.843028"	"2020-03-02 13:02:31.413620"	12	3.01893491666667
"S200302"	"Response_Selection"	"LEFT"	"LEFT"	337.437999999963	1366.6666694	n/a	n/a	n/a	n/a	n/a	n/a	n/a	"2020-03-02 13:02:32.788802"	"2020-03-02 13:02:33.334355"	13	3.01893491666667
"S200302"	"Response_Selection"	"LEFT"	"LEFT"	340.933100000029	1066.6666688	n/a	n/a	n/a	n/a	n/a	n/a	n/a	"2020-03-02 13:02:34.409478"	"2020-03-02 13:02:34.959297"	14	3.01893491666667
"S200302"	"Response_Selection"	"RIGHT"	"RIGHT"	343.762900000002	983.3333353	n/a	n/a	n/a	n/a	n/a	n/a	n/a	"2020-03-02 13:02:35.950724"	"2020-03-02 13:02:36.502860"	15	3.01893491666667
"S200302"	"Response_Selection"	"RIGHT"	"RIGHT"	517.343100000005	650.0000013	n/a	n/a	n/a	n/a	n/a	n/a	n/a	"2020-03-02 13:02:37.161687"	"2020-03-02 13:02:37.886812"	16	3.01893491666667
"S200302"	"Response_Selection"	"RIGHT"	"RIGHT"	331.00589999998	1500.000003	n/a	n/a	n/a	n/a	n/a	n/a	n/a	"2020-03-02 13:02:39.395107"	"2020-03-02 13:02:39.933332"	17	3.01893491666667
"S200302"	"Response_Selection"	"LEFT"	"LEFT"	314.549399999976	1350.0000027	n/a	n/a	n/a	n/a	n/a	n/a	n/a	"2020-03-02 13:02:41.291909"	"2020-03-02 13:02:41.814530"	18	3.01893491666667
"S200302"	"Response_Selection"	"RIGHT"	"RIGHT"	278.931499999999	1416.6666695	n/a	n/a	n/a	n/a	n/a	n/a	n/a	"2020-03-02 13:02:43.239947"	"2020-03-02 13:02:43.726721"	19	3.01893491666667
"S200302"	"Response_Selection"	"RIGHT"	"RIGHT"	324.132399999996	1266.6666692	n/a	n/a	n/a	n/a	n/a	n/a	n/a	"2020-03-02 13:02:45.002884"	"2020-03-02 13:02:45.535118"	20	3.01893491666667
"S200302"	"Response_Selection"	"RIGHT"	"RIGHT"	339.039899999989	683.3333347	n/a	n/a	n/a	n/a	n/a	n/a	n/a	"2020-03-02 13:02:46.227890"	"2020-03-02 13:02:46.774432"	21	3.01893491666667
"S200302"	"Response_Selection"	"RIGHT"	"RIGHT"	302.965200000017	1016.6666687	n/a	n/a	n/a	n/a	n/a	n/a	n/a	"2020-03-02 13:02:47.799916"	"2020-03-02 13:02:48.309571"	22	3.01893491666667
"S200302"	"Response_Selection"	"LEFT"	"LEFT"	316.585500000031	683.3333347	n/a	n/a	n/a	n/a	n/a	n/a	n/a	"2020-03-02 13:02:49.002085"	"2020-03-02 13:02:49.526805"	23	3.01893491666667
"S200302"	"Response_Selection"	"RIGHT"	"RIGHT"	308.414099999993	1466.6666696	n/a	n/a	n/a	n/a	n/a	n/a	n/a	"2020-03-02 13:02:51.002602"	"2020-03-02 13:02:51.519228"	24	3.01893491666667
"S200302"	"Response_Selection"	"RIGHT"	"RIGHT"	382.853099999977	1400.0000028	n/a	n/a	n/a	n/a	n/a	n/a	n/a	"2020-03-02 13:02:52.927583"	"2020-03-02 13:02:53.519040"	25	3.01893491666667
"S200302"	"Response_Selection"	"RIGHT"	"RIGHT"	331.913399999962	1083.3333355	n/a	n/a	n/a	n/a	n/a	n/a	n/a	"2020-03-02 13:02:54.610566"	"2020-03-02 13:02:55.150889"	26	3.01893491666667
"S200302"	"Response_Selection"	"LEFT"	"LEFT"	310.166100000004	633.3333346	n/a	n/a	n/a	n/a	n/a	n/a	n/a	"2020-03-02 13:02:55.792346"	"2020-03-02 13:02:56.310831"	27	3.01893491666667
"S200302"	"Response_Selection"	"RIGHT"	"RIGHT"	325.797300000033	633.3333346	n/a	n/a	n/a	n/a	n/a	n/a	n/a	"2020-03-02 13:02:56.952211"	"2020-03-02 13:02:57.485583"	28	3.01893491666667
"S200302"	"Response_Selection"	"RIGHT"	"RIGHT"	305.796200000032	966.6666686	n/a	n/a	n/a	n/a	n/a	n/a	n/a	"2020-03-02 13:02:58.461254"	"2020-03-02 13:02:58.973719"	29	3.01893491666667
"S200302"	"Response_Selection"	"RIGHT"	"RIGHT"	330.863599999986	733.3333348	n/a	n/a	n/a	n/a	n/a	n/a	n/a	"2020-03-02 13:02:59.715418"	"2020-03-02 13:03:00.254763"	30	3.01893491666667
"S200302"	"Response_Selection"	"LEFT"	"LEFT"	321.257800000012	750.0000015	n/a	n/a	n/a	n/a	n/a	n/a	n/a	"2020-03-02 13:03:01.013003"	"2020-03-02 13:03:01.542667"	31	3.01893491666667
"S200302"	"Response_Selection"	"LEFT"	"LEFT"	363.080099999991	700.0000014	n/a	n/a	n/a	n/a	n/a	n/a	n/a	"2020-03-02 13:03:02.250938"	"2020-03-02 13:03:02.822364"	32	3.01893491666667
"S200302"	"Response_Selection"	"RIGHT"	"RIGHT"	478.658999999993	1250.0000025	n/a	n/a	n/a	n/a	n/a	n/a	n/a	"2020-03-02 13:03:04.081310"	"2020-03-02 13:03:04.767688"	33	3.01893491666667
"S200302"	"Response_Selection"	"LEFT"	"LEFT"	362.501199999997	1500.000003	n/a	n/a	n/a	n/a	n/a	n/a	n/a	"2020-03-02 13:03:06.276000"	"2020-03-02 13:03:06.847233"	34	3.01893491666667
"S200302"	"Response_Selection"	"LEFT"	"LEFT"	333.601199999976	1033.3333354	n/a	n/a	n/a	n/a	n/a	n/a	n/a	"2020-03-02 13:03:07.889537"	"2020-03-02 13:03:08.430390"	35	3.01893491666667
"S200302"	"Response_Selection"	"LEFT"	"LEFT"	357.073000000014	1266.6666692	n/a	n/a	n/a	n/a	n/a	n/a	n/a	"2020-03-02 13:03:09.705544"	"2020-03-02 13:03:10.271302"	36	3.01893491666667
"S200302"	"Response_Selection"	"LEFT"	"LEFT"	323.103000000003	1466.6666696	n/a	n/a	n/a	n/a	n/a	n/a	n/a	"2020-03-02 13:03:11.747309"	"2020-03-02 13:03:12.278707"	37	3.01893491666667
"S200302"	"Response_Selection"	"RIGHT"	"RIGHT"	308.673199999987	1066.6666688	n/a	n/a	n/a	n/a	n/a	n/a	n/a	"2020-03-02 13:03:13.353883"	"2020-03-02 13:03:13.870018"	38	3.01893491666667
"S200302"	"Response_Selection"	"LEFT"	"LEFT"	306.70889999999	733.3333348	n/a	n/a	n/a	n/a	n/a	n/a	n/a	"2020-03-02 13:03:14.611995"	"2020-03-02 13:03:15.126666"	39	3.01893491666667
"S200302"	"Response_Selection"	"LEFT"	"LEFT"	327.963599999975	783.3333349	n/a	n/a	n/a	n/a	n/a	n/a	n/a	"2020-03-02 13:03:15.919061"	"2020-03-02 13:03:16.454937"	40	3.01893491666667
"S200302"	"Response_Selection"	"RIGHT"	"RIGHT"	375.692800000024	1366.6666694	n/a	n/a	n/a	n/a	n/a	n/a	n/a	"2020-03-02 13:03:17.831347"	"2020-03-02 13:03:18.416116"	41	3.01893491666667
"S200302"	"Response_Selection"	"LEFT"	"LEFT"	330.904699999962	1083.3333355	n/a	n/a	n/a	n/a	n/a	n/a	n/a	"2020-03-02 13:03:19.508077"	"2020-03-02 13:03:20.046854"	42	3.01893491666667
"S200302"	"Response_Selection"	"RIGHT"	"RIGHT"	281.167799999992	1350.0000027	n/a	n/a	n/a	n/a	n/a	n/a	n/a	"2020-03-02 13:03:21.405309"	"2020-03-02 13:03:21.895096"	43	3.01893491666667
"S200302"	"Response_Selection"	"LEFT"	"LEFT"	301.328399999989	1416.6666695	n/a	n/a	n/a	n/a	n/a	n/a	n/a	"2020-03-02 13:03:23.321323"	"2020-03-02 13:03:23.829520"	44	3.01893491666667
"S200302"	"Response_Selection"	"RIGHT"	"RIGHT"	345.359700000017	783.3333349	n/a	n/a	n/a	n/a	n/a	n/a	n/a	"2020-03-02 13:03:24.620878"	"2020-03-02 13:03:25.174429"	45	3.01893491666667
"S200302"	"Response_Selection"	"RIGHT"	"RIGHT"	354.15260000002	1133.3333356	n/a	n/a	n/a	n/a	n/a	n/a	n/a	"2020-03-02 13:03:26.316236"	"2020-03-02 13:03:26.877571"	46	3.01893491666667
"S200302"	"Response_Selection"	"LEFT"	"LEFT"	307.117000000005	1133.3333356	n/a	n/a	n/a	n/a	n/a	n/a	n/a	"2020-03-02 13:03:28.019171"	"2020-03-02 13:03:28.534812"	47	3.01893491666667
"S200302"	"Response_Selection"	"LEFT"	"LEFT"	341.425500000014	1250.0000025	n/a	n/a	n/a	n/a	n/a	n/a	n/a	"2020-03-02 13:03:29.792957"	"2020-03-02 13:03:30.342929"	48	3.01893491666667
"S200302"	"Response_Selection"	"LEFT"	"LEFT"	298.112199999991	1316.6666693	n/a	n/a	n/a	n/a	n/a	n/a	n/a	"2020-03-02 13:03:31.668830"	"2020-03-02 13:03:32.175072"	49	3.01893491666667
"S200302"	"Response_Selection"	"LEFT"	"LEFT"	426.535900000033	500.000001	n/a	n/a	n/a	n/a	n/a	n/a	n/a	"2020-03-02 13:03:32.683711"	"2020-03-02 13:03:33.319049"	50	3.01893491666667
"S200302"	"Response_Selection"	"LEFT"	"LEFT"	290.555900000015	916.6666685	n/a	n/a	n/a	n/a	n/a	n/a	n/a	"2020-03-02 13:03:34.243919"	"2020-03-02 13:03:34.742590"	51	3.01893491666667
"S200302"	"Response_Selection"	"LEFT"	"LEFT"	317.148299999985	650.0000013	n/a	n/a	n/a	n/a	n/a	n/a	n/a	"2020-03-02 13:03:35.401673"	"2020-03-02 13:03:35.926815"	52	3.01893491666667
"S200302"	"Response_Selection"	"LEFT"	"LEFT"	327.80120000001	983.3333353	n/a	n/a	n/a	n/a	n/a	n/a	n/a	"2020-03-02 13:03:36.918671"	"2020-03-02 13:03:37.455252"	53	3.01893491666667
"S200302"	"Response_Selection"	"LEFT"	"LEFT"	307.965000000024	866.6666684	n/a	n/a	n/a	n/a	n/a	n/a	n/a	"2020-03-02 13:03:38.330928"	"2020-03-02 13:03:38.845588"	54	3.01893491666667
"S200302"	"Response_Selection"	"RIGHT"	"RIGHT"	332.321100000001	500.000001	n/a	n/a	n/a	n/a	n/a	n/a	n/a	"2020-03-02 13:03:39.354197"	"2020-03-02 13:03:39.895199"	55	3.01893491666667
"S200302"	"Response_Selection"	"RIGHT"	"RIGHT"	357.647100000008	833.333335	n/a	n/a	n/a	n/a	n/a	n/a	n/a	"2020-03-02 13:03:40.737131"	"2020-03-02 13:03:41.302650"	56	3.01893491666667
"S200302"	"Response_Selection"	"RIGHT"	"RIGHT"	352.188600000034	583.3333345	n/a	n/a	n/a	n/a	n/a	n/a	n/a	"2020-03-02 13:03:41.894061"	"2020-03-02 13:03:42.453681"	57	3.01893491666667
"S200302"	"Response_Selection"	"RIGHT"	"RIGHT"	298.668499999962	533.3333344	n/a	n/a	n/a	n/a	n/a	n/a	n/a	"2020-03-02 13:03:42.995737"	"2020-03-02 13:03:43.502916"	58	3.01893491666667
"S200302"	"Response_Selection"	"RIGHT"	"RIGHT"	318.832500000042	1200.0000024	n/a	n/a	n/a	n/a	n/a	n/a	n/a	"2020-03-02 13:03:44.711821"	"2020-03-02 13:03:45.237537"	59	3.01893491666667
"S200302"	"Response_Selection"	"LEFT"	"LEFT"	391.370999999992	1216.6666691	n/a	n/a	n/a	n/a	n/a	n/a	n/a	"2020-03-02 13:03:46.462625"	"2020-03-02 13:03:47.063115"	60	3.01893491666667
"S200302"	"Response_Selection"	"LEFT"	"LEFT"	320.214600000043	966.6666686	n/a	n/a	n/a	n/a	n/a	n/a	n/a	"2020-03-02 13:03:48.038238"	"2020-03-02 13:03:48.568299"	61	3.01893491666667
"S200302"	"Response_Selection"	"RIGHT"	"RIGHT"	289.618099999984	1300.0000026	n/a	n/a	n/a	n/a	n/a	n/a	n/a	"2020-03-02 13:03:49.877150"	"2020-03-02 13:03:50.374331"	62	3.01893491666667
"S200302"	"Response_Selection"	"LEFT"	"LEFT"	527.093400000012	800.0000016	n/a	n/a	n/a	n/a	n/a	n/a	n/a	"2020-03-02 13:03:51.183465"	"2020-03-02 13:03:51.917698"	63	3.01893491666667
"S200302"	"Response_Selection"	"RIGHT"	"RIGHT"	360.341199999993	800.0000016	n/a	n/a	n/a	n/a	n/a	n/a	n/a	"2020-03-02 13:03:52.726258"	"2020-03-02 13:03:53.294902"	64	3.01893491666667
"S200302"	"Response_Selection"	"RIGHT"	"RIGHT"	320.586400000025	750.0000015	n/a	n/a	n/a	n/a	n/a	n/a	n/a	"2020-03-02 13:03:54.053897"	"2020-03-02 13:03:54.581683"	65	3.01893491666667
"S200302"	"Response_Selection"	"LEFT"	"LEFT"	328.326699999991	600.0000012	n/a	n/a	n/a	n/a	n/a	n/a	n/a	"2020-03-02 13:03:55.190366"	"2020-03-02 13:03:55.727083"	66	3.01893491666667
"S200302"	"Response_Selection"	"LEFT"	"LEFT"	367.702399999985	583.3333345	n/a	n/a	n/a	n/a	n/a	n/a	n/a	"2020-03-02 13:03:56.318571"	"2020-03-02 13:03:56.893636"	67	3.01893491666667
"S200302"	"Response_Selection"	"LEFT"	"LEFT"	345.554399999969	933.3333352	n/a	n/a	n/a	n/a	n/a	n/a	n/a	"2020-03-02 13:03:57.836579"	"2020-03-02 13:03:58.391203"	68	3.01893491666667
"S200302"	"Response_Selection"	"LEFT"	"LEFT"	326.750500000003	1400.0000028	n/a	n/a	n/a	n/a	n/a	n/a	n/a	"2020-03-02 13:03:59.799608"	"2020-03-02 13:04:00.335506"	69	3.01893491666667
"S200302"	"Response_Selection"	"RIGHT"	"RIGHT"	317.204599999968	1033.3333354	n/a	n/a	n/a	n/a	n/a	n/a	n/a	"2020-03-02 13:04:01.377614"	"2020-03-02 13:04:01.901739"	70	3.01893491666667
"S200302"	"Response_Selection"	"LEFT"	"LEFT"	280.460500000004	1200.0000024	n/a	n/a	n/a	n/a	n/a	n/a	n/a	"2020-03-02 13:04:03.110136"	"2020-03-02 13:04:03.598650"	71	3.01893491666667
"S200302"	"Response_Selection"	"RIGHT"	"RIGHT"	353.549699999974	550.0000011	n/a	n/a	n/a	n/a	n/a	n/a	n/a	"2020-03-02 13:04:04.157106"	"2020-03-02 13:04:04.718386"	72	3.01893491666667
"S200302"	"Response_Selection"	"LEFT"	"LEFT"	351.183100000014	1016.6666687	n/a	n/a	n/a	n/a	n/a	n/a	n/a	"2020-03-02 13:04:05.743108"	"2020-03-02 13:04:06.301455"	73	3.01893491666667
"S200302"	"Response_Selection"	"RIGHT"	"RIGHT"	340.488199999982	700.0000014	n/a	n/a	n/a	n/a	n/a	n/a	n/a	"2020-03-02 13:04:07.010550"	"2020-03-02 13:04:07.558627"	74	3.01893491666667
"S200302"	"Response_Selection"	"RIGHT"	"RIGHT"	345.277699999997	916.6666685	n/a	n/a	n/a	n/a	n/a	n/a	n/a	"2020-03-02 13:04:08.485628"	"2020-03-02 13:04:09.038508"	75	3.01893491666667
"S200302"	"Response_Selection"	"LEFT"	"LEFT"	361.615500000028	550.0000011	n/a	n/a	n/a	n/a	n/a	n/a	n/a	"2020-03-02 13:04:09.596681"	"2020-03-02 13:04:10.167069"	76	3.01893491666667
"S200302"	"Response_Selection"	"RIGHT"	"RIGHT"	446.953899999983	600.0000012	n/a	n/a	n/a	n/a	n/a	n/a	n/a	"2020-03-02 13:04:10.775829"	"2020-03-02 13:04:11.430700"	77	3.01893491666667
"S200302"	"Response_Selection"	"LEFT"	"LEFT"	317.564399999981	1450.0000029	n/a	n/a	n/a	n/a	n/a	n/a	n/a	"2020-03-02 13:04:12.889322"	"2020-03-02 13:04:13.415109"	78	3.01893491666667
"S200302"	"Response_Selection"	"RIGHT"	"RIGHT"	306.15499999999	1116.6666689	n/a	n/a	n/a	n/a	n/a	n/a	n/a	"2020-03-02 13:04:14.540027"	"2020-03-02 13:04:15.053533"	79	3.01893491666667
"S200302"	"Response_Selection"	"LEFT"	"LEFT"	341.010700000027	883.3333351	n/a	n/a	n/a	n/a	n/a	n/a	n/a	"2020-03-02 13:04:15.945365"	"2020-03-02 13:04:16.495094"	80	3.01893491666667
