index	Trial_Type	Participant_ID	Trial_Probability	Question_Position_Prediction_Correct	Question_Position_Prediction_Agent	Question_Position_Comparison_Self	Question_Position_Comparison_Irrelevant	Trial_Stake	Trial_Stake_Jitter	Trial_Type_Jitter	Trial_Result_Jitter	Balance_Update_Jitter	Question_Comparison_Condition	Question_Comparison_Type	Question_Comparison_Question	Question_Comparison_Label	Question_Comparison_Item	Question_Comparison_Proportion_Yes	Question_Factual_Condition	Question_Factual_Item	Question_Factual_Question	Question_Factual_Label	Question_Factual_Proportion_DontKnow	Question_Factual_Type	Answer_Prediction_Agent	Answer_Prediction_Agent_RT	Answer_Prediction_Correct	Answer_Prediction_Correct_RT	Answer_Self	Answer_Self_RT	Answer_Irrelevant	Answer_Irrelevant_RT	Trial_Balance	Trial_Balance_Effect	Trial_Condition	Trial_ProbableSide	Prediction_Choice	Prediction_Result	Prediction_RT	Trial_Order	Trial_Datetime
89	Self	S200302	0.8333333333333334	2	1	1	2	0.5	1500.000003	1500.000003	2066.6666708	2216.6666711000003	Major	Good_deeds	13	You have engaged in arson	C2_47	0.9	Easy	I1_48	59	The Seine river is 50 feet above sea level	0.944444444444444	Yes	RIGHT	1093.5618999999974	LEFT	720.2024999999708	LEFT	1086.9678999999903	RIGHT	1575.6457000000523	9.5	0.5	Probable_Lie	RIGHT	RIGHT	1	607.6582999999687	0	2020-03-02 13:36:55.842423
60	Self	S200302	0.5	2	1	2	1	0.3	1150.0000023	1350.0000027	2216.6666711000003	2066.6666708	Major	Good_deeds	53	You have stolen something	C1_9	0.7	Hard	I2_48	21	Statute of Liberty is in New York	0.0	Yes	RIGHT	1079.745100000025	LEFT	1680.3969999999708	LEFT	1008.8355999999976	RIGHT	1309.2326999999957	9.2	0.3	Probable_Lie	RIGHT	RIGHT	2	1484.7184999999854	1	2020-03-02 13:37:21.762734
34	Self	S200302	0.8333333333333334	1	2	1	2	0.1	1150.0000023	1066.6666688	2350.0000047	2350.0000047	Minor	Wrong_doings	50	You have adopted a zero-waste lifestyle	C2_50	0.0	Hard	I1_27	15	Nanyang Technological University is in Australia	0.111111111111111	No	RIGHT	464.25569999996696	RIGHT	732.5759000000289	RIGHT	1995.3931999999668	LEFT	2047.0017000000096	9.3	0.1	Probable_Truth	LEFT	LEFT	1	985.3421000000252	2	2020-03-02 13:37:47.475484
62	Self	S200302	0.5	2	1	2	1	0.7	1216.6666691	1216.6666691	1500.000003	1933.3333372	Minor	Wrong_doings	9	You have taken responsibility for your actions	C2_20	0.65	Easy	I1_58	17	There are 6 million animal species on Earth	0.0555555555555556	No	RIGHT	908.0541000000152	LEFT	808.4022000000459	RIGHT	2999.237999999991	LEFT	2037.560699999972	8.6	0.7	Probable_Lie	LEFT	LEFT	6	1285.532699999976	3	2020-03-02 13:38:13.955135
52	Self	S200302	0.5	1	2	2	1	0.4	1150.0000023	1000.000002	2216.6666711000003	1500.000003	Minor	Wrong_doings	31	You have violated a traffic law	C2_13	0.95	Hard	I1_47	25	It takes 500 days to travel from Earth to Mars	0.0555555555555556	No	RIGHT	751.6501000000062	RIGHT	775.5138999999645	LEFT	1662.4215999999024	RIGHT	3263.4579999999005	9.0	0.4	Probable_Lie	LEFT	RIGHT	2	1073.4373999999889	4	2020-03-02 13:38:39.922518
142	Computer	S200302	0.8333333333333334	2	1	2	1	0.4	1066.6666688	1500.000003	2066.6666708	2350.0000047	Major	Wrong_doings	43	You have kept your promises	C2_28	0.0	Hard	I2_49	39	Astatine is the rarest element in the Earth's crust	0.888888888888889	Yes	LEFT	793.0084999999281	RIGHT	969.3459999999732	RIGHT	2648.627999999917	RIGHT	4475.980899999968	9.0	0.4	Probable_Truth	RIGHT	RIGHT	6	934.9400892536288	5	2020-03-02 13:39:09.292012
91	Self	S200302	0.8333333333333334	2	1	1	2	0.6	1150.0000023	1283.3333359	2216.6666711000003	2066.6666708	Minor	Wrong_doings	40	You have followed instructions	C2_14	0.95	Easy	I2_4	24	North Korea is more developed than South Korea	0.944444444444444	Yes	RIGHT	774.6566999999231	RIGHT	935.5251000000636	RIGHT	1518.253800000025	LEFT	2175.649700000008	9.6	0.6	Probable_Truth	RIGHT	RIGHT	2	856.5576999999394	6	2020-03-02 13:39:34.842817
61	Self	S200302	0.5	2	1	2	1	0.4	1433.3333362	1150.0000023	1650.0000033	2500.000005	Minor	Good_deeds	34	You have volunteered for a disaster-related humanitarian mission	C1_58	0.0	Easy	I1_31	11	There are 7 days in a week	0.0555555555555556	Yes	RIGHT	878.6858999999367	RIGHT	432.4464999999691	RIGHT	1476.573599999938	RIGHT	1109.6028000000615	10.0	0.4	Probable_Lie	RIGHT	RIGHT	1	871.3142000000289	7	2020-03-02 13:39:58.922912
68	Self	S200302	0.6666666666666666	1	2	2	1	0.2	1150.0000023	1000.000002	1500.000003	2216.6666711000003	Minor	Wrong_doings	42	You have provided shelter for stray animals	C1_35	0.55	Easy	I2_44	46	Brazil is in South America	0.666666666666667	Yes	RIGHT	632.4951000000283	RIGHT	445.4085999999506	RIGHT	1080.205699999965	RIGHT	3033.489500000087	10.2	0.2	Probable_Lie	RIGHT	RIGHT	1	817.5343000000339	8	2020-03-02 13:40:23.371251
41	Self	S200302	0.8333333333333334	2	1	1	2	0.8	1000.000002	1283.3333359	1933.3333372	1783.3333369	Major	Good_deeds	30	You have made counterfeit money	C1_23	0.05	Easy	I1_13	29	February has 30 days	0.0	No	RIGHT	709.3330999999807	RIGHT	528.331499999922	LEFT	1179.1438999999857	LEFT	1631.2749999999596	11.0	0.8	Probable_Lie	RIGHT	RIGHT	1	901.6570999999658	9	2020-03-02 13:40:46.891895
124	Computer	S200302	0.6666666666666666	2	1	2	1	0.4	1150.0000023	1433.3333362	2066.6666708	1783.3333369	Major	Good_deeds	48	You have said sorry when you were rude	C2_48	0.25	Hard	I2_12	12	China is a part of Asia	0.666666666666667	Yes	RIGHT	944.061300000044	RIGHT	521.020099999987	RIGHT	1591.2660999999844	RIGHT	1611.9130999999245	11.4	0.4	Probable_Lie	RIGHT	LEFT	5	899.2061776934233	10	2020-03-02 13:41:11.458146
17	Self	S200302	0.6666666666666666	1	2	1	2	0.7	1216.6666691	1433.3333362	1783.3333369	2350.0000047	Major	Good_deeds	48	You have cursed at others	C2_6	1.0	Easy	I1_8	12	Chickens lay eggs	0.666666666666667	Yes	RIGHT	487.9845000000387	RIGHT	555.200799999966	RIGHT	1949.223699999948	RIGHT	1209.264800000028	12.1	0.7	Probable_Truth	RIGHT	RIGHT	5	1202.244900000096	11	2020-03-02 13:41:36.210449
119	Computer	S200302	0.6666666666666666	1	2	2	1	0.3	1216.6666691	1066.6666688	1500.000003	1500.000003	Minor	Wrong_doings	38	You have lied to your parents	C2_45	0.0	Easy	I1_38	2	Pyramid of Giza is 468 feet tall	0.0	Yes	RIGHT	399.6973999999227	RIGHT	791.080500000021	LEFT	1496.3392000000797	RIGHT	2422.5377999999864	12.4	0.3	Probable_Lie	LEFT	LEFT	6	723.6460070828746	12	2020-03-02 13:41:59.890364
20	Self	S200302	0.6666666666666666	1	2	2	1	0.6	1150.0000023	1066.6666688	1933.3333372	2066.6666708	Major	Good_deeds	33	You have taken part in burglary	C2_33	0.15	Hard	I1_12	6	Beer is an alcoholic drink	0.0	No	RIGHT	473.301900000024	RIGHT	539.725800000042	LEFT	1111.4553999999544	RIGHT	2639.8552000000564	13.0	0.6	Probable_Lie	LEFT	LEFT	3	522.1918999999389	13	2020-03-02 13:42:23.962624
129	Computer	S200302	0.8333333333333334	1	2	1	2	0.6	1216.6666691	1350.0000027	1650.0000033	2350.0000047	Major	Good_deeds	11	You have donated blood every 6 months for many years	C1_37	0.0	Easy	I2_28	33	The hyoid bone is the only jointless bone	1.0	Yes	RIGHT	344.05359999993834	RIGHT	599.4349999999713	RIGHT	2235.7200999999804	LEFT	4128.494899999964	13.6	0.6	Probable_Lie	LEFT	RIGHT	1	715.2241841209712	14	2020-03-02 13:42:51.123997
134	Computer	S200302	0.8333333333333334	1	2	2	1	0.7	1500.000003	1283.3333359	1500.000003	2500.000005	Major	Wrong_doings	12	You have sold illegal drugs	C1_11	0.05	Easy	I2_5	28	Arabi is the oldest surviving breed of horse	0.888888888888889	Yes	RIGHT	319.3267999999989	RIGHT	662.3256999999967	LEFT	1351.7593999999915	RIGHT	2119.013599999903	14.3	0.7	Probable_Lie	LEFT	LEFT	5	918.9902786977176	15	2020-03-02 13:43:15.842327
117	Computer	S200302	0.6666666666666666	1	2	2	1	0.5	1150.0000023	1216.6666691	1783.3333369	1650.0000033	Minor	Good_deeds	45	You have lost everything just to help others	C1_38	0.0	Easy	I1_53	53	Milwaukee Art Museum is located in California	0.722222222222222	No	RIGHT	527.5914000000057	RIGHT	896.4509000001044	LEFT	2533.9391999999634	RIGHT	2985.6690999999955	14.8	0.5	Probable_Lie	RIGHT	LEFT	6	758.0043528411253	16	2020-03-02 13:43:41.907463
126	Computer	S200302	0.6666666666666666	2	1	2	1	0.5	1433.3333362	1150.0000023	2500.000005	1933.3333372	Major	Good_deeds	43	You have drunk alcohol when you were underage	C2_8	0.95	Easy	I1_36	46	Airbags in cars are filled with sodium azide	0.0	Yes	RIGHT	495.11580000000777	RIGHT	296.6853000000356	LEFT	1773.617299999955	RIGHT	2387.2892999999067	15.3	0.5	Probable_Lie	RIGHT	LEFT	4	672.2222857883434	17	2020-03-02 13:44:07.114078
16	Self	S200302	0.6666666666666666	1	2	1	2	0.3	1283.3333359	1500.000003	2350.0000047	1933.3333372	Minor	Good_deeds	1	You have kidnapped someone	C1_28	0.85	Hard	I2_6	8	There are 30 hours in a day	0.0	Yes	RIGHT	504.2239999999083	RIGHT	483.7138000000323	LEFT	1076.943300000039	LEFT	1102.0101000000295	15.6	0.3	Probable_Lie	LEFT	LEFT	3	1235.5019000000311	18	2020-03-02 13:44:31.154803
127	Computer	S200302	0.6666666666666666	2	1	2	1	0.2	1283.3333359	1066.6666688	2216.6666711000003	1500.000003	Major	Good_deeds	30	You have watched a pirated movie	C2_19	0.55	Easy	I2_30	36	Dutch is the 6th Europe's most widely spoken language	0.166666666666667	No	RIGHT	1333.3092000000306	RIGHT	1080.20010000007	LEFT	2983.2238999999845	Time_Max_Exceeded	5000.142700000083	15.8	0.2	Probable_Lie	LEFT	LEFT	5	878.9210724270011	19	2020-03-02 13:45:01.066360
122	Computer	S200302	0.6666666666666666	2	1	1	2	0.6	1216.6666691	1216.6666691	1933.3333372	2500.000005	Minor	Wrong_doings	39	You have blackmailed others for money	C1_6	0.0	Hard	I1_23	16	The Moon orbits around the Earth	0.833333333333333	Yes	LEFT	756.5296999999873	LEFT	1359.629400000017	LEFT	1990.375399999948	RIGHT	1663.5307999999895	15.8	0.6	Probable_Lie	RIGHT	LEFT	6	529.3930496012156	20	2020-03-02 13:45:26.802826
36	Self	S200302	0.8333333333333334	1	2	2	1	0.5	1216.6666691	1000.000002	2216.6666711000003	2500.000005	Minor	Good_deeds	37	You have pretended to be busy to avoid a social situation	C2_24	1.0	Hard	I1_54	54	There are 10 continents in the World	0.944444444444444	Yes	RIGHT	335.3366000000051	RIGHT	639.6991000000298	LEFT	1904.070000000047	LEFT	2486.8602999999894	16.299999999999997	0.5	Probable_Truth	LEFT	LEFT	1	695.2886999999919	21	2020-03-02 13:45:52.372862
73	Self	S200302	0.6666666666666666	2	1	1	2	0.5	1150.0000023	1350.0000027	2216.6666711000003	2216.6666711000003	Minor	Good_deeds	17	You have started a hotline for victims of bully	C2_39	0.0	Easy	I1_50	9	The sun rises at night	0.0	Yes	RIGHT	665.0018000000273	RIGHT	481.0311999999613	LEFT	1847.7709000000004	LEFT	1576.171600000066	16.799999999999997	0.5	Probable_Lie	RIGHT	RIGHT	2	960.5294000000412	22	2020-03-02 13:46:17.410180
43	Self	S200302	0.8333333333333334	2	1	1	2	0.1	1150.0000023	1216.6666691	1650.0000033	1500.000003	Major	Wrong_doings	37	You have held the door open for a stranger	C1_22	0.5	Hard	I1_41	13	A triangle has three sides	0.888888888888889	Yes	RIGHT	1086.1970999999355	LEFT	857.0704999999634	RIGHT	1102.3919000000433	RIGHT	926.2779000000592	16.699999999999996	0.1	Probable_Lie	RIGHT	RIGHT	1	1202.9722999999422	23	2020-03-02 13:46:40.674752
110	Computer	S200302	0.5	2	1	2	1	0.7	1216.6666691	1150.0000023	1650.0000033	1650.0000033	Minor	Wrong_doings	42	You have thrown your trash into the bin	C2_31	1.0	Easy	I2_8	34	Saturn's rings are between 30 and 300 feet thick	0.0	No	RIGHT	906.2562000001436	RIGHT	511.5439000001061	RIGHT	1047.907099999975	RIGHT	2110.2598999998463	17.399999999999995	0.7	Probable_Lie	LEFT	RIGHT	3	968.6847999619092	24	2020-03-02 13:47:04.458438
44	Self	S200302	0.8333333333333334	2	1	2	1	0.3	1283.3333359	1066.6666688	2500.000005	1650.0000033	Minor	Good_deeds	28	You have fabricated facts about yourself	C2_46	0.85	Easy	I1_39	41	Summer is hotter than winter	0.0	Yes	RIGHT	612.874500000089	RIGHT	400.1607000000149	LEFT	1447.393099999999	RIGHT	2976.0125999998763	17.699999999999996	0.3	Probable_Truth	RIGHT	RIGHT	6	716.1912999999913	25	2020-03-02 13:47:29.682116
57	Self	S200302	0.5	2	1	1	2	0.8	1283.3333359	1500.000003	1783.3333369	1783.3333369	Minor	Good_deeds	1	You have used heroin	C2_7	0.05	Easy	I1_21	31	Last day of the year is 30th December	0.944444444444444	No	RIGHT	642.0160000000124	RIGHT	382.5161999998272	LEFT	1290.9695999999258	LEFT	2007.5217999999493	18.5	0.8	Probable_Lie	RIGHT	RIGHT	2	1051.3929999999618	26	2020-03-02 13:47:53.978490
5	Self	S200302	0.5	1	2	2	1	0.4	1216.6666691	1000.000002	1650.0000033	1933.3333372	Major	Wrong_doings	47	You have borrowed things and never returned	C1_34	0.05	Easy	I1_57	54	Teddy Roosevelt was the youngest US President	0.0	No	RIGHT	415.6593000000157	RIGHT	477.2361999998793	LEFT	1375.4186999999547	RIGHT	3537.577199999987	18.899999999999995	0.4	Probable_Truth	LEFT	RIGHT	5	842.1731000000818	27	2020-03-02 13:48:19.002532
86	Self	S200302	0.8333333333333334	1	2	2	1	0.2	1150.0000023	1066.6666688	1783.3333369	1650.0000033	Major	Wrong_doings	52	You have eaten something in the MRT train	C2_27	0.85	Hard	I1_5	25	Cernan was the second last man to walk on the Moon	0.0	No	RIGHT	472.2355000001244	RIGHT	530.3522000001522	LEFT	2263.4276000001137	LEFT	3839.451299999837	19.099999999999994	0.2	Probable_Truth	RIGHT	RIGHT	5	817.3874000001433	28	2020-03-02 13:48:45.148993
136	Computer	S200302	0.8333333333333334	2	1	1	2	0.1	1283.3333359	1433.3333362	1650.0000033	1500.000003	Minor	Wrong_doings	23	You have rescued others from a catastrophe	C1_43	0.85	Hard	I2_60	36	"Statue of Liberty is 151 feet tall"	0.0	Yes	LEFT	834.8660999999993	LEFT	743.5452999998233	RIGHT	2293.0417000000034	RIGHT	1990.9245999999712	19.099999999999994	0.1	Probable_Lie	LEFT	RIGHT	1	728.7573441448048	29	2020-03-02 13:49:10.178365
116	Computer	S200302	0.6666666666666666	1	2	2	1	0.1	1433.3333362	1283.3333359	2500.000005	1933.3333372	Major	Good_deeds	33	You have taken part in burglary	C2_33	0.15	Hard	I1_12	6	Beer is an alcoholic drink	0.0	No	LEFT	616.3836999999148	LEFT	907.5159999999868	LEFT	1143.672899999956	RIGHT	1093.6335999999756	19.099999999999994	0.1	Probable_Lie	LEFT	LEFT	5	781.5429694925135	30	2020-03-02 13:49:34.442279
11	Self	S200302	0.5	2	1	1	2	0.8	1283.3333359	1500.000003	1650.0000033	1650.0000033	Minor	Good_deeds	31	You have risked your life to save another person's life	C2_23	0.0	Easy	I1_40	2	Polish is 20th most spoken language in the World	0.833333333333333	Yes	RIGHT	543.7440000000606	RIGHT	711.169800000107	RIGHT	1184.4430000001012	RIGHT	1647.4682000000485	19.899999999999995	0.8	Probable_Truth	RIGHT	RIGHT	4	843.0444000000534	31	2020-03-02 13:49:58.026422
70	Self	S200302	0.6666666666666666	1	2	2	1	0.3	1000.000002	1500.000003	2216.6666711000003	1933.3333372	Major	Wrong_doings	35	You have been physically hurt to protect others	C1_42	0.95	Hard	I2_40	37	Penguin can fly with their wings	0.833333333333333	No	RIGHT	272.2360000000208	RIGHT	399.5531999999002	RIGHT	1528.0291999999918	LEFT	1204.3808999999328	20.2	0.3	Probable_Truth	RIGHT	RIGHT	5	839.7472999999991	32	2020-03-02 13:50:21.490516
95	Self	S200302	0.8333333333333334	2	1	2	1	0.1	1216.6666691	1000.000002	1783.3333369	1783.3333369	Minor	Wrong_doings	3	You have stopped using plastics completely	C2_40	0.0	Easy	I2_59	28	Septicemia is a lung infection condition	1.0	No	RIGHT	681.8011000000297	RIGHT	608.6422000000766	LEFT	2176.3266999998905	RIGHT	1755.133399999977	20.3	0.1	Probable_Truth	LEFT	LEFT	1	1086.0949000000346	33	2020-03-02 13:50:46.154684
64	Self	S200302	0.6666666666666666	1	2	1	2	0.8	1350.0000027	1350.0000027	2350.0000047	2350.0000047	Major	Wrong_doings	5	You have illegally stayed in a country	C1_20	0.45	Easy	I1_24	45	Singapore ranked 8th in World's smallest countries	0.0555555555555556	Yes	RIGHT	591.4460000001327	RIGHT	699.4092999998429	LEFT	1265.4449999999997	RIGHT	2438.900399999966	21.1	0.8	Probable_Truth	RIGHT	RIGHT	4	812.4414999999772	34	2020-03-02 13:51:11.938437
130	Computer	S200302	0.8333333333333334	1	2	1	2	0.5	1000.000002	1000.000002	2216.6666711000003	1500.000003	Minor	Wrong_doings	50	You have adopted a zero-waste lifestyle	C2_50	0.0	Hard	I1_27	15	Nanyang Technological University is in Australia	0.111111111111111	No	RIGHT	351.42480000013165	RIGHT	368.3519999999589	RIGHT	3117.085999999972	LEFT	1423.3303000000888	21.6	0.5	Probable_Truth	RIGHT	LEFT	1	735.4912965646778	35	2020-03-02 13:51:36.219010
6	Self	S200302	0.5	1	2	2	1	0.6	1433.3333362	1433.3333362	2216.6666711000003	2066.6666708	Minor	Good_deeds	57	You have engaged in money laundering	C1_27	0.65	Hard	I2_54	4	Singapore is in Africa	0.0	Yes	RIGHT	735.9001000002081	RIGHT	496.0501000000477	LEFT	1079.381499999954	LEFT	1289.708300000029	22.2	0.6	Probable_Lie	RIGHT	RIGHT	1	981.3217999999324	36	2020-03-02 13:52:00.523194
58	Self	S200302	0.5	2	1	1	2	0.6	1500.000003	1000.000002	1933.3333372	1500.000003	Minor	Wrong_doings	7	You have engaged in underage smoking	C2_58	0.95	Easy	I1_17	17	Fibers in oranges can be used to make fabric	0.888888888888889	No	RIGHT	579.9326999999721	RIGHT	328.781299999946	LEFT	1038.5519999999815	RIGHT	1382.944899999984	22.8	0.6	Probable_Truth	LEFT	RIGHT	4	1366.1176000000523	37	2020-03-02 13:52:23.722184
84	Self	S200302	0.8333333333333334	1	2	2	1	0.5	1216.6666691	1150.0000023	1933.3333372	2066.6666708	Minor	Good_deeds	45	You have told someone's secret to others	C2_52	0.85	Hard	I2_25	5	A square has 3 corners	0.833333333333333	Yes	RIGHT	320.523699999967	RIGHT	324.5130000000245	LEFT	1695.864100000108	LEFT	1365.2902000001177	23.3	0.5	Probable_Truth	LEFT	LEFT	1	439.989100000048	38	2020-03-02 13:52:46.810679
9	Self	S200302	0.5	2	1	1	2	0.2	1066.6666688	1433.3333362	1933.3333372	1783.3333369	Minor	Wrong_doings	33	You have let a homeless man into your house	C1_17	0.65	Hard	I1_1	44	Feijoa is a type of grape	0.888888888888889	No	RIGHT	516.7845999999372	RIGHT	288.546100000076	RIGHT	2115.851700000121	RIGHT	1864.286199999924	23.5	0.2	Probable_Truth	RIGHT	RIGHT	4	830.0331000000369	39	2020-03-02 13:53:11.210362
131	Computer	S200302	0.8333333333333334	1	2	1	2	0.3	1150.0000023	1433.3333362	2066.6666708	2216.6666711000003	Major	Good_deeds	11	You have cheated on a test	C1_40	0.65	Hard	I2_41	5	The current century is 21st	0.0	No	LEFT	1055.6128000000626	LEFT	1148.8030000000435	LEFT	1168.9744999998766	RIGHT	1312.09889999991	23.5	0.3	Probable_Lie	LEFT	RIGHT	1	968.4056932258218	40	2020-03-02 13:53:36.298336
15	Self	S200302	0.5	2	1	2	1	0.6	1000.000002	1000.000002	2216.6666711000003	2500.000005	Minor	Wrong_doings	14	You have bribed someone to improve a grade	C2_18	1.0	Hard	I1_44	13	It is night time now	0.0	No	RIGHT	560.0303999999596	RIGHT	358.5986000000503	LEFT	3023.104599999897	LEFT	2098.0813000001035	24.1	0.6	Probable_Lie	LEFT	LEFT	6	1047.0333000000664	41	2020-03-02 13:54:02.682783
48	Self	S200302	0.5	1	2	1	2	0.1	1216.6666691	1216.6666691	2500.000005	2216.6666711000003	Minor	Wrong_doings	15	You have donated a pay cheque to charity	C1_7	0.05	Hard	I2_53	3	Lehman Brothers went bankrupt on 20th September	0.777777777777778	Yes	RIGHT	511.7146000000048	LEFT	941.9081999999436	RIGHT	1416.6353999999046	RIGHT	3224.424999999883	24.0	0.1	Probable_Lie	LEFT	RIGHT	1	934.4785999999204	42	2020-03-02 13:54:29.442031
80	Self	S200302	0.8333333333333334	1	2	1	2	0.3	1350.0000027	1000.000002	1500.000003	1500.000003	Minor	Wrong_doings	54	You have intentionally let others cut in line	C1_4	0.0	Easy	I1_43	55	Mozambique is the world's poorest country	1.0	No	RIGHT	760.1597000000311	RIGHT	685.5232999998861	RIGHT	2796.4070999998967	LEFT	3376.0884000000715	24.3	0.3	Probable_Truth	RIGHT	RIGHT	2	788.3510999999999	43	2020-03-02 13:54:55.770616
19	Self	S200302	0.6666666666666666	1	2	1	2	0.5	1500.000003	1000.000002	2216.6666711000003	1650.0000033	Minor	Wrong_doings	19	You have confessed to your mistake	C1_48	0.0	Easy	I2_22	22	Mexico's National Day is September 16	0.944444444444444	Yes	RIGHT	351.83999999981097	RIGHT	398.505299999897	RIGHT	1197.9369999999108	RIGHT	1431.7872000001444	24.8	0.5	Probable_Truth	RIGHT	RIGHT	6	818.382100000008	44	2020-03-02 13:55:18.914611
97	Computer	S200302	0.5	1	2	1	2	0.5	1150.0000023	1216.6666691	1500.000003	1783.3333369	Minor	Wrong_doings	34	You have deceived a loved one	C1_47	1.0	Hard	I1_26	18	The Amazon forest covers an area of 1 billion acres	0.0	Yes	LEFT	1112.3084000000745	LEFT	931.8918999999825	LEFT	1355.5178999999953	LEFT	1543.2275000000573	24.8	0.5	Probable_Lie	RIGHT	LEFT	4	923.940142002148	45	2020-03-02 13:55:42.994393
105	Computer	S200302	0.5	2	1	1	2	0.8	1066.6666688	1500.000003	1500.000003	2216.6666711000003	Minor	Wrong_doings	33	You have let a homeless man into your house	C1_17	0.65	Hard	I1_1	44	Feijoa is a type of grape	0.888888888888889	No	RIGHT	605.1049000000148	RIGHT	944.4384999999328	RIGHT	1921.8845000000329	RIGHT	814.3420999999762	25.6	0.8	Probable_Truth	LEFT	LEFT	3	680.4364905784348	46	2020-03-02 13:56:06.818198
128	Computer	S200302	0.8333333333333334	1	2	1	2	0.4	1066.6666688	1066.6666688	1783.3333369	1650.0000033	Minor	Wrong_doings	24	You have bribed a police officer	C2_59	0.95	Hard	I1_15	41	It takes 112 years to build the Pisa Tower	0.0	No	RIGHT	568.9488000000438	RIGHT	609.8987000000307	LEFT	1013.4325999999874	RIGHT	2807.5992999999926	26.0	0.4	Probable_Truth	LEFT	LEFT	1	940.9721233933008	47	2020-03-02 13:56:30.890603
45	Self	S200302	0.8333333333333334	2	1	2	1	0.7	1066.6666688	1500.000003	1500.000003	2216.6666711000003	Minor	Wrong_doings	59	You have engaged in drink-driving	C2_37	0.95	Easy	I2_1	1	The Franco-Prussian War occurred in the 19th century	0.611111111111111	No	RIGHT	323.2317999998031	RIGHT	257.1550000000116	LEFT	1712.1879999999692	RIGHT	2738.4537000000364	26.7	0.7	Probable_Truth	LEFT	LEFT	1	602.0819000000301	48	2020-03-02 13:57:57.282585
121	Computer	S200302	0.6666666666666666	2	1	1	2	0.1	1000.000002	1283.3333359	1783.3333369	1650.0000033	Minor	Wrong_doings	57	You have a non-judgmental attitude towards everyone	C2_43	0.0	Hard	I2_16	23	Afghan Hound is the first cloned cat	0.833333333333333	No	LEFT	569.7266000001946	LEFT	1184.239499999876	RIGHT	1862.7596000001176	LEFT	2255.605599999853	26.7	0.1	Probable_Lie	LEFT	LEFT	6	855.8274434738804	49	2020-03-02 13:58:22.289735
85	Self	S200302	0.8333333333333334	1	2	2	1	0.7	1500.000003	1350.0000027	2500.000005	2500.000005	Minor	Wrong_doings	24	You have bought cigarettes for a minor	C2_54	0.05	Easy	I2_3	11	Beef comes from cows	0.833333333333333	No	RIGHT	287.3042000001078	RIGHT	389.05179999983375	LEFT	1015.8438999999362	RIGHT	1270.33449999999	27.4	0.7	Probable_Lie	RIGHT	RIGHT	1	852.6883999998063	50	2020-03-02 13:58:46.530657
94	Self	S200302	0.8333333333333334	2	1	2	1	0.7	1283.3333359	1150.0000023	1650.0000033	2350.0000047	Minor	Good_deeds	49	You have stopped using products tested on animals	C2_9	0.05	Hard	I1_10	4	There are 6000 spoken languages in the World	0.0555555555555556	No	RIGHT	798.3801000000312	RIGHT	367.82560000006015	LEFT	3943.3857999999873	RIGHT	3129.791899999873	28.1	0.7	Probable_Truth	LEFT	LEFT	1	915.5451999999968	51	2020-03-02 13:59:14.698419
99	Computer	S200302	0.5	1	2	1	2	0.8	1000.000002	1283.3333359	1783.3333369	1500.000003	Major	Good_deeds	53	You have signed up as a bone marrow donor	C2_57	0.8	Easy	I1_52	57	Vegetarians can eat vegetable products	0.833333333333333	Yes	RIGHT	296.5443000000505	RIGHT	447.4867999999788	RIGHT	2462.391499999967	RIGHT	2351.9346000000496	28.9	0.8	Probable_Lie	RIGHT	RIGHT	2	953.0672009065734	52	2020-03-02 13:59:39.338085
102	Computer	S200302	0.5	1	2	2	1	0.2	1500.000003	1433.3333362	2066.6666708	2066.6666708	Minor	Good_deeds	57	You have engaged in money laundering	C1_27	0.65	Hard	I2_54	4	Singapore is in Africa	0.0	Yes	RIGHT	393.1743000000552	RIGHT	508.97519999989527	LEFT	840.5169999998634	LEFT	2127.0094999999856	29.1	0.2	Probable_Truth	RIGHT	LEFT	1	876.9860806618024	53	2020-03-02 14:00:03.722461
55	Self	S200302	0.5	1	2	2	1	0.8	1066.6666688	1066.6666688	1933.3333372	1783.3333369	Minor	Good_deeds	46	You have cheated on a national exam	C1_31	0.75	Easy	I2_35	47	The first Olympic Games was held in the 5th century B.C	0.0555555555555556	Yes	RIGHT	311.721499999976	RIGHT	321.83310000004894	LEFT	49.81360000010682	Time_Max_Exceeded	5000.300000000152	29.9	0.8	Probable_Lie	LEFT	RIGHT	1	1017.3302999999124	54	2020-03-02 14:00:28.850773
82	Self	S200302	0.8333333333333334	1	2	1	2	0.6	1066.6666688	1433.3333362	2066.6666708	1933.3333372	Minor	Good_deeds	27	You have been convicted in court	C1_24	0.45	Hard	I1_11	3	The human's inner ear is larger than a pencil eraser	0.666666666666667	No	RIGHT	311.1389999999119	RIGHT	396.3131000000431	LEFT	1276.407600000084	LEFT	4535.519099999874	30.5	0.6	Probable_Truth	RIGHT	RIGHT	6	811.5320000001702	55	2020-03-02 14:00:55.258296
27	Self	S200302	0.6666666666666666	2	1	1	2	0.8	1216.6666691	1500.000003	2216.6666711000003	2216.6666711000003	Major	Good_deeds	6	You have been arrested	C1_30	0.15	Easy	I1_6	30	Kangaroos live in Africa	0.888888888888889	No	RIGHT	383.1020000000081	RIGHT	304.0234000000055	LEFT	1057.3063999997885	LEFT	2095.413000000008	31.3	0.8	Probable_Truth	RIGHT	RIGHT	4	515.6990000000405	56	2020-03-02 14:01:19.338990
113	Computer	S200302	0.6666666666666666	1	2	1	2	0.2	1500.000003	1433.3333362	1933.3333372	2350.0000047	Major	Good_deeds	48	You have cursed at others	C2_6	1.0	Easy	I1_8	12	Chickens lay eggs	0.666666666666667	Yes	RIGHT	431.3297999999577	RIGHT	463.3714000001419	LEFT	1173.037099999874	RIGHT	1359.2814000001	31.5	0.2	Probable_Lie	RIGHT	LEFT	6	745.1459836149829	57	2020-03-02 14:01:43.297710
59	Self	S200302	0.5	2	1	1	2	0.5	1066.6666688	1433.3333362	2066.6666708	2216.6666711000003	Major	Good_deeds	58	You have been donating all your excess food to a food bank	C1_53	0.0	Hard	I2_11	58	Singapore is a poor country	0.611111111111111	No	RIGHT	350.02479999980096	RIGHT	248.1627000001936	RIGHT	2681.717700000036	LEFT	1447.0718000000031	32.0	0.5	Probable_Truth	RIGHT	RIGHT	5	1188.0350999999791	58	2020-03-02 14:02:08.570349
25	Self	S200302	0.6666666666666666	2	1	1	2	0.4	1433.3333362	1216.6666691	2500.000005	2066.6666708	Minor	Wrong_doings	57	You have a non-judgmental attitude towards everyone	C2_43	0.0	Hard	I2_16	23	Afghan Hound is the first cloned cat	0.833333333333333	No	RIGHT	453.1451000000288	RIGHT	263.0644000000757	RIGHT	973.8792999999076	LEFT	1568.574500000068	32.4	0.4	Probable_Truth	LEFT	LEFT	1	830.3175999999439	59	2020-03-02 14:02:32.449990
93	Self	S200302	0.8333333333333334	2	1	2	1	0.8	1433.3333362	1433.3333362	2350.0000047	1650.0000033	Major	Wrong_doings	14	You have offered a listening ear to a friend	C1_50	1.0	Hard	I2_24	10	R. Amundsen discovered the South Pole	0.0	Yes	RIGHT	468.7351000000035	RIGHT	312.44139999989784	RIGHT	1408.2872999999836	LEFT	2768.4608000001845	33.2	0.8	Probable_Truth	LEFT	LEFT	1	1150.0760999999784	60	2020-03-02 14:02:57.994679
53	Self	S200302	0.5	1	2	2	1	0.2	1433.3333362	1283.3333359	2350.0000047	1650.0000033	Minor	Good_deeds	7	You have started an NGO using your savings	C1_46	0.0	Hard	I2_39	51	It is snowing outside now	0.888888888888889	No	RIGHT	624.3658999999298	LEFT	1402.8723000001264	LEFT	2197.435799999994	LEFT	1142.349700000068	32.99999999999999	0.2	Probable_Lie	RIGHT	RIGHT	1	757.9763000001094	61	2020-03-02 14:03:23.410836
135	Computer	S200302	0.8333333333333334	1	2	2	1	0.8	1433.3333362	1500.000003	2350.0000047	1933.3333372	Minor	Good_deeds	40	You have returned your trays in food courts	C2_11	0.1	Easy	I1_33	27	The Earth is round	0.0	No	RIGHT	280.16489999981786	RIGHT	353.0097000000296	RIGHT	1903.3638000000792	RIGHT	1110.6254000001172	33.79999999999999	0.8	Probable_Truth	LEFT	LEFT	1	999.2845975291314	62	2020-03-02 14:03:47.841330
107	Computer	S200302	0.5	2	1	1	2	0.5	1350.0000027	1350.0000027	1933.3333372	2350.0000047	Minor	Good_deeds	31	You have risked your life to save another person's life	C2_23	0.0	Easy	I1_40	2	Polish is 20th most spoken language in the World	0.833333333333333	Yes	LEFT	1015.38040000014	LEFT	1190.594599999713	RIGHT	1252.474500000062	RIGHT	1023.348299999725	33.79999999999999	0.5	Probable_Lie	RIGHT	RIGHT	1	588.843934360549	63	2020-03-02 14:04:12.458614
101	Computer	S200302	0.5	1	2	2	1	0.3	1283.3333359	1150.0000023	2216.6666711000003	1933.3333372	Major	Wrong_doings	47	You have borrowed things and never returned	C1_34	0.05	Easy	I1_57	54	Teddy Roosevelt was the youngest US President	0.0	No	LEFT	545.4801000000771	LEFT	554.606899999726	LEFT	2359.045899999728	RIGHT	3029.743000000053	33.79999999999999	0.3	Probable_Lie	LEFT	LEFT	4	587.0297990568843	64	2020-03-02 14:04:38.682346
30	Self	S200302	0.6666666666666666	2	1	2	1	0.5	1150.0000023	1150.0000023	1783.3333369	2500.000005	Major	Good_deeds	43	You have drunk alcohol when you were underage	C2_8	0.95	Easy	I1_36	46	Airbags in cars are filled with sodium azide	0.0	Yes	RIGHT	363.1705000002512	RIGHT	255.98600000012084	LEFT	2280.2099000000453	RIGHT	1436.5176999999676	34.29999999999999	0.5	Probable_Truth	LEFT	LEFT	1	741.5531999999985	65	2020-03-02 14:05:02.914289
133	Computer	S200302	0.8333333333333334	1	2	2	1	0.2	1350.0000027	1216.6666691	1933.3333372	2066.6666708	Major	Wrong_doings	59	You have helped others to pick up their belongings	C1_12	1.0	Easy	I2_23	23	Algeria is Africa's second largest country	0.944444444444444	Yes	LEFT	568.5287999999673	LEFT	1380.4723000002923	RIGHT	119.59930000011808	Time_Max_Exceeded	5000.137900000027	34.29999999999999	0.2	Probable_Lie	RIGHT	RIGHT	1	643.0658491801404	66	2020-03-02 14:05:29.769559
22	Self	S200302	0.6666666666666666	1	2	2	1	0.2	1000.000002	1216.6666691	2066.6666708	2500.000005	Major	Wrong_doings	6	You have sheltered others from disasters	C1_19	1.0	Hard	I2_2	38	Acoustic Kitty refers to cat with implants	0.0	No	RIGHT	775.5181999996239	LEFT	1407.0904999998677	RIGHT	1344.2902000001595	RIGHT	1839.4508999999744	34.09999999999999	0.2	Probable_Lie	RIGHT	RIGHT	2	814.6320000000742	67	2020-03-02 14:05:55.305862
10	Self	S200302	0.5	2	1	1	2	0.1	1150.0000023	1066.6666688	1783.3333369	1500.000003	Major	Good_deeds	23	You have downloaded pirated movies	C1_33	0.0	Easy	I2_13	8	Animals are living things	0.0	Yes	RIGHT	513.7872999998763	LEFT	766.8643000001794	LEFT	1015.4271999999764	RIGHT	897.2303000000466	33.999999999999986	0.1	Probable_Lie	LEFT	RIGHT	3	800.0440999999228	68	2020-03-02 14:06:17.370907
132	Computer	S200302	0.8333333333333334	1	2	2	1	0.1	1283.3333359	1150.0000023	2500.000005	1783.3333369	Minor	Good_deeds	37	You have pretended to be busy to avoid a social situation	C2_24	1.0	Hard	I1_54	54	There are 10 continents in the World	0.944444444444444	Yes	LEFT	664.3297999999049	RIGHT	533.1188000000111	LEFT	1382.0295999998962	LEFT	1660.4230000002644	33.999999999999986	0.1	Probable_Lie	LEFT	LEFT	4	812.1899301537189	69	2020-03-02 14:06:41.713033
123	Computer	S200302	0.6666666666666666	2	1	1	2	0.7	1500.000003	1000.000002	1500.000003	2350.0000047	Major	Good_deeds	6	You have been arrested	C1_30	0.15	Easy	I1_6	30	Kangaroos live in Africa	0.888888888888889	No	RIGHT	415.54439999981696	RIGHT	384.6486000002187	LEFT	754.2386000000079	LEFT	1521.1504999997487	34.69999999999999	0.7	Probable_Truth	LEFT	LEFT	1	541.3268512593097	70	2020-03-02 14:07:04.241513
46	Self	S200302	0.8333333333333334	2	1	2	1	0.4	1500.000003	1150.0000023	2350.0000047	2350.0000047	Major	Wrong_doings	43	You have kept your promises	C2_28	0.0	Hard	I2_49	39	Astatine is the rarest element in the Earth's crust	0.888888888888889	Yes	RIGHT	588.8801999999487	RIGHT	399.343300000055	RIGHT	832.1961000001465	RIGHT	1161.5112999998018	35.09999999999999	0.4	Probable_Truth	LEFT	LEFT	1	1173.7002999998367	71	2020-03-02 14:07:28.322513
54	Self	S200302	0.5	1	2	2	1	0.5	1500.000003	1350.0000027	1650.0000033	2066.6666708	Major	Good_deeds	60	You have queued to enter the MRT train	C2_36	0.0	Easy	I1_3	35	Today is a weekday	0.0	No	RIGHT	287.6205000002301	RIGHT	391.7724000002636	RIGHT	2311.55200000012	RIGHT	2103.5503999996763	35.59999999999999	0.5	Probable_Truth	RIGHT	RIGHT	4	1445.8770999999615	72	2020-03-02 14:07:54.002795
111	Computer	S200302	0.5	2	1	2	1	0.6	1433.3333362	1066.6666688	2216.6666711000003	1933.3333372	Minor	Wrong_doings	14	You have bribed someone to improve a grade	C2_18	1.0	Hard	I1_44	13	It is night time now	0.0	No	RIGHT	387.00199999993856	RIGHT	279.970399999911	LEFT	1160.125799999605	LEFT	1238.314100000025	36.19999999999999	0.6	Probable_Truth	RIGHT	LEFT	1	890.7446593823581	73	2020-03-02 14:08:17.170155
78	Self	S200302	0.6666666666666666	2	1	2	1	0.4	1066.6666688	1433.3333362	2350.0000047	2066.6666708	Major	Good_deeds	29	You have switched off appliances when not in use	C1_8	0.7	Easy	I2_21	27	The Eiffel Tower is in Paris	0.777777777777778	No	RIGHT	403.0357000001459	RIGHT	248.198599999796	RIGHT	1240.1365000000624	RIGHT	1102.592100000038	36.59999999999999	0.4	Probable_Lie	RIGHT	RIGHT	1	649.5297999999821	74	2020-03-02 14:08:40.305575
69	Self	S200302	0.6666666666666666	1	2	2	1	0.5	1500.000003	1283.3333359	1650.0000033	1500.000003	Minor	Good_deeds	26	You have been sued	C2_38	0.0	Hard	I2_58	19	Cheese is an Asian staple	0.0555555555555556	No	RIGHT	431.19750000005297	RIGHT	583.5873999999421	LEFT	1120.3267000000778	LEFT	2189.6543000002566	37.09999999999999	0.5	Probable_Lie	LEFT	LEFT	6	753.0815000000075	75	2020-03-02 14:09:03.889220
28	Self	S200302	0.6666666666666666	2	1	2	1	0.2	1350.0000027	1350.0000027	2066.6666708	1783.3333369	Major	Good_deeds	48	You have said sorry when you were rude	C2_48	0.25	Hard	I2_12	12	China is a part of Asia	0.666666666666667	Yes	RIGHT	374.7081999999864	RIGHT	280.635600000096	RIGHT	888.1274999998823	RIGHT	1073.1197000000066	37.29999999999999	0.2	Probable_Lie	LEFT	LEFT	3	778.8393999999244	76	2020-03-02 14:09:26.409528
141	Computer	S200302	0.8333333333333334	2	1	2	1	0.3	1433.3333362	1350.0000027	2500.000005	1933.3333372	Minor	Wrong_doings	59	You have engaged in drink-driving	C2_37	0.95	Easy	I2_1	1	The Franco-Prussian War occurred in the 19th century	0.611111111111111	No	LEFT	987.3599000002288	LEFT	839.5860999999059	LEFT	968.2047000001148	RIGHT	1949.2159000001263	37.29999999999999	0.3	Probable_Lie	LEFT	RIGHT	1	770.8284250789311	77	2020-03-02 14:09:51.706071
38	Self	S200302	0.8333333333333334	1	2	2	1	0.2	1283.3333359	1500.000003	2066.6666708	1650.0000033	Major	Wrong_doings	12	You have sold illegal drugs	C1_11	0.05	Easy	I2_5	28	Arabi is the oldest surviving breed of horse	0.888888888888889	Yes	RIGHT	296.407199999976	RIGHT	277.8672000004008	LEFT	904.4472999999016	RIGHT	2887.0311000000584	37.49999999999999	0.2	Probable_Lie	RIGHT	RIGHT	1	986.786800000118	78	2020-03-02 14:10:16.129257
56	Self	S200302	0.5	2	1	1	2	0.2	1350.0000027	1283.3333359	2500.000005	2350.0000047	Major	Wrong_doings	58	You have helped your parents when asked to	C2_34	0.05	Hard	I2_17	48	Nomophobia is the fear of being without a phone or computer	1.0	Yes	RIGHT	317.40110000009736	RIGHT	281.8244999998569	RIGHT	2314.871700000367	LEFT	3543.09639999974	37.7	0.2	Probable_Lie	RIGHT	RIGHT	3	641.6239999998652	79	2020-03-02 14:10:43.281123
67	Self	S200302	0.6666666666666666	1	2	1	2	0.7	1066.6666688	1150.0000023	2500.000005	1650.0000033	Major	Good_deeds	38	You have used a fake name online	C2_26	0.95	Hard	I1_19	24	There are 20 bones in the human skull	0.722222222222222	No	RIGHT	335.8927999997832	RIGHT	549.9475999999959	RIGHT	1928.0321000001093	LEFT	4031.897800000024	38.4	0.7	Probable_Truth	RIGHT	RIGHT	4	847.9895999998917	80	2020-03-02 14:11:09.914732
74	Self	S200302	0.6666666666666666	2	1	1	2	0.7	1500.000003	1500.000003	1783.3333369	1500.000003	Major	Wrong_doings	8	You have claimed doing things that you never did	C2_16	0.0	Easy	I1_14	60	Malay is one of the races in Singapore	0.0	No	RIGHT	377.2734999997738	RIGHT	295.7298000001174	LEFT	1590.6089999998585	RIGHT	1302.893199999744	39.1	0.7	Probable_Truth	LEFT	LEFT	1	1023.784699999851	81	2020-03-02 14:11:33.361669
114	Computer	S200302	0.6666666666666666	1	2	1	2	0.8	1350.0000027	1350.0000027	1650.0000033	2216.6666711000003	Major	Wrong_doings	28	You have said thank you when you have received help	C2_1	1.0	Hard	I2_56	56	It is 20th Century now	1.0	No	RIGHT	272.5842999998349	RIGHT	591.0177000000658	RIGHT	3481.435500000316	LEFT	1072.6085000001149	39.9	0.8	Probable_Lie	LEFT	LEFT	5	961.0782348901504	82	2020-03-02 14:11:58.881320
79	Self	S200302	0.6666666666666666	2	1	2	1	0.3	1350.0000027	1283.3333359	1650.0000033	2350.0000047	Minor	Wrong_doings	51	You have bought cocaine	C2_17	0.0	Hard	I1_60	50	A caterpillar has more muscle than a human	0.944444444444444	Yes	RIGHT	1862.6475000000935	RIGHT	328.4178999997493	LEFT	984.1332000000876	LEFT	2131.385600000158	40.2	0.3	Probable_Lie	RIGHT	RIGHT	1	1152.3035999998683	83	2020-03-02 14:12:24.545650
1	Self	S200302	0.5	1	2	1	2	0.3	1150.0000023	1350.0000027	2500.000005	1783.3333369	Minor	Wrong_doings	34	You have deceived a loved one	C1_47	1.0	Hard	I1_26	18	The Amazon forest covers an area of 1 billion acres	0.0	Yes	RIGHT	263.2608999997501	RIGHT	340.4004000003624	LEFT	1139.9460999996336	LEFT	1831.552799999827	40.49999999999999	0.3	Probable_Truth	RIGHT	RIGHT	4	788.8206000002356	84	2020-03-02 14:12:48.265846
143	Computer	S200302	0.8333333333333334	2	1	2	1	0.5	1350.0000027	1150.0000023	2216.6666711000003	2066.6666708	Major	Good_deeds	46	You have failed to keep promises	C1_59	0.2	Hard	I2_36	49	Christmas Day is in March	0.0	No	RIGHT	1146.9778999999107	RIGHT	560.6852999999319	LEFT	1006.9029999999656	LEFT	1157.2792000001757	40.99999999999999	0.5	Probable_Lie	RIGHT	RIGHT	1	545.2786101599698	85	2020-03-02 14:13:12.041569
139	Computer	S200302	0.8333333333333334	2	1	1	2	0.2	1150.0000023	1216.6666691	1500.000003	2500.000005	Major	Wrong_doings	37	You have held the door open for a stranger	C1_22	0.5	Hard	I1_41	13	A triangle has three sides	0.888888888888889	Yes	LEFT	910.9894000002896	LEFT	943.350200000168	RIGHT	1294.6328000002725	RIGHT	807.6801999995951	40.99999999999999	0.2	Probable_Lie	LEFT	RIGHT	1	505.3869637177999	86	2020-03-02 14:13:35.433930
18	Self	S200302	0.6666666666666666	1	2	1	2	0.8	1066.6666688	1350.0000027	1650.0000033	1783.3333369	Major	Wrong_doings	28	You have said thank you when you have received help	C2_1	1.0	Hard	I2_56	56	It is 20th Century now	1.0	No	RIGHT	504.0466999998898	RIGHT	326.3280000001032	RIGHT	1011.004800000137	LEFT	831.2286000000313	41.79999999999999	0.8	Probable_Truth	LEFT	LEFT	2	711.7971000002399	87	2020-03-02 14:13:57.242367
12	Self	S200302	0.5	2	1	2	1	0.7	1500.000003	1216.6666691	1500.000003	2066.6666708	Major	Good_deeds	17	You have watched an M18 movie when you were underage	C1_44	0.05	Hard	I2_45	45	Some owl species hunt fish	0.777777777777778	Yes	RIGHT	341.4327000000412	RIGHT	184.0079999997215	LEFT	1446.0312999999587	RIGHT	1860.8671000001775	42.49999999999999	0.7	Probable_Lie	RIGHT	RIGHT	3	1322.7162999996835	88	2020-03-02 14:14:21.257238
14	Self	S200302	0.5	2	1	2	1	0.5	1433.3333362	1150.0000023	2350.0000047	1933.3333372	Minor	Wrong_doings	42	You have thrown your trash into the bin	C2_31	1.0	Easy	I2_8	34	Saturn's rings are between 30 and 300 feet thick	0.0	No	RIGHT	299.97929999990447	RIGHT	249.0322999997261	RIGHT	984.0374000000338	RIGHT	1331.5747000001463	42.99999999999999	0.5	Probable_Lie	RIGHT	RIGHT	2	745.6893999997192	89	2020-03-02 14:14:44.305074
71	Self	S200302	0.6666666666666666	1	2	2	1	0.4	1216.6666691	1433.3333362	1933.3333372	1783.3333369	Minor	Wrong_doings	35	You have held the elevator doors for others	C2_35	0.0	Hard	I1_45	44	Cleopatra was born in Greece	0.111111111111111	Yes	RIGHT	328.0764000001	RIGHT	419.5071000003736	RIGHT	2007.5173000000177	RIGHT	3004.1090999998232	43.39999999999999	0.4	Probable_Truth	RIGHT	RIGHT	5	853.3517999999276	90	2020-03-02 14:15:09.857470
51	Self	S200302	0.5	1	2	1	2	0.7	1000.000002	1433.3333362	2066.6666708	1933.3333372	Major	Wrong_doings	13	You have taken part in violent demonstration	C2_60	0.95	Easy	I2_51	32	It sometimes snows in Singapore	0.888888888888889	Yes	RIGHT	256.5266999999949	RIGHT	414.5281999999497	LEFT	2509.446300000036	LEFT	1095.8026000002974	44.1	0.7	Probable_Truth	RIGHT	RIGHT	5	2016.121799999837	91	2020-03-02 14:15:35.153357
24	Self	S200302	0.6666666666666666	2	1	1	2	0.6	1000.000002	1283.3333359	1500.000003	2350.0000047	Minor	Wrong_doings	8	You have volunteered every week for many years	C1_39	1.0	Easy	I2_52	52	Singapore has four seasons	0.0	Yes	RIGHT	357.80030000023544	RIGHT	295.808500000021	LEFT	3193.4338999999454	LEFT	1104.5614000004207	44.7	0.6	Probable_Lie	RIGHT	RIGHT	2	771.7345000000932	92	2020-03-02 14:15:59.585498
109	Computer	S200302	0.5	2	1	2	1	0.3	1283.3333359	1283.3333359	1783.3333369	2500.000005	Major	Good_deeds	44	You have given way to the handicapped	C1_14	0.7	Hard	I1_2	1	A dog has four legs	0.0	No	LEFT	1077.205000000049	LEFT	1471.8769999999497	RIGHT	992.332499999975	RIGHT	1047.837900000104	44.7	0.3	Probable_Lie	LEFT	RIGHT	3	793.6606106440345	93	2020-03-02 14:16:24.393276
50	Self	S200302	0.5	1	2	1	2	0.6	1283.3333359	1150.0000023	1500.000003	2350.0000047	Major	Wrong_doings	36	You have made someone cry	C2_10	0.2	Easy	I1_25	53	The Earth turns the closest to the sun in May	0.0	Yes	RIGHT	278.86290000014924	RIGHT	309.79900000011185	RIGHT	1772.5744999997914	RIGHT	4335.540900000069	45.3	0.6	Probable_Lie	LEFT	RIGHT	2	500.15159999975367	94	2020-03-02 14:16:50.449615
75	Self	S200302	0.6666666666666666	2	1	1	2	0.6	1216.6666691	1150.0000023	2066.6666708	1933.3333372	Minor	Good_deeds	39	You have organized a violent protest	C1_36	0.9	Hard	I2_50	26	The hardest bone in human body is the jawbone	0.722222222222222	No	RIGHT	469.8520999995708	RIGHT	360.04810000031284	LEFT	893.2353000000148	LEFT	2039.4723000003976	45.9	0.6	Probable_Truth	RIGHT	RIGHT	6	702.6393999999527	95	2020-03-02 14:17:13.858871
33	Self	S200302	0.8333333333333334	1	2	1	2	0.7	1433.3333362	1283.3333359	1783.3333369	1933.3333372	Major	Good_deeds	11	You have donated blood every 6 months for many years	C1_37	0.0	Easy	I2_28	33	The hyoid bone is the only jointless bone	1.0	Yes	RIGHT	272.3276000001533	RIGHT	320.48230000009426	LEFT	1837.482800000089	LEFT	1558.8204000000587	46.6	0.7	Probable_Lie	RIGHT	RIGHT	1	771.2144999995871	96	2020-03-02 14:18:13.537428
13	Self	S200302	0.5	2	1	2	1	0.3	1216.6666691	1350.0000027	2066.6666708	2216.6666711000003	Major	Good_deeds	44	You have given way to the handicapped	C1_14	0.7	Hard	I1_2	1	A dog has four legs	0.0	No	RIGHT	284.4694000000345	RIGHT	239.90279999998165	RIGHT	655.4987999998048	RIGHT	680.4363000001104	46.9	0.3	Probable_Lie	LEFT	RIGHT	2	1182.1846000002552	97	2020-03-02 14:18:36.009354
29	Self	S200302	0.6666666666666666	2	1	2	1	0.1	1283.3333359	1066.6666688	1650.0000033	1650.0000033	Minor	Wrong_doings	19	You have given directions to a lost tourist	C1_57	1.0	Hard	I1_46	6	Earth's atmosphere extends up to 10,000km into space	0.0555555555555556	No	RIGHT	335.6512999998813	RIGHT	240.26400000002468	RIGHT	2735.830200000237	RIGHT	1804.593599999862	47.0	0.1	Probable_Truth	LEFT	LEFT	1	661.5802999999687	98	2020-03-02 14:19:00.017797
39	Self	S200302	0.8333333333333334	1	2	2	1	0.3	1066.6666688	1433.3333362	2500.000005	2066.6666708	Minor	Good_deeds	40	You have returned your trays in food courts	C2_11	0.1	Easy	I1_33	27	The Earth is round	0.0	No	RIGHT	176.33900000009817	RIGHT	259.2865999999958	RIGHT	776.521799999955	RIGHT	655.6319999999687	47.3	0.3	Probable_Truth	LEFT	LEFT	1	997.7979000000232	99	2020-03-02 14:19:22.520197
72	Self	S200302	0.6666666666666666	2	1	1	2	0.2	1433.3333362	1066.6666688	2500.000005	2500.000005	Major	Wrong_doings	56	You have started a movement to support a cause	C1_51	1.0	Hard	I2_27	14	Mageirocophobia is a fear of deathly disease	0.0	Yes	RIGHT	1140.5281000002103	RIGHT	312.1259999998074	RIGHT	2230.2980999998	RIGHT	2350.652199999786	47.5	0.2	Probable_Truth	LEFT	LEFT	2	1050.497500000347	100	2020-03-02 14:19:49.681803
120	Computer	S200302	0.6666666666666666	2	1	1	2	0.8	1350.0000027	1350.0000027	1650.0000033	2066.6666708	Minor	Wrong_doings	8	You have volunteered every week for many years	C1_39	1.0	Easy	I2_52	52	Singapore has four seasons	0.0	Yes	RIGHT	612.2528999999304	RIGHT	271.9634000000042	LEFT	1632.913500000086	LEFT	728.166599999895	48.3	0.8	Probable_Lie	LEFT	LEFT	6	794.2914350060646	101	2020-03-02 14:20:12.713592
40	Self	S200302	0.8333333333333334	2	1	1	2	0.5	1216.6666691	1000.000002	1783.3333369	2066.6666708	Minor	Wrong_doings	23	You have rescued others from a catastrophe	C1_43	0.85	Hard	I2_60	36	"Statue of Liberty is 151 feet tall"	0.0	Yes	RIGHT	538.739600000099	RIGHT	73.71539999985544	RIGHT	1335.7662999997046	RIGHT	912.7292999996826	48.8	0.5	Probable_Lie	LEFT	LEFT	2	1280.0194999999803	102	2020-03-02 14:20:35.489168
76	Self	S200302	0.6666666666666666	2	1	2	1	0.8	1283.3333359	1216.6666691	1933.3333372	1783.3333369	Major	Good_deeds	16	You have cursed at your loved ones	C1_29	0.55	Hard	I2_26	50	Obama is the USA president now	0.611111111111111	Yes	RIGHT	314.02299999990646	RIGHT	319.71900000007736	LEFT	1633.2790999999816	LEFT	1715.027100000043	49.6	0.8	Probable_Truth	LEFT	LEFT	1	644.9216999999408	103	2020-03-02 14:20:58.905669
0	Self	S200302	0.5	1	2	1	2	0.5	1066.6666688	1283.3333359	2350.0000047	2500.000005	Major	Wrong_doings	27	You have sign up to sponsor a needy child	C2_53	0.0	Hard	I1_4	52	The first Grammy awards was held in 1959	0.944444444444444	Yes	RIGHT	304.1723999999704	RIGHT	266.0929999997279	LEFT	2684.411199999886	RIGHT	1304.0510999999242	50.1	0.5	Probable_Truth	LEFT	RIGHT	6	703.5381000000598	104	2020-03-02 14:21:23.946422
96	Computer	S200302	0.5	1	2	1	2	0.6	1066.6666688	1350.0000027	2350.0000047	2216.6666711000003	Major	Wrong_doings	27	You have sign up to sponsor a needy child	C2_53	0.0	Hard	I1_4	52	The first Grammy awards was held in 1959	0.944444444444444	Yes	LEFT	862.2295999998641	LEFT	1111.1855000003743	LEFT	1041.0596000001533	RIGHT	832.7810000000682	50.1	0.6	Probable_Lie	RIGHT	RIGHT	1	902.2085852238976	105	2020-03-02 14:21:48.249050
92	Self	S200302	0.8333333333333334	2	1	2	1	0.3	1066.6666688	1216.6666691	1500.000003	1500.000003	Major	Good_deeds	50	You have extorted money from anyone	C1_3	0.0	Hard	I2_43	48	Singapore is a country	0.0	No	RIGHT	1236.865900000339	LEFT	632.6139000002513	LEFT	1030.293100000108	RIGHT	966.8699000003472	49.8	0.3	Probable_Lie	LEFT	LEFT	6	683.8329999995949	106	2020-03-02 14:22:10.656063
137	Computer	S200302	0.8333333333333334	2	1	1	2	0.8	1000.000002	1000.000002	2350.0000047	2216.6666711000003	Major	Good_deeds	30	You have made counterfeit money	C1_23	0.05	Easy	I1_13	29	February has 30 days	0.0	No	RIGHT	599.372300000141	RIGHT	280.6017000002612	LEFT	832.6391999999032	LEFT	831.970100000035	50.6	0.8	Probable_Lie	RIGHT	RIGHT	1	968.6910799889572	107	2020-03-02 14:22:33.305903
2	Self	S200302	0.5	1	2	1	2	0.1	1000.000002	1066.6666688	2066.6666708	1500.000003	Major	Good_deeds	3	You have helped a friend in need	C2_3	0.1	Easy	I2_18	26	December is the last month of the year	0.666666666666667	No	RIGHT	143.83020000013855	RIGHT	397.2840999999789	RIGHT	868.2885000002898	RIGHT	1255.8290000001762	50.7	0.1	Probable_Truth	RIGHT	LEFT	1	877.5964999999815	108	2020-03-02 14:22:55.057828
47	Self	S200302	0.8333333333333334	2	1	2	1	0.6	1350.0000027	1433.3333362	2066.6666708	2500.000005	Major	Good_deeds	46	You have failed to keep promises	C1_59	0.2	Hard	I2_36	49	Christmas Day is in March	0.0	No	RIGHT	654.0540999999394	RIGHT	303.67630000000645	LEFT	1127.9742000001534	LEFT	1188.623600000028	51.3	0.6	Probable_Truth	RIGHT	RIGHT	4	673.3041999996203	109	2020-03-02 14:23:18.928464
90	Self	S200302	0.8333333333333334	2	1	1	2	0.2	1350.0000027	1350.0000027	1933.3333372	2500.000005	Minor	Good_deeds	47	You have faked an illness	C1_13	0.9	Easy	I1_35	35	French is Singapore's official language	0.0	Yes	RIGHT	427.9559999999947	RIGHT	128.09310000011465	LEFT	990.7110999997712	LEFT	1550.943599999755	51.5	0.2	Probable_Lie	LEFT	LEFT	3	1012.641799999983	110	2020-03-02 14:23:42.744865
87	Self	S200302	0.8333333333333334	1	2	2	1	0.1	1433.3333362	1500.000003	2350.0000047	1783.3333369	Major	Good_deeds	4	You have been restricting your electricity consumption	C1_45	0.8	Hard	I2_55	42	There is typically 0.6 grams of mercury in glass thermometer	0.0555555555555556	Yes	RIGHT	615.9480000001167	LEFT	962.1784000000844	RIGHT	1503.3782000000429	RIGHT	2332.336100000248	51.4	0.1	Probable_Lie	RIGHT	RIGHT	1	426.4564999998584	111	2020-03-02 14:24:08.225631
140	Computer	S200302	0.8333333333333334	2	1	2	1	0.6	1500.000003	1283.3333359	1783.3333369	1783.3333369	Minor	Good_deeds	28	You have fabricated facts about yourself	C2_46	0.85	Easy	I1_39	41	Summer is hotter than winter	0.0	Yes	RIGHT	454.8136000003069	RIGHT	256.1835000001338	LEFT	927.2909999999684	RIGHT	1284.5478000003825	52.0	0.6	Probable_Lie	RIGHT	RIGHT	1	545.7686239298306	112	2020-03-02 14:24:30.616496
100	Computer	S200302	0.5	1	2	2	1	0.1	1433.3333362	1500.000003	1650.0000033	2350.0000047	Minor	Wrong_doings	29	You have participated in a scamming business	C1_16	0.0	Hard	I2_31	33	Hot chocolate was created by the Mayan culture	0.777777777777778	No	LEFT	647.8870000000825	LEFT	1709.7027999998318	LEFT	2199.922499999957	RIGHT	1545.8518000000367	52.0	0.1	Probable_Lie	LEFT	LEFT	5	792.1759207468413	113	2020-03-02 14:24:57.025496
81	Self	S200302	0.8333333333333334	1	2	1	2	0.8	1283.3333359	1283.3333359	1650.0000033	2216.6666711000003	Major	Wrong_doings	60	You have sorted your trash into recycling bin	C2_25	0.05	Easy	I2_42	42	Red is a color	0.0	Yes	RIGHT	408.6775000000671	RIGHT	367.0960999997988	RIGHT	2399.574500000199	RIGHT	1056.2660999999025	52.8	0.8	Probable_Lie	LEFT	LEFT	6	414.7839999995995	114	2020-03-02 14:25:20.680080
8	Self	S200302	0.5	2	1	1	2	0.4	1350.0000027	1283.3333359	2500.000005	2350.0000047	Major	Wrong_doings	18	You have assisted in a crime	C2_42	0.0	Easy	I2_34	40	Today is Sunday	0.777777777777778	Yes	RIGHT	349.27109999989625	RIGHT	392.8358999996817	LEFT	1756.3334999999825	LEFT	1103.6232000001291	53.2	0.4	Probable_Lie	RIGHT	RIGHT	3	794.3085000001702	115	2020-03-02 14:25:45.128796
26	Self	S200302	0.6666666666666666	2	1	1	2	0.3	1066.6666688	1433.3333362	1933.3333372	1500.000003	Minor	Wrong_doings	39	You have blackmailed others for money	C1_6	0.0	Hard	I1_23	16	The Moon orbits around the Earth	0.833333333333333	Yes	RIGHT	1284.459500000139	RIGHT	519.3890000000465	LEFT	888.0291999998917	RIGHT	904.09899999986	53.49999999999999	0.3	Probable_Truth	RIGHT	RIGHT	3	665.8492999999908	116	2020-03-02 14:26:07.897388
21	Self	S200302	0.6666666666666666	1	2	2	1	0.4	1350.0000027	1283.3333359	2500.000005	1500.000003	Minor	Good_deeds	45	You have lost everything just to help others	C1_38	0.0	Easy	I1_53	53	Milwaukee Art Museum is located in California	0.722222222222222	No	RIGHT	184.2250999998214	RIGHT	332.67419999992853	LEFT	1247.6944999998525	RIGHT	1135.9345000000758	53.89999999999999	0.4	Probable_Truth	RIGHT	RIGHT	4	597.3243999997067	117	2020-03-02 14:26:30.601631
112	Computer	S200302	0.6666666666666666	1	2	1	2	0.4	1066.6666688	1500.000003	2066.6666708	2500.000005	Minor	Good_deeds	1	You have kidnapped someone	C1_28	0.85	Hard	I2_6	8	There are 30 hours in a day	0.0	Yes	LEFT	575.579899999866	LEFT	1617.0557999998891	LEFT	838.2895999998254	LEFT	768.6975999999959	53.89999999999999	0.4	Probable_Truth	LEFT	RIGHT	4	841.5784102459894	118	2020-03-02 14:26:54.936073
88	Self	S200302	0.8333333333333334	2	1	1	2	0.4	1000.000002	1066.6666688	2500.000005	1933.3333372	Major	Wrong_doings	9	You have done something against your values	C1_49	0.1	Hard	I1_28	43	Carnivore refers to meat-eater	0.888888888888889	No	RIGHT	301.29200000010314	RIGHT	232.074399999874	LEFT	1203.224400000181	RIGHT	1576.7573999996785	54.29999999999999	0.4	Probable_Truth	LEFT	LEFT	1	645.6120000002556	119	2020-03-02 14:27:17.968451
3	Self	S200302	0.5	1	2	1	2	0.7	1500.000003	1216.6666691	1933.3333372	2216.6666711000003	Major	Good_deeds	53	You have signed up as a bone marrow donor	C2_57	0.8	Easy	I1_52	57	Vegetarians can eat vegetable products	0.833333333333333	Yes	RIGHT	215.37709999984145	RIGHT	331.47109999981694	LEFT	1209.0306000000055	RIGHT	911.5818000000218	54.99999999999999	0.7	Probable_Lie	RIGHT	RIGHT	3	344.10280000020066	120	2020-03-02 14:27:40.424453
23	Self	S200302	0.6666666666666666	1	2	2	1	0.1	1433.3333362	1150.0000023	1500.000003	2216.6666711000003	Minor	Wrong_doings	38	You have lied to your parents	C2_45	0.0	Easy	I1_38	2	Pyramid of Giza is 468 feet tall	0.0	Yes	RIGHT	337.499299999763	RIGHT	971.6389000000164	LEFT	768.89250000022	RIGHT	919.2253000001074	55.1	0.1	Probable_Truth	LEFT	LEFT	2	706.2049000001025	121	2020-03-02 14:28:03.001200
4	Self	S200302	0.5	1	2	2	1	0.2	1350.0000027	1500.000003	1500.000003	1650.0000033	Minor	Wrong_doings	29	You have participated in a scamming business	C1_16	0.0	Hard	I2_31	33	Hot chocolate was created by the Mayan culture	0.777777777777778	No	RIGHT	449.0240999998605	RIGHT	446.2130000001707	LEFT	1032.756900000095	RIGHT	1046.8642999999247	55.3	0.2	Probable_Truth	RIGHT	LEFT	2	933.7063999996644	122	2020-03-02 14:28:25.481133
108	Computer	S200302	0.5	2	1	2	1	0.1	1000.000002	1216.6666691	2500.000005	1783.3333369	Major	Good_deeds	17	You have watched an M18 movie when you were underage	C1_44	0.05	Hard	I2_45	45	Some owl species hunt fish	0.777777777777778	Yes	LEFT	895.6646000001456	RIGHT	833.6207000002105	LEFT	893.7043000000813	RIGHT	946.9853999999032	55.3	0.1	Probable_Truth	LEFT	RIGHT	5	747.9367454857316	123	2020-03-02 14:28:48.872226
42	Self	S200302	0.8333333333333334	2	1	1	2	0.2	1433.3333362	1350.0000027	2216.6666711000003	1933.3333372	Minor	Good_deeds	22	You have attended all lectures as a student	C2_30	0.05	Easy	I1_29	60	Africa is the continent with the least rainfall	0.888888888888889	No	RIGHT	446.9407000001411	RIGHT	247.85839999958625	RIGHT	1187.0475999999144	RIGHT	1808.2091999999648	55.5	0.2	Probable_Lie	LEFT	LEFT	4	698.0389000000287	124	2020-03-02 14:29:12.769891
7	Self	S200302	0.5	1	2	2	1	0.8	1283.3333359	1150.0000023	1783.3333369	2350.0000047	Minor	Good_deeds	16	You have helped with household chores	C2_29	1.0	Easy	I2_33	31	Marijuana is legal in Singapore	0.0	No	RIGHT	265.42879999988145	RIGHT	363.2929000000331	RIGHT	3479.814400000123	RIGHT	1191.4376000004268	56.3	0.8	Probable_Truth	RIGHT	RIGHT	5	524.8600999998416	125	2020-03-02 14:29:37.729469
138	Computer	S200302	0.8333333333333334	2	1	1	2	0.7	1216.6666691	1066.6666688	1933.3333372	1650.0000033	Minor	Good_deeds	22	You have attended all lectures as a student	C2_30	0.05	Easy	I1_29	60	Africa is the continent with the least rainfall	0.888888888888889	No	RIGHT	650.744499999746	RIGHT	270.934600000146	RIGHT	2191.3446999997177	RIGHT	942.883400000028	57.0	0.7	Probable_Lie	RIGHT	RIGHT	1	626.6293833006586	126	2020-03-02 14:30:00.857517
106	Computer	S200302	0.5	2	1	1	2	0.4	1150.0000023	1433.3333362	2350.0000047	1500.000003	Major	Good_deeds	23	You have downloaded pirated movies	C1_33	0.0	Easy	I2_13	8	Animals are living things	0.0	Yes	RIGHT	321.8280999999479	RIGHT	241.21009999998927	LEFT	838.8082999999824	RIGHT	830.6081999999151	57.4	0.4	Probable_Truth	LEFT	RIGHT	4	865.7682826796664	127	2020-03-02 14:30:22.960841
125	Computer	S200302	0.6666666666666666	2	1	2	1	0.3	1066.6666688	1500.000003	2350.0000047	2216.6666711000003	Minor	Wrong_doings	19	You have given directions to a lost tourist	C1_57	1.0	Hard	I1_46	6	Earth's atmosphere extends up to 10,000km into space	0.0555555555555556	No	RIGHT	577.3785999999745	RIGHT	224.18590000006589	RIGHT	831.2769000003755	RIGHT	1229.0234000001874	57.7	0.3	Probable_Lie	LEFT	LEFT	5	505.7436885517915	128	2020-03-02 14:30:46.033779
63	Self	S200302	0.5	2	1	2	1	0.1	1000.000002	1066.6666688	2350.0000047	1650.0000033	Major	Wrong_doings	20	You have coveted things that belong to others	C1_1	1.0	Hard	I2_38	38	Slavery was abolished in Cuba in 1886	0.0	Yes	RIGHT	555.7831000000988	RIGHT	1440.5495999999405	RIGHT	2807.064200000241	RIGHT	1536.390599999777	57.8	0.1	Probable_Truth	LEFT	RIGHT	5	936.735100000078	129	2020-03-02 14:31:11.954358
103	Computer	S200302	0.5	1	2	2	1	0.7	1350.0000027	1000.000002	2500.000005	1650.0000033	Minor	Good_deeds	16	You have helped with household chores	C2_29	1.0	Easy	I2_33	31	Marijuana is legal in Singapore	0.0	No	RIGHT	296.6969000003701	RIGHT	575.4796999999598	RIGHT	928.1135999999606	LEFT	903.3126999997876	58.5	0.7	Probable_Lie	RIGHT	RIGHT	3	993.3356372991736	130	2020-03-02 14:31:34.729178
115	Computer	S200302	0.6666666666666666	1	2	1	2	0.7	1283.3333359	1150.0000023	2216.6666711000003	2066.6666708	Minor	Wrong_doings	19	You have confessed to your mistake	C1_48	0.0	Easy	I2_22	22	Mexico's National Day is September 16	0.944444444444444	Yes	RIGHT	232.74840000021868	RIGHT	345.7736999998815	RIGHT	1087.7341000000342	RIGHT	1615.2827000000798	59.2	0.7	Probable_Lie	RIGHT	RIGHT	1	748.8888915795264	131	2020-03-02 14:31:58.056702
37	Self	S200302	0.8333333333333334	1	2	2	1	0.8	1350.0000027	1350.0000027	1500.000003	1783.3333369	Major	Wrong_doings	59	You have helped others to pick up their belongings	C1_12	1.0	Easy	I2_23	23	Algeria is Africa's second largest country	0.944444444444444	Yes	RIGHT	160.31569999995554	RIGHT	381.9659999999203	RIGHT	823.9561999998841	RIGHT	1298.629500000061	60.0	0.8	Probable_Truth	RIGHT	RIGHT	6	668.8414000000193	132	2020-03-02 14:32:19.944476
35	Self	S200302	0.8333333333333334	1	2	1	2	0.6	1500.000003	1150.0000023	1933.3333372	2216.6666711000003	Major	Good_deeds	11	You have cheated on a test	C1_40	0.65	Hard	I2_41	5	The current century is 21st	0.0	No	RIGHT	334.33149999973466	RIGHT	453.2897000003686	LEFT	1262.7558000003771	RIGHT	992.8282000000764	60.6	0.6	Probable_Truth	LEFT	LEFT	1	892.8364000003057	133	2020-03-02 14:32:43.256722
83	Self	S200302	0.8333333333333334	1	2	1	2	0.4	1000.000002	1216.6666691	2216.6666711000003	2350.0000047	Major	Good_deeds	25	You have taken months off to volunteer	C1_60	0.85	Easy	I1_42	43	There are 9 rings in the Olympic flag	0.0	Yes	RIGHT	334.8568000001251	RIGHT	408.80529999958526	RIGHT	2178.4496999998737	LEFT	1960.286499999711	61.0	0.4	Probable_Truth	LEFT	LEFT	1	671.6415000000779	134	2020-03-02 14:33:08.168592
31	Self	S200302	0.6666666666666666	2	1	2	1	0.7	1500.000003	1000.000002	2350.0000047	1933.3333372	Major	Good_deeds	30	You have watched a pirated movie	C2_19	0.55	Easy	I2_30	36	Dutch is the 6th Europe's most widely spoken language	0.166666666666667	No	RIGHT	787.1009999998932	RIGHT	432.8209999998762	LEFT	943.7542999999096	RIGHT	2100.5733999995755	61.7	0.7	Probable_Truth	RIGHT	RIGHT	5	621.4919000003647	135	2020-03-02 14:33:32.409752
32	Self	S200302	0.8333333333333334	1	2	1	2	0.4	1000.000002	1216.6666691	1650.0000033	1500.000003	Minor	Wrong_doings	24	You have bribed a police officer	C2_59	0.95	Hard	I1_15	41	It takes 112 years to build the Pisa Tower	0.0	No	RIGHT	247.5491999998667	RIGHT	302.6340000001255	LEFT	1359.489300000405	RIGHT	935.5244999997012	62.1	0.4	Probable_Truth	LEFT	LEFT	1	598.2730000000629	136	2020-03-02 14:33:53.792904
65	Self	S200302	0.6666666666666666	1	2	1	2	0.1	1433.3333362	1066.6666688	1783.3333369	2066.6666708	Minor	Good_deeds	2	You have complimented others for good work	C2_2	0.7	Easy	I2_46	40	Fishes can swim in water	0.0	No	RIGHT	504.4167000000925	LEFT	945.6868999996004	RIGHT	1092.554100000143	RIGHT	1176.531299999624	62.0	0.1	Probable_Lie	RIGHT	RIGHT	1	842.2997000002397	137	2020-03-02 14:34:17.280376
77	Self	S200302	0.6666666666666666	2	1	2	1	0.1	1000.000002	1000.000002	1500.000003	1650.0000033	Minor	Wrong_doings	36	You have shown your appreciation to your teachers	C2_56	0.0	Easy	I1_9	21	South East Asia is currently free from polio	0.0	No	RIGHT	477.3598999995557	RIGHT	248.6657999997988	RIGHT	1232.0617000000311	RIGHT	2181.9182999997797	62.1	0.1	Probable_Truth	LEFT	LEFT	2	672.8377999997974	138	2020-03-02 14:34:39.818021
98	Computer	S200302	0.5	1	2	1	2	0.4	1216.6666691	1066.6666688	1933.3333372	2500.000005	Major	Good_deeds	3	You have helped a friend in need	C2_3	0.1	Easy	I2_18	26	December is the last month of the year	0.666666666666667	No	LEFT	807.4647999997069	LEFT	814.6227000002	RIGHT	735.790199999883	RIGHT	783.1719999999223	62.1	0.4	Probable_Lie	RIGHT	RIGHT	2	838.3435286116431	139	2020-03-02 14:35:03.080197
66	Self	S200302	0.6666666666666666	1	2	1	2	0.6	1283.3333359	1216.6666691	2066.6666708	2500.000005	Major	Good_deeds	20	You have gossiped about your best friend	C1_5	0.2	Easy	I1_37	58	Bears have the biggest eyes among mammals	0.764705882352941	Yes	RIGHT	913.1538999999976	LEFT	871.3465999999244	LEFT	1147.9221999998117	LEFT	2183.939900000041	61.5	0.6	Probable_Lie	LEFT	LEFT	5	1025.6180999999742	140	2020-03-02 14:35:28.865853
118	Computer	S200302	0.6666666666666666	1	2	2	1	0.6	1000.000002	1000.000002	2350.0000047	1783.3333369	Major	Wrong_doings	6	You have sheltered others from disasters	C1_19	1.0	Hard	I2_2	38	Acoustic Kitty refers to cat with implants	0.0	No	LEFT	521.2157000000843	LEFT	635.9472000003734	RIGHT	791.7505000000347	RIGHT	1467.550399999709	61.5	0.6	Probable_Lie	RIGHT	RIGHT	1	504.4918617948347	141	2020-03-02 14:35:51.480943
49	Self	S200302	0.5	1	2	1	2	0.3	1350.0000027	1500.000003	1783.3333369	2500.000005	Major	Good_deeds	10	You have given up your seat in the MRT	C1_15	1.0	Hard	I1_32	39	Most plants emit oxygen in the day	0.722222222222222	No	RIGHT	416.1871999999676	LEFT	826.3243999999759	RIGHT	926.0822999999618	RIGHT	1567.8341000002547	61.2	0.3	Probable_Lie	RIGHT	RIGHT	1	1035.164700000223	142	2020-03-02 14:36:15.961888
104	Computer	S200302	0.5	2	1	1	2	0.2	1500.000003	1000.000002	2066.6666708	2066.6666708	Major	Wrong_doings	18	You have assisted in a crime	C2_42	0.0	Easy	I2_34	40	Today is Sunday	0.777777777777778	Yes	LEFT	795.5648000001929	LEFT	464.6895000000768	LEFT	1607.6950000001489	LEFT	824.703799999952	61.2	0.2	Probable_Lie	LEFT	RIGHT	3	638.6046836617918	143	2020-03-02 14:36:39.488789
