index	Trial_Type	Participant_ID	Trial_Probability	Question_Position_Prediction_Correct	Question_Position_Prediction_Agent	Question_Position_Comparison_Self	Question_Position_Comparison_Irrelevant	Trial_Stake	Trial_Stake_Jitter	Trial_Type_Jitter	Trial_Result_Jitter	Balance_Update_Jitter	Question_Comparison_Condition	Question_Comparison_Type	Question_Comparison_Question	Question_Comparison_Label	Question_Comparison_Item	Question_Comparison_Proportion_Yes	Question_Factual_Condition	Question_Factual_Item	Question_Factual_Question	Question_Factual_Label	Question_Factual_Proportion_DontKnow	Question_Factual_Type	Answer_Prediction_Agent	Answer_Prediction_Agent_RT	Answer_Prediction_Correct	Answer_Prediction_Correct_RT	Answer_Irrelevant	Answer_Irrelevant_RT	Answer_Self	Answer_Self_RT	Trial_Balance	Trial_Balance_Effect	Trial_Condition	Trial_ProbableSide	Prediction_Choice	Prediction_Result	Prediction_RT	Trial_Order	Trial_Datetime
79	Self	S200116	0.6666666666666666	2	1	2	1	0.1	1433.3333362	1433.3333362	2216.6666711000003	1783.3333369	Minor	Wrong_doings	9	You have let a homeless man into your house	C1_33	0.5	Easy	I2_3	21	Africa is the continent with the least rainfall	0.833333333333333	No	RIGHT	870.9908000000155	LEFT	232.87099999998875	LEFT	1943.90199999998	RIGHT	1152.2317999999814	9.9	0.1	Probable_Lie	RIGHT	RIGHT	2	740.4551000000197	0	2020-01-16 11:25:12.293854
110	Computer	S200116	0.5	2	1	2	1	0.7	1066.6666688	1433.3333362	2350.0000047	1500.000003	Major	Good_deeds	20	You have cursed at your loved ones	C2_56	0.7	Easy	I1_58	39	Christmas Day is in March	0.0	Yes	LEFT	900.1848999999993	RIGHT	225.50229999995963	LEFT	1052.360100000044	LEFT	1278.9842999999903	9.9	0.7	Probable_Truth	RIGHT	LEFT	2	920.8193126572844	1	2020-01-16 11:25:35.589548
67	Self	S200116	0.6666666666666666	1	2	1	2	0.1	1066.6666688	1150.0000023	1783.3333369	1933.3333372	Minor	Good_deeds	29	You have started a hotline for victims of bully	C2_8	1.0	Easy	I2_13	8	Kangaroos live in Africa	0.166666666666667	Yes	RIGHT	16.19460000000572	RIGHT	417.8458999999748	LEFT	1526.722800000016	LEFT	1971.534200000008	10.0	0.1	Probable_Truth	RIGHT	RIGHT	6	641.941700000018	2	2020-01-16 11:25:58.670552
65	Self	S200116	0.6666666666666666	1	2	1	2	0.4	1150.0000023	1433.3333362	2216.6666711000003	1783.3333369	Major	Good_deeds	33	You have given way to the handicapped	C2_33	0.0	Easy	I2_8	37	Polish is 20th most spoken language in the World	0.888888888888889	No	RIGHT	240.51419999995005	RIGHT	495.12270000002445	LEFT	1448.4213999999724	RIGHT	1097.2546999999508	10.4	0.4	Probable_Truth	LEFT	LEFT	2	647.0850000000041	3	2020-01-16 11:26:21.758359
46	Self	S200116	0.8333333333333334	2	1	2	1	0.8	1150.0000023	1000.000002	1650.0000033	1933.3333372	Major	Wrong_doings	38	You have started an NGO using your savings	C2_28	0.0	Easy	I2_59	59	February has 30 days	0.0	Yes	RIGHT	983.3284000000048	LEFT	239.75469999999177	LEFT	1100.9061999999972	RIGHT	1206.6667999999936	9.6	0.8	Probable_Lie	RIGHT	RIGHT	1	484.7035999999889	4	2020-01-16 11:26:44.078568
115	Computer	S200116	0.6666666666666666	1	2	1	2	0.6	1283.3333359	1350.0000027	1783.3333369	1650.0000033	Major	Wrong_doings	27	You have signed up as a bone marrow donor	C1_22	0.0	Hard	I1_40	14	There is typically 0.6 grams of mercury in glass thermometer	0.0	No	LEFT	72.33519999999771	LEFT	622.9109000000221	LEFT	1559.5107000000326	LEFT	1678.2777999999894	9.6	0.6	Probable_Lie	LEFT	LEFT	5	512.0912312943864	5	2020-01-16 11:27:07.165869
142	Computer	S200116	0.8333333333333334	2	1	2	1	0.7	1500.000003	1433.3333362	2500.000005	2500.000005	Major	Wrong_doings	38	You have started an NGO using your savings	C2_28	0.0	Easy	I2_59	59	February has 30 days	0.0	Yes	LEFT	759.395599999948	RIGHT	8.03880000000845	LEFT	795.486799999992	RIGHT	1278.9475000000152	9.6	0.7	Probable_Truth	LEFT	LEFT	1	658.849580827843	6	2020-01-16 11:27:31.165538
112	Computer	S200116	0.6666666666666666	1	2	1	2	0.1	1150.0000023	1000.000002	2350.0000047	2350.0000047	Minor	Good_deeds	6	You have intentionally let others cut in line	C2_54	0.85	Hard	I2_50	40	Marijuana is legal in Singapore	0.833333333333333	Yes	LEFT	80.60790000001816	LEFT	891.0032999999657	LEFT	1479.7995999999785	RIGHT	1738.404800000012	9.6	0.1	Probable_Lie	RIGHT	LEFT	3	766.0780735478176	7	2020-01-16 11:27:55.541589
9	Self	S200116	0.5	2	1	1	2	0.1	1000.000002	1500.000003	2500.000005	2216.6666711000003	Major	Good_deeds	16	You have coveted things that belong to others	C1_43	0.7	Hard	I1_9	26	Statute of Liberty is in New York	0.888888888888889	No	RIGHT	788.5899000000336	LEFT	232.77980000000295	RIGHT	1062.721099999976	LEFT	1722.2690000000966	9.5	0.1	Probable_Lie	RIGHT	RIGHT	3	908.6741999999504	8	2020-01-16 11:28:20.046539
93	Self	S200116	0.8333333333333334	2	1	2	1	0.7	1283.3333359	1350.0000027	2350.0000047	1650.0000033	Major	Good_deeds	24	You have queued to enter the MRT train	C2_27	0.9	Hard	I2_40	47	The Amazon forest covers an area of 1 billion acres	0.944444444444444	Yes	RIGHT	602.7976000000308	LEFT	231.5024000000676	LEFT	1870.853000000011	RIGHT	1144.1760000000158	8.8	0.7	Probable_Lie	RIGHT	RIGHT	1	589.5371000000296	9	2020-01-16 11:28:43.694370
35	Self	S200116	0.8333333333333334	1	2	1	2	0.8	1066.6666688	1433.3333362	1500.000003	2500.000005	Minor	Good_deeds	20	You have engaged in drink-driving	C1_49	0.05	Easy	I1_28	60	It takes 112 years to build the Pisa Tower	0.0	No	RIGHT	239.46030000001883	RIGHT	436.7268999999396	RIGHT	1367.3455000000558	LEFT	1146.4989999999489	9.6	0.8	Probable_Lie	LEFT	LEFT	2	679.7619999999824	10	2020-01-16 11:29:06.645721
122	Computer	S200116	0.6666666666666666	2	1	1	2	0.3	1000.000002	1066.6666688	2350.0000047	2500.000005	Major	Good_deeds	35	You have held the elevator doors for others	C1_17	0.7	Hard	I1_46	30	Penguin can fly with their wings	0.0555555555555556	No	LEFT	475.3864000000476	RIGHT	912.4239000000216	LEFT	999.3654999999536	RIGHT	1155.8459999999968	9.6	0.3	Probable_Truth	RIGHT	RIGHT	3	642.4409265405949	11	2020-01-16 11:29:30.325657
18	Self	S200116	0.6666666666666666	1	2	1	2	0.5	1150.0000023	1283.3333359	1933.3333372	2350.0000047	Major	Good_deeds	34	You have borrowed things and never returned	C1_39	0.8	Easy	I2_27	24	A caterpillar has more muscle than a human	0.722222222222222	No	RIGHT	199.1153000000168	RIGHT	386.0039999999572	RIGHT	1919.555599999967	LEFT	1482.39250000006	10.1	0.5	Probable_Truth	LEFT	LEFT	1	658.6569999999483	12	2020-01-16 11:29:54.261537
103	Computer	S200116	0.5	1	2	2	1	0.4	1216.6666691	1283.3333359	1783.3333369	2216.6666711000003	Minor	Wrong_doings	38	You have sheltered others from disasters	C2_24	0.05	Hard	I1_31	31	There are 6 million animal species on Earth	0.0	Yes	LEFT	215.67479999998795	RIGHT	475.96950000001925	LEFT	2088.742300000036	RIGHT	1103.843999999981	10.1	0.4	Probable_Truth	RIGHT	LEFT	1	814.3373819051749	13	2020-01-16 11:30:18.029413
53	Self	S200116	0.5	1	2	2	1	0.6	1216.6666691	1000.000002	1650.0000033	1650.0000033	Major	Wrong_doings	37	You have taken months off to volunteer	C2_34	0.55	Easy	I2_25	48	Beer is an alcoholic drink	1.0	No	RIGHT	224.17619999998809	RIGHT	743.0190999999695	RIGHT	1110.727599999905	RIGHT	1351.714500000071	10.7	0.6	Probable_Truth	LEFT	RIGHT	5	1211.5529000000151	14	2020-01-16 11:30:40.764862
104	Computer	S200116	0.5	2	1	1	2	0.6	1150.0000023	1000.000002	2500.000005	2066.6666708	Minor	Wrong_doings	16	You have offered a listening ear to a friend	C1_6	0.0	Easy	I2_12	9	It takes 500 days to travel from Earth to Mars	0.0	No	LEFT	525.6046999999171	RIGHT	240.34340000002885	RIGHT	1519.408999999996	RIGHT	1100.6208000000015	10.7	0.6	Probable_Truth	LEFT	RIGHT	4	981.516634975768	15	2020-01-16 11:31:04.421614
97	Computer	S200116	0.5	1	2	1	2	0.3	1433.3333362	1500.000003	1933.3333372	1500.000003	Minor	Wrong_doings	10	You have pretended to be busy to avoid a social situation	C1_4	1.0	Hard	I2_51	45	Singapore is a poor country	0.777777777777778	Yes	LEFT	215.9499000000551	LEFT	355.9738000000152	LEFT	1063.7633999999707	LEFT	1499.4865999999547	10.7	0.3	Probable_Lie	LEFT	RIGHT	1	806.1283911353561	16	2020-01-16 11:31:27.293389
27	Self	S200116	0.6666666666666666	2	1	1	2	0.6	1000.000002	1066.6666688	1650.0000033	1650.0000033	Major	Wrong_doings	50	You have helped with household chores	C2_57	0.0	Easy	I1_24	34	There are 9 rings in the Olympic flag	0.888888888888889	Yes	RIGHT	303.3990999999787	RIGHT	216.58949999994093	LEFT	1391.335099999992	RIGHT	909.9062999999888	11.3	0.6	Probable_Truth	RIGHT	RIGHT	5	720.1906999999892	17	2020-01-16 11:31:48.774299
20	Self	S200116	0.6666666666666666	1	2	2	1	0.3	1433.3333362	1000.000002	1783.3333369	1783.3333369	Major	Good_deeds	22	You have kept your promises	C2_29	0.1	Hard	I1_45	45	Brazil is in South America	0.777777777777778	Yes	LEFT	902.8124000000162	RIGHT	575.2041999999165	RIGHT	1028.4798000000137	RIGHT	639.6362000000408	11.3	0.3	Probable_Lie	LEFT	LEFT	6	694.1380000000663	18	2020-01-16 11:32:11.189277
132	Computer	S200116	0.8333333333333334	1	2	2	1	0.8	1216.6666691	1433.3333362	2350.0000047	1933.3333372	Major	Wrong_doings	19	You have drunk alcohol when you were underage	C2_31	1.0	Easy	I1_36	23	North Korea is more developed than South Korea	0.0	Yes	LEFT	224.452499999984	LEFT	616.260900000043	LEFT	1538.6238999999478	LEFT	1287.9751000000397	11.3	0.8	Probable_Lie	RIGHT	LEFT	2	695.6837636924745	19	2020-01-16 11:32:35.061719
62	Self	S200116	0.5	2	1	2	1	0.5	1283.3333359	1433.3333362	2216.6666711000003	2216.6666711000003	Major	Good_deeds	47	You have violated a traffic law	C2_47	0.75	Hard	I2_52	25	Acoustic Kitty refers to cat with implants	0.0	No	RIGHT	687.9389000000629	RIGHT	223.7667999999076	LEFT	1784.4566999999645	LEFT	840.1465000000599	11.8	0.5	Probable_Truth	LEFT	LEFT	1	1028.0800000000454	20	2020-01-16 11:32:59.348920
114	Computer	S200116	0.6666666666666666	1	2	1	2	0.2	1066.6666688	1433.3333362	2066.6666708	1783.3333369	Major	Good_deeds	34	You have borrowed things and never returned	C1_39	0.8	Easy	I2_27	24	A caterpillar has more muscle than a human	0.722222222222222	No	LEFT	86.2933000000794	RIGHT	669.4476000000122	RIGHT	1486.8911999999457	LEFT	1257.0677999999589	11.8	0.2	Probable_Truth	LEFT	LEFT	1	886.2489810843089	21	2020-01-16 11:33:22.653113
32	Self	S200116	0.8333333333333334	1	2	1	2	0.5	1000.000002	1500.000003	2216.6666711000003	2216.6666711000003	Major	Good_deeds	48	You have said sorry when you were rude	C1_23	0.0	Hard	I2_60	16	The hyoid bone is the only jointless bone	0.666666666666667	Yes	RIGHT	232.48790000002373	RIGHT	696.382500000027	RIGHT	1423.8082000000531	RIGHT	1128.8909999999532	12.3	0.5	Probable_Lie	LEFT	LEFT	4	627.6288999999906	22	2020-01-16 11:33:46.268862
86	Self	S200116	0.8333333333333334	1	2	2	1	0.4	1066.6666688	1350.0000027	2066.6666708	1500.000003	Major	Wrong_doings	37	You have engaged in arson	C1_1	0.2	Easy	I1_3	3	Milwaukee Art Museum is located in California	0.944444444444444	Yes	RIGHT	238.99449999998976	RIGHT	364.2344000001003	LEFT	1732.9535000000078	LEFT	903.5801999999647	12.7	0.4	Probable_Truth	LEFT	LEFT	1	705.135499999983	23	2020-01-16 11:34:08.773134
140	Computer	S200116	0.8333333333333334	2	1	2	1	0.2	1350.0000027	1350.0000027	1783.3333369	2350.0000047	Major	Wrong_doings	5	You have volunteered for a disaster-related humanitarian mission	C2_52	0.85	Hard	I1_19	1	R. Amundsen discovered the South Pole	0.0	Yes	LEFT	656.0187999999698	RIGHT	199.22859999996945	RIGHT	2049.877100000004	RIGHT	1128.0069000000594	12.7	0.2	Probable_Truth	RIGHT	RIGHT	2	987.1795539018714	24	2020-01-16 11:34:33.197077
136	Computer	S200116	0.8333333333333334	2	1	1	2	0.3	1283.3333359	1216.6666691	2066.6666708	2066.6666708	Minor	Good_deeds	11	You have bought cocaine	C2_11	0.0	Hard	I1_35	57	"Statueof Liberty is 151 feet tall"	1.0	No	LEFT	695.3704000000016	RIGHT	199.27289999998263	RIGHT	1102.841900000044	LEFT	878.544799999986	12.7	0.3	Probable_Truth	LEFT	LEFT	1	911.255407755894	25	2020-01-16 11:34:56.197231
21	Self	S200116	0.6666666666666666	1	2	2	1	0.4	1066.6666688	1216.6666691	1650.0000033	2066.6666708	Minor	Good_deeds	39	You have cursed at others	C1_34	0.0	Easy	I1_14	50	Animals are living things	0.944444444444444	No	RIGHT	215.57469999993373	LEFT	1055.0583000000415	RIGHT	1005.1062999999658	LEFT	1270.9666999999172	12.3	0.4	Probable_Lie	LEFT	LEFT	5	605.3105000000869	26	2020-01-16 11:35:18.924350
100	Computer	S200116	0.5	1	2	2	1	0.6	1066.6666688	1350.0000027	1650.0000033	1650.0000033	Major	Good_deeds	4	You have returned your trays in food courts	C1_28	0.95	Hard	I1_60	51	Nanyang Technological University is in Australia	0.0555555555555556	No	LEFT	232.68069999994623	LEFT	631.6735000000335	LEFT	1302.842999999939	RIGHT	1038.7398000000303	12.3	0.6	Probable_Lie	RIGHT	RIGHT	3	673.9073966205946	27	2020-01-16 11:35:41.084898
119	Computer	S200116	0.6666666666666666	1	2	2	1	0.3	1000.000002	1150.0000023	1650.0000033	1500.000003	Major	Wrong_doings	46	You have participated in a scamming business	C2_46	0.85	Easy	I2_24	26	South East Asia is currently free from polio	0.0	No	LEFT	126.14810000002308	LEFT	796.1241999998947	LEFT	1804.032099999972	LEFT	1022.6966999999833	12.3	0.3	Probable_Truth	LEFT	RIGHT	3	714.7391246404995	28	2020-01-16 11:36:03.428433
102	Computer	S200116	0.5	1	2	2	1	0.8	1500.000003	1066.6666688	1500.000003	1933.3333372	Minor	Wrong_doings	28	You have sign up to sponsor a needy child	C2_10	0.15	Hard	I1_15	18	There are 7 days in a week	0.0	Yes	LEFT	71.6840999998567	RIGHT	686.5664000001743	RIGHT	1086.014400000067	LEFT	1318.0611000000226	12.3	0.8	Probable_Truth	LEFT	LEFT	1	854.027774964192	29	2020-01-16 11:36:26.012256
116	Computer	S200116	0.6666666666666666	1	2	2	1	0.4	1350.0000027	1216.6666691	2500.000005	2216.6666711000003	Major	Good_deeds	22	You have kept your promises	C2_29	0.1	Hard	I1_45	45	Brazil is in South America	0.777777777777778	Yes	LEFT	215.98489999996676	LEFT	736.377100000027	RIGHT	1161.3801999999396	RIGHT	791.4624000000003	12.3	0.4	Probable_Lie	RIGHT	LEFT	6	618.8064205250365	30	2020-01-16 11:36:49.389132
99	Computer	S200116	0.5	1	2	1	2	0.5	1150.0000023	1216.6666691	2500.000005	1783.3333369	Major	Good_deeds	50	You have made someone cry	C1_47	1.0	Easy	I2_45	17	Hot chocolate was created by the Mayan culture	0.888888888888889	Yes	LEFT	231.6213999999945	LEFT	1143.6989999999696	RIGHT	1943.6217999998464	LEFT	1369.8981999998523	12.3	0.5	Probable_Lie	RIGHT	LEFT	5	677.1173451676725	31	2020-01-16 11:37:13.980984
124	Computer	S200116	0.6666666666666666	2	1	2	1	0.1	1216.6666691	1283.3333359	1783.3333369	1933.3333372	Minor	Wrong_doings	18	You have stopped using products tested on animals	C1_13	0.45	Hard	I2_30	24	There are 6000 spoken languages in the World	0.0	Yes	LEFT	608.2066999999824	RIGHT	248.69420000004536	RIGHT	1434.7900999998728	RIGHT	2431.3993000000664	12.3	0.1	Probable_Truth	LEFT	LEFT	1	660.9246338837894	32	2020-01-16 11:37:38.155808
51	Self	S200116	0.5	1	2	1	2	0.4	1066.6666688	1500.000003	2350.0000047	2500.000005	Major	Wrong_doings	45	You have helped a friend in need	C1_45	0.0	Easy	I2_48	2	Fibers in oranges can be used to make fabric	0.666666666666667	No	RIGHT	112.45400000007066	RIGHT	682.438700000148	RIGHT	1710.548400000107	RIGHT	820.7677000000331	12.7	0.4	Probable_Truth	RIGHT	LEFT	2	962.7468000001044	33	2020-01-16 11:38:02.436815
87	Self	S200116	0.8333333333333334	1	2	2	1	0.7	1350.0000027	1000.000002	1500.000003	1650.0000033	Minor	Good_deeds	42	You have taken responsibility for your actions	C1_42	0.0	Hard	I1_52	52	Pyramid of Giza is 468 feet tall	0.0	No	RIGHT	233.5431000001336	RIGHT	382.0600000001377	LEFT	1456.307899999956	RIGHT	695.0148000000809	13.4	0.7	Probable_Truth	RIGHT	RIGHT	3	540.7935000000634	34	2020-01-16 11:38:23.812508
69	Self	S200116	0.6666666666666666	1	2	2	1	0.2	1000.000002	1500.000003	1500.000003	2500.000005	Major	Good_deeds	30	You have said thank you when you have received help	C2_1	0.0	Hard	I2_41	41	Today is a weekday	0.888888888888889	No	RIGHT	223.9052999998421	RIGHT	332.3955000000751	RIGHT	1397.2529000000122	RIGHT	990.2695000000676	13.6	0.2	Probable_Truth	LEFT	LEFT	1	563.4405999999217	35	2020-01-16 11:38:46.396773
68	Self	S200116	0.6666666666666666	1	2	2	1	0.3	1350.0000027	1066.6666688	1933.3333372	1500.000003	Minor	Wrong_doings	53	You have watched a pirated movie	C2_42	0.0	Hard	I1_32	10	Arabi is the oldest surviving breed of horse	0.0	Yes	RIGHT	648.9869000001818	RIGHT	643.4027000000242	LEFT	2219.8702000000594	LEFT	1304.1892999999618	13.9	0.3	Probable_Truth	LEFT	LEFT	1	782.2768999999425	36	2020-01-16 11:39:10.421496
23	Self	S200116	0.6666666666666666	1	2	2	1	0.2	1216.6666691	1500.000003	2350.0000047	1933.3333372	Major	Wrong_doings	46	You have participated in a scamming business	C2_46	0.85	Easy	I2_24	26	South East Asia is currently free from polio	0.0	No	RIGHT	208.9943999999377	LEFT	738.3488999998917	LEFT	1731.5653000000566	LEFT	760.1302000000487	13.7	0.2	Probable_Lie	LEFT	LEFT	5	660.0799999998799	37	2020-01-16 11:39:34.091740
91	Self	S200116	0.8333333333333334	2	1	1	2	0.8	1150.0000023	1066.6666688	1933.3333372	1500.000003	Minor	Wrong_doings	60	You have a non-judgmental attitude towards everyone	C1_24	1.0	Easy	I2_58	17	Nomophobia is the fear of being without a phone or computer	0.722222222222222	No	RIGHT	308.2995000002029	RIGHT	209.0387999999166	RIGHT	2222.1744999999373	RIGHT	1091.211899999962	14.500000000000002	0.8	Probable_Truth	LEFT	LEFT	1	665.0902999999744	38	2020-01-16 11:39:56.812417
26	Self	S200116	0.6666666666666666	2	1	1	2	0.8	1433.3333362	1433.3333362	2216.6666711000003	1783.3333369	Major	Good_deeds	35	You have held the elevator doors for others	C1_17	0.7	Hard	I1_46	30	Penguin can fly with their wings	0.0555555555555556	No	RIGHT	327.23940000005314	RIGHT	176.66680000002088	LEFT	913.3337999999184	RIGHT	995.8008999999493	15.300000000000002	0.8	Probable_Truth	RIGHT	RIGHT	5	743.0971999999656	39	2020-01-16 11:40:19.404913
133	Computer	S200116	0.8333333333333334	1	2	2	1	0.2	1283.3333359	1350.0000027	1933.3333372	2066.6666708	Minor	Wrong_doings	25	You have eaten something in the MRT train	C1_20	0.0	Easy	I1_43	36	Earth's atmosphere extends up to 10,000km into space	0.944444444444444	No	LEFT	105.17099999992752	LEFT	376.822299999958	RIGHT	1685.8190000000377	LEFT	1094.5039000000634	15.300000000000002	0.2	Probable_Lie	RIGHT	RIGHT	1	562.5192430242233	40	2020-01-16 11:40:42.437170
41	Self	S200116	0.8333333333333334	2	1	1	2	0.5	1283.3333359	1150.0000023	1500.000003	2500.000005	Minor	Good_deeds	58	You have complimented others for good work	C1_46	0.65	Easy	I1_57	19	Vegetarians can eat vegetable products	0.944444444444444	Yes	RIGHT	507.5529999999162	LEFT	287.43630000008125	LEFT	1278.2772999998997	RIGHT	860.3458999998566	14.800000000000002	0.5	Probable_Lie	RIGHT	RIGHT	1	540.7811000000038	41	2020-01-16 11:41:04.924041
2	Self	S200116	0.5	1	2	1	2	0.5	1066.6666688	1283.3333359	1933.3333372	1500.000003	Minor	Good_deeds	59	You have taken part in burglary	C1_38	0.0	Easy	I2_18	60	Feijoa is a type of grape	0.0	No	RIGHT	208.92929999990884	RIGHT	387.97599999998056	LEFT	1335.9418999998525	LEFT	812.3931000000084	15.300000000000002	0.5	Probable_Truth	LEFT	LEFT	1	1105.323300000009	42	2020-01-16 11:41:27.132023
105	Computer	S200116	0.5	2	1	1	2	0.5	1433.3333362	1350.0000027	2066.6666708	2500.000005	Major	Good_deeds	16	You have coveted things that belong to others	C1_43	0.7	Hard	I1_9	26	Statute of Liberty is in New York	0.888888888888889	No	LEFT	644.1972000000078	RIGHT	88.12669999997524	RIGHT	878.7876000001233	LEFT	1299.088399999846	15.300000000000002	0.5	Probable_Truth	LEFT	RIGHT	5	564.3546767713837	43	2020-01-16 11:41:50.532413
76	Self	S200116	0.6666666666666666	2	1	2	1	0.6	1350.0000027	1283.3333359	2500.000005	1650.0000033	Minor	Good_deeds	48	You have confessed to your mistake	C2_36	0.0	Easy	I1_27	46	Mozambique is the world's poorest country	0.833333333333333	Yes	RIGHT	933.3566000000246	LEFT	272.36489999995683	LEFT	1422.9585000000498	RIGHT	1245.591900000136	14.700000000000005	0.6	Probable_Lie	RIGHT	RIGHT	1	572.3017999998774	44	2020-01-16 11:42:14.341652
74	Self	S200116	0.6666666666666666	2	1	1	2	0.7	1216.6666691	1150.0000023	2350.0000047	1933.3333372	Major	Good_deeds	33	You have fabricated facts about yourself	C1_12	0.0	Easy	I2_49	49	The Franco-Prussian War occurred in the 19th century	0.111111111111111	Yes	RIGHT	362.0464999999058	RIGHT	191.18800000001104	RIGHT	1053.9757999999892	LEFT	1164.5633999999063	15.400000000000002	0.7	Probable_Truth	RIGHT	RIGHT	6	738.3250999998836	45	2020-01-16 11:42:37.076695
83	Self	S200116	0.8333333333333334	1	2	1	2	0.6	1216.6666691	1066.6666688	2500.000005	1933.3333372	Minor	Wrong_doings	58	You have used heroin	C1_3	0.0	Hard	I2_6	22	Carnivore refers to meat-eater	0.0	No	RIGHT	142.34959999998864	RIGHT	509.1523999999481	RIGHT	1455.917399999862	LEFT	796.3237999999819	16.000000000000004	0.6	Probable_Truth	LEFT	LEFT	1	612.2144000000844	46	2020-01-16 11:42:59.884135
118	Computer	S200116	0.6666666666666666	1	2	2	1	0.8	1433.3333362	1500.000003	1933.3333372	2500.000005	Minor	Wrong_doings	54	You have made counterfeit money	C1_27	0.15	Easy	I1_26	42	The Seine river is 50 feet above sea level	0.0	Yes	LEFT	56.8670000000111	RIGHT	773.2201000001169	RIGHT	2316.923999999972	LEFT	919.7828999999728	16.000000000000004	0.8	Probable_Truth	RIGHT	RIGHT	4	932.2408402899408	47	2020-01-16 11:43:24.820078
109	Computer	S200116	0.5	2	1	2	1	0.8	1283.3333359	1150.0000023	2216.6666711000003	1933.3333372	Major	Good_deeds	40	You have been arrested	C1_16	0.05	Hard	I2_26	58	The Earth is round	0.0	Yes	LEFT	402.4010000000544	LEFT	175.95589999996264	RIGHT	886.1572999999225	LEFT	712.0073999999477	16.000000000000004	0.8	Probable_Lie	LEFT	RIGHT	2	548.5172711867384	48	2020-01-16 11:44:54.372487
43	Self	S200116	0.8333333333333334	2	1	1	2	0.7	1350.0000027	1350.0000027	1783.3333369	2350.0000047	Minor	Wrong_doings	46	You have failed to keep promises	C1_8	0.0	Hard	I1_13	54	Singapore is a country	0.944444444444444	No	RIGHT	298.21399999991627	RIGHT	88.621799999828	RIGHT	718.8375999999153	LEFT	984.6066999998584	16.700000000000003	0.7	Probable_Truth	RIGHT	RIGHT	5	514.8956000000453	49	2020-01-16 11:45:16.387582
24	Self	S200116	0.6666666666666666	2	1	1	2	0.2	1350.0000027	1000.000002	2066.6666708	1500.000003	Major	Good_deeds	35	You have bribed someone to improve a grade	C2_3	0.65	Easy	I2_44	38	Some owl species hunt fish	0.0555555555555556	No	RIGHT	653.7528999999722	LEFT	88.37290000019493	RIGHT	1631.296300000031	LEFT	1420.4661999999644	16.500000000000004	0.2	Probable_Lie	LEFT	LEFT	5	577.0626000000902	50	2020-01-16 11:45:39.252669
78	Self	S200116	0.6666666666666666	2	1	2	1	0.5	1000.000002	1000.000002	2066.6666708	2216.6666711000003	Minor	Wrong_doings	45	You have bribed a police officer	C1_48	0.9	Hard	I1_21	50	Singapore ranked 8th in World's smallest countries	0.888888888888889	Yes	RIGHT	286.2238000000161	RIGHT	184.3302000002041	LEFT	1886.5824000001796	LEFT	838.8294000001224	17.000000000000004	0.5	Probable_Truth	LEFT	LEFT	1	735.0887000000057	51	2020-01-16 11:46:02.042979
1	Self	S200116	0.5	1	2	1	2	0.6	1000.000002	1150.0000023	1650.0000033	2216.6666711000003	Minor	Wrong_doings	10	You have pretended to be busy to avoid a social situation	C1_4	1.0	Hard	I2_51	45	Singapore is a poor country	0.777777777777778	Yes	RIGHT	545.3147999999146	LEFT	888.8441999999941	LEFT	983.8093000000754	LEFT	1222.3814999999831	16.400000000000002	0.6	Probable_Lie	LEFT	RIGHT	1	906.6402999999356	52	2020-01-16 11:46:25.180440
75	Self	S200116	0.6666666666666666	2	1	1	2	0.2	1283.3333359	1350.0000027	1500.000003	2066.6666708	Major	Wrong_doings	30	You have lost everything just to help others	C2_45	0.05	Hard	I1_54	3	There are 10 continents in the World	0.611111111111111	No	RIGHT	709.9838999999974	RIGHT	495.21389999995336	LEFT	1552.2481999998945	LEFT	1445.3734999999597	16.6	0.2	Probable_Truth	LEFT	LEFT	1	766.9376000001193	53	2020-01-16 11:46:48.923893
85	Self	S200116	0.8333333333333334	1	2	2	1	0.5	1283.3333359	1150.0000023	2350.0000047	2350.0000047	Minor	Good_deeds	36	You have gossiped about your best friend	C2_2	0.55	Hard	I2_22	48	Mageirocophobia is a fear of deathly disease	0.0	No	RIGHT	86.66790000006586	RIGHT	322.1740999999838	RIGHT	1923.019899999872	LEFT	966.5293000000474	17.1	0.5	Probable_Truth	RIGHT	RIGHT	6	654.2994999999792	54	2020-01-16 11:47:12.587986
127	Computer	S200116	0.6666666666666666	2	1	2	1	0.5	1350.0000027	1216.6666691	2216.6666711000003	2216.6666711000003	Major	Wrong_doings	3	You have downloaded pirated movies	C2_35	1.0	Hard	I2_34	44	The Moon orbits around the Earth	0.0555555555555556	Yes	LEFT	781.4117999998871	RIGHT	216.08759999980973	RIGHT	1551.4291000001776	LEFT	824.4285000000673	17.1	0.5	Probable_Truth	RIGHT	LEFT	2	551.0439485485825	55	2020-01-16 11:47:36.083352
39	Self	S200116	0.8333333333333334	1	2	2	1	0.6	1150.0000023	1283.3333359	1783.3333369	1783.3333369	Major	Good_deeds	49	You have risked your life to save another person's life	C1_44	0.55	Hard	I2_23	5	Red is a color	1.0	Yes	RIGHT	168.4616999998525	RIGHT	315.00340000002325	RIGHT	922.5790000000416	LEFT	1054.6125000000757	17.700000000000003	0.6	Probable_Truth	LEFT	LEFT	1	669.8377000000164	56	2020-01-16 11:47:57.788205
19	Self	S200116	0.6666666666666666	1	2	1	2	0.8	1283.3333359	1066.6666688	2216.6666711000003	1650.0000033	Major	Wrong_doings	27	You have signed up as a bone marrow donor	C1_22	0.0	Hard	I1_40	14	There is typically 0.6 grams of mercury in glass thermometer	0.0	No	RIGHT	199.17579999992088	RIGHT	304.8149000001104	RIGHT	1310.6626999999662	RIGHT	1486.7236000000048	18.500000000000004	0.8	Probable_Lie	LEFT	LEFT	4	743.257099999937	57	2020-01-16 11:48:20.627152
135	Computer	S200116	0.8333333333333334	1	2	2	1	0.3	1500.000003	1066.6666688	2066.6666708	2500.000005	Major	Good_deeds	49	You have risked your life to save another person's life	C1_44	0.55	Hard	I2_23	5	Red is a color	1.0	Yes	LEFT	168.90880000005382	LEFT	732.238499999994	RIGHT	750.6058999999823	LEFT	808.0970999999408	18.500000000000004	0.3	Probable_Lie	LEFT	RIGHT	1	981.8089183894268	58	2020-01-16 11:48:43.772607
16	Self	S200116	0.6666666666666666	1	2	1	2	0.7	1500.000003	1150.0000023	2500.000005	2500.000005	Minor	Good_deeds	6	You have intentionally let others cut in line	C2_54	0.85	Hard	I2_50	40	Marijuana is legal in Singapore	0.833333333333333	Yes	RIGHT	183.82059999999	RIGHT	451.6156000001956	LEFT	1816.0007999999837	RIGHT	1086.7585000000872	19.200000000000003	0.7	Probable_Lie	LEFT	LEFT	3	566.2884999999278	59	2020-01-16 11:49:08.099105
123	Computer	S200116	0.6666666666666666	2	1	1	2	0.8	1500.000003	1500.000003	2066.6666708	2350.0000047	Major	Wrong_doings	50	You have helped with household chores	C2_57	0.0	Easy	I1_24	34	There are 9 rings in the Olympic flag	0.888888888888889	Yes	LEFT	295.2207000000726	LEFT	73.5453999998299	LEFT	743.3156000001873	RIGHT	867.3989999999776	19.200000000000003	0.8	Probable_Lie	LEFT	RIGHT	2	926.8832208273188	60	2020-01-16 11:49:30.995308
71	Self	S200116	0.6666666666666666	1	2	2	1	0.8	1283.3333359	1000.000002	2350.0000047	2350.0000047	Minor	Wrong_doings	51	You have been donating all your excess food to a food bank	C1_53	1.0	Easy	I1_10	23	French is Singapore's official language	1.0	No	RIGHT	232.96049999999013	LEFT	764.7935999998481	LEFT	1521.398500000032	LEFT	2006.9168000002264	18.4	0.8	Probable_Lie	RIGHT	RIGHT	2	679.7270999998091	61	2020-01-16 11:49:55.756171
81	Self	S200116	0.8333333333333334	1	2	1	2	0.3	1433.3333362	1500.000003	1933.3333372	2216.6666711000003	Minor	Good_deeds	1	You have provided shelter for stray animals	C2_58	0.65	Easy	I2_35	21	Lehman Brothers went bankrupt on 20th September	0.944444444444444	Yes	RIGHT	79.01349999997365	RIGHT	716.5112000000136	RIGHT	2261.2596999999823	LEFT	1473.882900000035	18.700000000000003	0.3	Probable_Truth	LEFT	LEFT	1	1249.7396999999637	62	2020-01-16 11:50:21.196378
29	Self	S200116	0.6666666666666666	2	1	2	1	0.3	1500.000003	1283.3333359	1500.000003	1933.3333372	Minor	Wrong_doings	17	You have been physically hurt to protect others	C2_18	0.95	Easy	I1_38	46	Airbags in cars are filled with sodium azide	0.833333333333333	No	RIGHT	332.1163999999044	RIGHT	32.68039999989014	LEFT	1699.1398000000115	RIGHT	2279.101999999966	19.000000000000004	0.3	Probable_Truth	LEFT	LEFT	2	592.4301000000014	63	2020-01-16 11:50:44.924136
72	Self	S200116	0.6666666666666666	2	1	1	2	0.8	1500.000003	1066.6666688	1933.3333372	2350.0000047	Minor	Good_deeds	14	You have faked an illness	C1_9	0.0	Hard	I2_36	36	The current century is 21st	0.0	Yes	RIGHT	580.9461999999712	RIGHT	207.8836999999112	RIGHT	912.1691999998802	LEFT	929.2685999998866	19.800000000000004	0.8	Probable_Truth	LEFT	LEFT	1	661.046099999794	64	2020-01-16 11:51:07.643155
89	Self	S200116	0.8333333333333334	2	1	1	2	0.3	1000.000002	1150.0000023	2216.6666711000003	2066.6666708	Minor	Wrong_doings	27	You have been restricting your electricity consumption	C2_43	0.8	Easy	I2_33	58	A triangle has three sides	0.0555555555555556	Yes	RIGHT	349.6997000002011	RIGHT	104.2026000000078	RIGHT	912.0465999999396	RIGHT	1659.866700000066	20.100000000000005	0.3	Probable_Truth	RIGHT	RIGHT	3	553.9988000000449	65	2020-01-16 11:51:30.236116
17	Self	S200116	0.6666666666666666	1	2	1	2	0.1	1350.0000027	1350.0000027	1500.000003	1500.000003	Minor	Wrong_doings	29	You have volunteered every week for many years	C2_6	0.85	Hard	I2_42	27	Obama is the USA president now	0.0555555555555556	Yes	RIGHT	112.61160000003656	RIGHT	483.8455999999951	LEFT	1183.6819999998625	RIGHT	1420.2975999999126	20.200000000000006	0.1	Probable_Truth	LEFT	LEFT	1	570.5788000000211	66	2020-01-16 11:51:52.283389
34	Self	S200116	0.8333333333333334	1	2	1	2	0.3	1216.6666691	1216.6666691	1650.0000033	2350.0000047	Major	Wrong_doings	44	You have illegally stayed in a country	C2_48	0.05	Easy	I2_5	43	China is a part of Asia	0.0	Yes	RIGHT	184.00199999996403	LEFT	1285.6630999999652	RIGHT	1799.136800000042	LEFT	1105.6879999998728	19.90000000000001	0.3	Probable_Lie	RIGHT	RIGHT	1	958.1985000002078	67	2020-01-16 11:52:16.627372
125	Computer	S200116	0.6666666666666666	2	1	2	1	0.4	1150.0000023	1150.0000023	1500.000003	1500.000003	Minor	Wrong_doings	17	You have been physically hurt to protect others	C2_18	0.95	Easy	I1_38	46	Airbags in cars are filled with sodium azide	0.833333333333333	No	LEFT	860.6187000000318	LEFT	56.93160000009812	LEFT	1131.422999999813	RIGHT	1142.0894999998836	19.90000000000001	0.4	Probable_Lie	LEFT	RIGHT	1	817.3543561439649	68	2020-01-16 11:52:38.506954
111	Computer	S200116	0.5	2	1	2	1	0.2	1000.000002	1283.3333359	1933.3333372	1650.0000033	Major	Wrong_doings	43	You have switched off appliances when not in use	C2_16	0.9	Easy	I2_53	29	The first Olympic Games was held in the 5th century B.C	0.611111111111111	Yes	LEFT	470.41730000000825	LEFT	143.71470000014597	RIGHT	1933.9358000001996	RIGHT	1159.3517999999676	19.90000000000001	0.2	Probable_Lie	RIGHT	RIGHT	3	786.886356653773	69	2020-01-16 11:53:01.434853
52	Self	S200116	0.5	1	2	2	1	0.5	1500.000003	1350.0000027	1933.3333372	2350.0000047	Major	Good_deeds	34	You have helped your parents when asked to	C1_14	0.1	Easy	I2_38	38	Teddy Roosevelt was the youngest US President	0.0	Yes	RIGHT	96.42439999993258	LEFT	803.8985000000594	RIGHT	1720.8906000000752	RIGHT	1079.2456000003767	19.40000000000001	0.5	Probable_Lie	RIGHT	LEFT	6	1007.488100000046	70	2020-01-16 11:53:25.851072
25	Self	S200116	0.6666666666666666	2	1	1	2	0.4	1150.0000023	1216.6666691	1783.3333369	2216.6666711000003	Minor	Good_deeds	57	You have deceived a loved one	C1_35	0.1	Easy	I1_5	4	There are 20 bones in the human skull	0.833333333333333	Yes	RIGHT	418.2937000000493	RIGHT	175.89259999977003	LEFT	1896.1030000000392	LEFT	943.4468999997988	19.800000000000004	0.4	Probable_Truth	RIGHT	RIGHT	5	793.7870000000657	71	2020-01-16 11:53:49.019934
61	Self	S200116	0.5	2	1	2	1	0.3	1216.6666691	1000.000002	2066.6666708	1650.0000033	Major	Good_deeds	15	You have kidnapped someone	C1_19	0.65	Easy	I1_44	28	A dog has four legs	0.944444444444444	Yes	RIGHT	1157.609500000035	LEFT	312.90609999996377	RIGHT	1013.9287000001788	LEFT	888.8385000000198	19.500000000000004	0.3	Probable_Lie	RIGHT	RIGHT	3	1173.1660999998894	72	2020-01-16 11:54:12.075376
44	Self	S200116	0.8333333333333334	2	1	2	1	0.4	1066.6666688	1283.3333359	2500.000005	2216.6666711000003	Major	Wrong_doings	5	You have volunteered for a disaster-related humanitarian mission	C2_52	0.85	Hard	I1_19	1	R. Amundsen discovered the South Pole	0.0	Yes	RIGHT	923.8783000000694	RIGHT	360.9762999999475	RIGHT	1407.7517999999145	RIGHT	1159.0515000002597	19.9	0.4	Probable_Truth	RIGHT	RIGHT	5	688.4052999998858	73	2020-01-16 11:54:36.259693
120	Computer	S200116	0.6666666666666666	2	1	1	2	0.2	1433.3333362	1433.3333362	1933.3333372	2066.6666708	Major	Good_deeds	35	You have bribed someone to improve a grade	C2_3	0.65	Easy	I2_44	38	Some owl species hunt fish	0.0555555555555556	No	LEFT	336.574599999949	LEFT	80.69679999971413	RIGHT	919.6806999998444	LEFT	1117.1254999999292	19.9	0.2	Probable_Lie	RIGHT	RIGHT	1	965.6377621692204	74	2020-01-16 11:54:59.115696
47	Self	S200116	0.8333333333333334	2	1	2	1	0.6	1500.000003	1433.3333362	1933.3333372	1783.3333369	Minor	Good_deeds	52	You have been sued	C1_5	0.95	Hard	I2_1	43	The first Grammy awards was held in 1959	0.888888888888889	No	RIGHT	283.45919999992475	RIGHT	231.59669999995455	RIGHT	1401.074900000367	LEFT	879.3890000001738	20.500000000000004	0.6	Probable_Truth	LEFT	LEFT	1	704.0296000000126	75	2020-01-16 11:55:21.843201
128	Computer	S200116	0.8333333333333334	1	2	1	2	0.6	1066.6666688	1000.000002	1783.3333369	1650.0000033	Major	Good_deeds	48	You have said sorry when you were rude	C1_23	0.0	Hard	I2_60	16	The hyoid bone is the only jointless bone	0.666666666666667	Yes	LEFT	53.61240000001999	LEFT	508.8410000003023	RIGHT	2237.9439000001184	RIGHT	1158.0825000000914	20.500000000000004	0.6	Probable_Lie	LEFT	RIGHT	1	505.0023285711617	76	2020-01-16 11:55:44.378988
38	Self	S200116	0.8333333333333334	1	2	2	1	0.2	1350.0000027	1350.0000027	1933.3333372	1500.000003	Minor	Wrong_doings	31	You have thrown your trash into the bin	C2_25	0.95	Hard	I1_4	28	Singapore is in Africa	0.0555555555555556	No	RIGHT	175.50819999996747	RIGHT	716.3752999999815	LEFT	861.9651999997586	RIGHT	1022.5875999999516	20.700000000000003	0.2	Probable_Truth	RIGHT	RIGHT	4	977.620200000274	77	2020-01-16 11:56:06.842186
130	Computer	S200116	0.8333333333333334	1	2	1	2	0.5	1350.0000027	1216.6666691	2500.000005	2216.6666711000003	Major	Wrong_doings	44	You have illegally stayed in a country	C2_48	0.05	Easy	I2_5	43	China is a part of Asia	0.0	Yes	LEFT	72.12370000024748	RIGHT	771.1639999997715	RIGHT	975.393599999734	LEFT	862.8025000002708	20.700000000000003	0.5	Probable_Truth	RIGHT	RIGHT	5	732.1985047654143	78	2020-01-16 11:56:30.115704
98	Computer	S200116	0.5	1	2	1	2	0.7	1350.0000027	1433.3333362	2216.6666711000003	2350.0000047	Minor	Good_deeds	59	You have taken part in burglary	C1_38	0.0	Easy	I2_18	60	Feijoa is a type of grape	0.0	No	LEFT	159.97699999979886	LEFT	366.7419999997037	LEFT	1943.701600000168	LEFT	855.8124999999563	20.700000000000003	0.7	Probable_Lie	RIGHT	RIGHT	2	541.2408347891181	79	2020-01-16 11:56:53.898680
10	Self	S200116	0.5	2	1	1	2	0.2	1500.000003	1283.3333359	2350.0000047	1500.000003	Minor	Good_deeds	40	You have rescued others from a catastrophe	C1_40	1.0	Hard	I2_39	12	The sun rises at night	0.722222222222222	No	RIGHT	1553.9547999997012	LEFT	465.05200000001423	LEFT	1215.9836000000723	RIGHT	1515.9899000000223	20.500000000000004	0.2	Probable_Lie	LEFT	LEFT	4	927.7792000002592	80	2020-01-16 11:57:18.787475
80	Self	S200116	0.8333333333333334	1	2	1	2	0.8	1000.000002	1283.3333359	1650.0000033	2500.000005	Major	Wrong_doings	3	You have started a movement to support a cause	C1_36	0.95	Hard	I1_48	35	It is snowing outside now	0.0	No	RIGHT	72.46579999991809	RIGHT	327.0997999998144	LEFT	816.7527999999038	RIGHT	1285.7053000002452	21.300000000000004	0.8	Probable_Truth	RIGHT	RIGHT	6	578.2249999997475	81	2020-01-16 11:57:40.874459
59	Self	S200116	0.5	2	1	1	2	0.1	1350.0000027	1066.6666688	2500.000005	1500.000003	Minor	Good_deeds	13	You have shown your appreciation to your teachers	C2_13	0.0	Hard	I1_42	12	It sometimes snows in Singapore	1.0	Yes	RIGHT	829.5874999998887	LEFT	104.90449999997507	LEFT	751.2431999998626	RIGHT	940.5489000000672	21.200000000000003	0.1	Probable_Lie	LEFT	LEFT	4	647.3175999999512	82	2020-01-16 11:58:03.139652
131	Computer	S200116	0.8333333333333334	1	2	1	2	0.7	1150.0000023	1500.000003	1650.0000033	1783.3333369	Minor	Good_deeds	20	You have engaged in drink-driving	C1_49	0.05	Easy	I1_28	60	It takes 112 years to build the Pisa Tower	0.0	No	LEFT	176.2933999998495	LEFT	298.09900000009293	LEFT	2008.6812999998076	LEFT	937.972599999739	21.200000000000003	0.7	Probable_Lie	RIGHT	LEFT	3	573.5819056548971	83	2020-01-16 11:58:25.779548
107	Computer	S200116	0.5	2	1	1	2	0.3	1500.000003	1500.000003	1500.000003	1783.3333369	Minor	Wrong_doings	6	You have engaged in money laundering	C2_40	0.0	Hard	I1_33	33	The hardest bone in human body is the jawbone	0.888888888888889	No	LEFT	604.5742999999675	RIGHT	152.18360000017128	LEFT	1678.968000000168	LEFT	1201.4531999998326	21.200000000000003	0.3	Probable_Truth	RIGHT	LEFT	1	681.0236596033853	84	2020-01-16 11:58:48.955646
6	Self	S200116	0.5	1	2	2	1	0.4	1350.0000027	1500.000003	2500.000005	2066.6666708	Minor	Wrong_doings	28	You have sign up to sponsor a needy child	C2_10	0.15	Hard	I1_15	18	There are 7 days in a week	0.0	Yes	RIGHT	552.3754999999255	RIGHT	764.8876000002929	RIGHT	871.7710000000807	RIGHT	1908.8612999998984	21.6	0.4	Probable_Truth	RIGHT	LEFT	2	1083.549800000128	85	2020-01-16 11:59:14.131439
40	Self	S200116	0.8333333333333334	2	1	1	2	0.1	1216.6666691	1216.6666691	2350.0000047	2066.6666708	Minor	Good_deeds	11	You have bought cocaine	C2_11	0.0	Hard	I1_35	57	"Statue of Liberty is 151 feet tall"	1.0	No	RIGHT	434.9190999996608	RIGHT	193.05889999986903	RIGHT	1184.5046999997066	LEFT	797.5789000001896	21.700000000000003	0.1	Probable_Truth	RIGHT	RIGHT	3	715.5204999999114	86	2020-01-16 11:59:36.883179
88	Self	S200116	0.8333333333333334	2	1	1	2	0.5	1433.3333362	1283.3333359	1500.000003	1783.3333369	Major	Good_deeds	60	You have given directions to a lost tourist	C1_11	0.45	Hard	I1_47	41	Most plants emit oxygen in the day	0.777777777777778	Yes	RIGHT	292.2116999998252	RIGHT	160.1181999999426	RIGHT	1536.0637000003408	RIGHT	962.5021000001652	22.200000000000003	0.5	Probable_Truth	RIGHT	RIGHT	4	890.0481999999101	87	2020-01-16 11:59:59.298987
14	Self	S200116	0.5	2	1	2	1	0.5	1150.0000023	1216.6666691	2066.6666708	1933.3333372	Major	Good_deeds	20	You have cursed at your loved ones	C2_56	0.7	Easy	I1_58	39	Christmas Day is in March	0.0	Yes	RIGHT	556.6435000000638	LEFT	135.83010000002105	LEFT	948.7801000000218	LEFT	904.5977999999196	21.700000000000003	0.5	Probable_Lie	LEFT	RIGHT	1	1608.280299999933	88	2020-01-16 12:00:22.394251
77	Self	S200116	0.6666666666666666	2	1	2	1	0.3	1066.6666688	1216.6666691	1650.0000033	1500.000003	Major	Wrong_doings	12	You have engaged in underage smoking	C2_14	0.95	Hard	I2_46	54	Malay is one of the races in Singapore	0.0	No	RIGHT	390.0850999998511	RIGHT	249.09230000002933	RIGHT	1205.7889999996405	LEFT	935.7466999999816	22.000000000000004	0.3	Probable_Truth	RIGHT	RIGHT	6	731.7074999996294	89	2020-01-16 12:00:43.913746
56	Self	S200116	0.5	2	1	1	2	0.6	1000.000002	1216.6666691	2350.0000047	2066.6666708	Minor	Good_deeds	19	You have taken part in violent demonstration	C1_59	0.2	Hard	I1_12	44	Cernan was the second last man to walk on the Moon	0.833333333333333	No	RIGHT	410.77389999964	RIGHT	192.68110000029992	RIGHT	1928.0275000000984	LEFT	1332.8165000002627	22.600000000000005	0.6	Probable_Truth	LEFT	LEFT	3	1176.3992999999573	90	2020-01-16 12:01:08.163193
143	Computer	S200116	0.8333333333333334	2	1	2	1	0.1	1000.000002	1000.000002	1500.000003	1933.3333372	Minor	Good_deeds	52	You have been sued	C1_5	0.95	Hard	I2_1	43	The first Grammy awards was held in 1959	0.888888888888889	No	LEFT	579.5948999998473	LEFT	103.93290000001798	RIGHT	1237.0184999999765	LEFT	671.0478999998486	22.600000000000005	0.1	Probable_Lie	RIGHT	LEFT	3	813.339034954994	91	2020-01-16 12:01:29.578221
92	Self	S200116	0.8333333333333334	2	1	2	1	0.2	1500.000003	1000.000002	2066.6666708	2350.0000047	Major	Wrong_doings	11	You have bought cigarettes for a minor	C2_9	0.05	Hard	I1_6	6	Cleopatra was born in Greece	0.0	No	RIGHT	262.0804999996835	RIGHT	216.0291000000143	RIGHT	1351.821100000052	LEFT	1615.8108999998149	22.800000000000004	0.2	Probable_Truth	LEFT	LEFT	1	855.9104000000843	92	2020-01-16 12:01:53.378987
82	Self	S200116	0.8333333333333334	1	2	1	2	0.1	1150.0000023	1433.3333362	2216.6666711000003	2066.6666708	Major	Good_deeds	2	You have held the door open for a stranger	C2_37	0.0	Easy	I2_21	1	Today is Sunday	0.666666666666667	Yes	RIGHT	78.78940000000512	RIGHT	872.472900000048	LEFT	830.6280000001607	RIGHT	909.4392999995762	22.90000000000001	0.1	Probable_Truth	RIGHT	RIGHT	5	555.4591999998593	93	2020-01-16 12:02:16.073933
90	Self	S200116	0.8333333333333334	2	1	1	2	0.6	1350.0000027	1216.6666691	1650.0000033	2216.6666711000003	Major	Wrong_doings	9	You have done something against your values	C2_60	1.0	Easy	I1_8	8	Singapore has four seasons	0.666666666666667	Yes	RIGHT	307.71089999961987	RIGHT	224.26220000033936	LEFT	1079.0455999999722	LEFT	1889.204499999778	23.500000000000007	0.6	Probable_Truth	LEFT	LEFT	1	728.4419000002345	94	2020-01-16 12:02:39.315026
84	Self	S200116	0.8333333333333334	1	2	2	1	0.2	1500.000003	1216.6666691	1783.3333369	1783.3333369	Major	Wrong_doings	7	You have stolen something	C2_7	0.95	Easy	I1_1	6	December is the last month of the year	0.888888888888889	Yes	RIGHT	264.67360000015105	RIGHT	330.7729000002837	RIGHT	1248.8226999998917	LEFT	672.4303999999393	23.700000000000006	0.2	Probable_Truth	LEFT	LEFT	1	753.6438000001908	95	2020-01-16 12:03:01.442715
8	Self	S200116	0.5	2	1	1	2	0.6	1066.6666688	1350.0000027	1783.3333369	2066.6666708	Minor	Wrong_doings	16	You have offered a listening ear to a friend	C1_6	0.0	Easy	I2_12	9	It takes 500 days to travel from Earth to Mars	0.0	No	RIGHT	562.3930000001565	RIGHT	72.12350000008882	RIGHT	1022.7369999997792	RIGHT	902.7460000002064	24.300000000000008	0.6	Probable_Truth	RIGHT	LEFT	3	1466.835700000047	96	2020-01-16 12:04:58.385989
48	Self	S200116	0.5	1	2	1	2	0.7	1000.000002	1216.6666691	2216.6666711000003	1783.3333369	Major	Wrong_doings	7	You have used a fake name online	C1_37	1.0	Hard	I1_11	53	It is night time now	0.0	Yes	RIGHT	287.6143999997112	RIGHT	495.8827000000383	LEFT	879.5846999996684	LEFT	1145.4549999998562	25.000000000000007	0.7	Probable_Truth	LEFT	LEFT	1	1164.0145999999731	97	2020-01-16 12:05:21.154607
11	Self	S200116	0.5	2	1	1	2	0.4	1283.3333359	1433.3333362	1500.000003	1783.3333369	Minor	Wrong_doings	6	You have engaged in money laundering	C2_40	0.0	Hard	I1_33	33	The hardest bone in human body is the jawbone	0.888888888888889	No	RIGHT	483.0905999997413	LEFT	95.6467999999404	LEFT	1470.549900000151	LEFT	1009.8327999999128	24.60000000000001	0.4	Probable_Lie	LEFT	RIGHT	1	642.7453000001151	98	2020-01-16 12:05:43.433891
12	Self	S200116	0.5	2	1	2	1	0.8	1216.6666691	1066.6666688	1933.3333372	2350.0000047	Minor	Wrong_doings	56	You have adopted a zero-waste lifestyle	C2_20	0.05	Easy	I1_29	53	Dutch is the 6th Europe's most widely spoken language	0.0	Yes	RIGHT	443.7596000002486	RIGHT	112.15509999965434	RIGHT	1961.3711000001783	LEFT	1390.154799999891	25.40000000000001	0.8	Probable_Truth	LEFT	LEFT	3	843.8991999996688	99	2020-01-16 12:06:07.330565
66	Self	S200116	0.6666666666666666	1	2	1	2	0.5	1216.6666691	1283.3333359	1650.0000033	2216.6666711000003	Minor	Wrong_doings	1	You have organized a violent protest	C1_51	1.0	Hard	I2_2	32	Saturn's rings are between 30 and 300 feet thick	0.0	Yes	RIGHT	153.35129999994024	RIGHT	309.9207000000206	RIGHT	1472.2073000002638	LEFT	1144.303100000343	25.90000000000001	0.5	Probable_Truth	LEFT	LEFT	1	683.9540000000852	100	2020-01-16 12:06:30.034405
138	Computer	S200116	0.8333333333333334	2	1	1	2	0.5	1433.3333362	1283.3333359	1933.3333372	1650.0000033	Major	Wrong_doings	28	You have cheated on a test	C1_58	0.05	Easy	I2_54	35	Cheese is an Asian staple	0.0	No	LEFT	571.2644000000182	RIGHT	55.304399999840825	LEFT	1600.2371999998104	LEFT	845.6898999997975	25.90000000000001	0.5	Probable_Lie	LEFT	LEFT	4	871.3880179720402	101	2020-01-16 12:06:52.842433
50	Self	S200116	0.5	1	2	1	2	0.2	1150.0000023	1066.6666688	1783.3333369	1500.000003	Minor	Good_deeds	26	You have assisted in a crime	C1_7	0.05	Easy	I1_2	25	Slavery was abolished in Cuba in 1886	0.611111111111111	Yes	RIGHT	191.6531000001669	RIGHT	450.1970000001165	RIGHT	1551.804600000196	LEFT	901.1835000001156	26.10000000000001	0.2	Probable_Truth	LEFT	LEFT	1	916.7686000000684	102	2020-01-16 12:07:14.930126
13	Self	S200116	0.5	2	1	2	1	0.3	1350.0000027	1150.0000023	2216.6666711000003	1650.0000033	Major	Good_deeds	40	You have been arrested	C1_16	0.05	Hard	I2_26	58	The Earth is round	0.0	Yes	RIGHT	583.3345000000918	LEFT	63.77689999999348	RIGHT	942.2903999998198	LEFT	656.119000000217	25.800000000000008	0.3	Probable_Lie	RIGHT	RIGHT	3	891.0091999996439	103	2020-01-16 12:07:37.010004
139	Computer	S200116	0.8333333333333334	2	1	1	2	0.8	1216.6666691	1066.6666688	1650.0000033	2216.6666711000003	Minor	Wrong_doings	46	You have failed to keep promises	C1_8	0.0	Hard	I1_13	54	Singapore is a country	0.944444444444444	No	LEFT	521.9266999997672	RIGHT	63.87059999997291	RIGHT	912.0467000002463	LEFT	1062.765799999852	25.800000000000008	0.8	Probable_Truth	LEFT	LEFT	1	523.2303280550911	104	2020-01-16 12:07:58.810276
22	Self	S200116	0.6666666666666666	1	2	2	1	0.6	1000.000002	1433.3333362	2066.6666708	2216.6666711000003	Minor	Wrong_doings	54	You have made counterfeit money	C1_27	0.15	Easy	I1_26	42	The Seine river is 50 feet above sea level	0.0	Yes	RIGHT	200.92520000025613	RIGHT	333.41440000003786	RIGHT	1128.2341000000995	LEFT	878.9222000000336	26.40000000000001	0.6	Probable_Lie	LEFT	LEFT	4	788.7052999999469	105	2020-01-16 12:08:21.433850
5	Self	S200116	0.5	1	2	2	1	0.3	1433.3333362	1216.6666691	2350.0000047	1650.0000033	Major	Wrong_doings	47	You have been convicted in court	C2_59	0.0	Easy	I1_17	11	The Earth turns the closest to the sun in May	0.666666666666667	No	RIGHT	97.2735999998804	LEFT	860.4760000002898	RIGHT	2669.2266999998537	LEFT	790.6677999999374	26.10000000000001	0.3	Probable_Lie	RIGHT	LEFT	5	867.5659000000451	106	2020-01-16 12:08:45.946110
15	Self	S200116	0.5	2	1	2	1	0.7	1433.3333362	1000.000002	1650.0000033	2500.000005	Major	Wrong_doings	43	You have switched off appliances when not in use	C2_16	0.9	Easy	I2_53	29	The first Olympic Games was held in the 5th century B.C	0.611111111111111	Yes	RIGHT	511.58159999977215	LEFT	143.4374000000389	RIGHT	1340.812399999777	RIGHT	974.8147000000243	25.40000000000001	0.7	Probable_Lie	RIGHT	RIGHT	2	1007.5568000002022	107	2020-01-16 12:09:09.081999
141	Computer	S200116	0.8333333333333334	2	1	2	1	0.6	1066.6666688	1150.0000023	2216.6666711000003	1783.3333369	Major	Good_deeds	8	You have sorted your trash into recycling bin	C2_38	0.85	Easy	I2_43	13	Septicemia is a lung infection condition	0.111111111111111	Yes	LEFT	272.4737000003188	LEFT	79.6000999998796	LEFT	1824.2332999998323	RIGHT	927.7759999999944	25.40000000000001	0.6	Probable_Lie	LEFT	RIGHT	1	982.169502486095	108	2020-01-16 12:09:31.961797
137	Computer	S200116	0.8333333333333334	2	1	1	2	0.4	1150.0000023	1500.000003	2350.0000047	1500.000003	Minor	Good_deeds	58	You have complimented others for good work	C1_46	0.65	Easy	I1_57	19	Vegetarians can eat vegetable products	0.944444444444444	Yes	LEFT	640.9739000000627	RIGHT	127.0897999997942	RIGHT	1118.67089999987	RIGHT	1116.0227000000305	25.40000000000001	0.4	Probable_Truth	RIGHT	RIGHT	2	685.5179428037975	109	2020-01-16 12:09:54.721326
108	Computer	S200116	0.5	2	1	2	1	0.4	1350.0000027	1216.6666691	1650.0000033	2350.0000047	Minor	Wrong_doings	56	You have adopted a zero-waste lifestyle	C2_20	0.05	Easy	I1_29	53	Dutch is the 6th Europe's most widely spoken language	0.0	Yes	LEFT	368.4010000001763	LEFT	104.75069999984044	RIGHT	1176.6763999999057	LEFT	1518.948200000068	25.40000000000001	0.4	Probable_Lie	LEFT	LEFT	4	689.2372841512117	110	2020-01-16 12:10:17.714342
33	Self	S200116	0.8333333333333334	1	2	1	2	0.7	1433.3333362	1000.000002	2350.0000047	1933.3333372	Minor	Good_deeds	23	You have stopped using plastics completely	C2_19	0.85	Hard	I2_16	4	Astatine is the rarest element in the Earth's crust	0.888888888888889	No	RIGHT	119.67449999974632	RIGHT	507.177700000284	RIGHT	1327.7233999997406	RIGHT	1883.380599999782	26.10000000000001	0.7	Probable_Truth	RIGHT	RIGHT	5	531.8408999996791	111	2020-01-16 12:10:41.378037
60	Self	S200116	0.5	2	1	2	1	0.4	1150.0000023	1350.0000027	1783.3333369	1933.3333372	Major	Wrong_doings	31	You have attended all lectures as a student	C2_39	1.0	Easy	I2_56	52	Algeria is Africa's second largest country	0.722222222222222	No	RIGHT	633.7017000000742	LEFT	159.5631999998659	LEFT	1572.3056000001634	RIGHT	1062.1828999996978	25.70000000000001	0.4	Probable_Lie	LEFT	LEFT	5	881.7865000000893	112	2020-01-16 12:11:04.480999
36	Self	S200116	0.8333333333333334	1	2	2	1	0.4	1283.3333359	1066.6666688	2066.6666708	1650.0000033	Major	Wrong_doings	19	You have drunk alcohol when you were underage	C2_31	1.0	Easy	I1_36	23	North Korea is more developed than South Korea	0.0	Yes	RIGHT	280.5502999999589	LEFT	1070.7225999999537	LEFT	1278.883699999824	LEFT	1135.988499999712	25.30000000000001	0.4	Probable_Lie	RIGHT	RIGHT	1	495.5913999997392	113	2020-01-16 12:11:27.385799
54	Self	S200116	0.5	1	2	2	1	0.3	1350.0000027	1150.0000023	2500.000005	2066.6666708	Minor	Wrong_doings	17	You have cheated on a national exam	C2_53	0.05	Hard	I1_53	39	The human's inner ear is larger than a pencil eraser	0.0	No	RIGHT	111.87410000002274	LEFT	915.4318999999304	RIGHT	2347.8610000001936	LEFT	840.0967000002311	25.00000000000001	0.3	Probable_Lie	LEFT	LEFT	4	1218.8552000002346	114	2020-01-16 12:11:52.464767
37	Self	S200116	0.8333333333333334	1	2	2	1	0.1	1500.000003	1150.0000023	2500.000005	2066.6666708	Minor	Wrong_doings	25	You have eaten something in the MRT train	C1_20	0.0	Easy	I1_43	36	Earth's atmosphere extends up to 10,000km into space	0.944444444444444	No	RIGHT	168.9478000002964	RIGHT	315.80040000017107	RIGHT	855.0678999999946	LEFT	725.351099999898	25.10000000000001	0.1	Probable_Truth	RIGHT	RIGHT	6	703.1894000001557	115	2020-01-16 12:12:15.026787
126	Computer	S200116	0.6666666666666666	2	1	2	1	0.7	1066.6666688	1350.0000027	1650.0000033	1650.0000033	Minor	Good_deeds	13	You have extorted money from anyone	C1_50	0.05	Hard	I2_4	5	Chickens lay eggs	0.764705882352941	No	LEFT	565.1773999998113	RIGHT	32.440999999835185	RIGHT	888.1885999999213	LEFT	799.8413000000255	25.10000000000001	0.7	Probable_Truth	RIGHT	RIGHT	4	563.9829755721303	116	2020-01-16 12:12:36.169634
55	Self	S200116	0.5	1	2	2	1	0.1	1433.3333362	1283.3333359	1500.000003	2216.6666711000003	Minor	Good_deeds	14	You have claimed doing things that you never did	C2_17	1.0	Hard	I1_39	11	A square has 3 corners	0.833333333333333	Yes	RIGHT	78.94859999987602	RIGHT	386.9846000002326	LEFT	1265.2662999998938	LEFT	1399.1565000001174	25.200000000000014	0.1	Probable_Truth	RIGHT	LEFT	2	1277.2122000001218	117	2020-01-16 12:12:59.593507
0	Self	S200116	0.5	1	2	1	2	0.7	1500.000003	1066.6666688	2216.6666711000003	2350.0000047	Major	Good_deeds	24	You have helped others to pick up their belongings	C2_50	0.95	Easy	I2_11	15	The Eiffel Tower is in Paris	0.777777777777778	No	RIGHT	198.45299999997223	RIGHT	431.2519999998585	RIGHT	1134.991799999625	RIGHT	1083.1457999997838	25.900000000000013	0.7	Probable_Truth	RIGHT	RIGHT	5	848.4360000002198	118	2020-01-16 12:13:23.001716
101	Computer	S200116	0.5	1	2	2	1	0.1	1283.3333359	1150.0000023	2066.6666708	2500.000005	Major	Wrong_doings	47	You have been convicted in court	C2_59	0.0	Easy	I1_17	11	The Earth turns the closest to the sun in May	0.666666666666667	No	LEFT	72.09699999975783	LEFT	293.42080000014903	RIGHT	1755.8183999999528	LEFT	662.7204000001257	25.900000000000013	0.1	Probable_Lie	LEFT	RIGHT	3	846.1074387827687	119	2020-01-16 12:13:46.209337
96	Computer	S200116	0.5	1	2	1	2	0.2	1000.000002	1000.000002	2350.0000047	2066.6666708	Major	Good_deeds	24	You have helped others to pick up their belongings	C2_50	0.95	Easy	I2_11	15	The Eiffel Tower is in Paris	0.777777777777778	No	LEFT	62.92910000001939	LEFT	395.2994999999646	RIGHT	823.6256999998659	RIGHT	773.3084000001327	25.900000000000013	0.2	Probable_Lie	RIGHT	RIGHT	3	767.9915176655948	120	2020-01-16 12:14:08.025396
49	Self	S200116	0.5	1	2	1	2	0.8	1283.3333359	1433.3333362	2066.6666708	1933.3333372	Minor	Good_deeds	53	You have donated blood every 6 months for many years	C2_26	0.7	Hard	I2_31	31	Summer is hotter than winter	0.0	No	RIGHT	231.6098000001148	RIGHT	374.09119999983886	RIGHT	1136.1472000003232	RIGHT	1901.0694999997213	26.700000000000014	0.8	Probable_Truth	LEFT	RIGHT	4	714.64799999967	121	2020-01-16 12:14:31.673059
58	Self	S200116	0.5	2	1	1	2	0.2	1500.000003	1150.0000023	1933.3333372	2500.000005	Major	Wrong_doings	59	You have followed instructions	C1_15	0.2	Easy	I2_28	42	It is 20th Century now	0.0555555555555556	No	RIGHT	604.6048000002884	LEFT	112.5081999998656	LEFT	1016.2116000001332	RIGHT	802.8905999999552	26.50000000000001	0.2	Probable_Lie	RIGHT	LEFT	6	717.444500000056	122	2020-01-16 12:14:54.584872
73	Self	S200116	0.6666666666666666	2	1	1	2	0.4	1150.0000023	1500.000003	1783.3333369	2500.000005	Major	Good_deeds	36	You have given up your seat in the MRT	C2_30	1.0	Easy	I1_50	27	Last day of the year is 30th December	0.0555555555555556	No	RIGHT	441.3644999999633	RIGHT	48.83220000010624	LEFT	1623.44370000028	RIGHT	867.7883999998812	26.900000000000013	0.4	Probable_Lie	LEFT	LEFT	3	725.6978000000345	123	2020-01-16 12:15:17.801255
64	Self	S200116	0.6666666666666666	1	2	1	2	0.7	1433.3333362	1350.0000027	2500.000005	1650.0000033	Major	Good_deeds	8	You have blackmailed others for money	C1_30	1.0	Hard	I1_23	2	Mexico's National Day is September 16	0.0	No	RIGHT	392.1903000000384	LEFT	837.2555999999349	LEFT	1672.0634000002974	LEFT	933.4619000001112	26.200000000000014	0.7	Probable_Lie	RIGHT	RIGHT	1	556.692699999985	124	2020-01-16 12:15:41.706292
129	Computer	S200116	0.8333333333333334	1	2	1	2	0.4	1433.3333362	1150.0000023	1500.000003	1500.000003	Minor	Good_deeds	23	You have stopped using plastics completely	C2_19	0.85	Hard	I2_16	4	Astatine is the rarest element in the Earth's crust	0.888888888888889	No	LEFT	183.21459999970105	RIGHT	644.8727000001782	RIGHT	1015.1476000000912	RIGHT	1117.7478000004155	26.200000000000014	0.4	Probable_Truth	RIGHT	RIGHT	4	869.3383372133667	125	2020-01-16 12:16:03.689157
45	Self	S200116	0.8333333333333334	2	1	2	1	0.3	1433.3333362	1500.000003	2066.6666708	1650.0000033	Major	Good_deeds	8	You have sorted your trash into recycling bin	C2_38	0.85	Easy	I2_43	13	Septicemia is a lung infection condition	0.111111111111111	Yes	RIGHT	301.48319999989326	RIGHT	47.62140000002546	RIGHT	1525.561700000253	RIGHT	1081.3367999999173	26.50000000000001	0.3	Probable_Lie	LEFT	LEFT	2	567.6091999998789	126	2020-01-16 12:16:26.441415
134	Computer	S200116	0.8333333333333334	1	2	2	1	0.1	1000.000002	1283.3333359	2216.6666711000003	2350.0000047	Minor	Wrong_doings	31	You have thrown your trash into the bin	C2_25	0.95	Hard	I1_4	28	Singapore is in Africa	0.0555555555555556	No	LEFT	97.51860000005765	RIGHT	581.3489000001937	LEFT	920.6688999997824	RIGHT	775.6444999999985	26.50000000000001	0.1	Probable_Truth	RIGHT	RIGHT	2	618.6358181353548	127	2020-01-16 12:16:48.859002
94	Self	S200116	0.8333333333333334	2	1	2	1	0.4	1066.6666688	1433.3333362	1783.3333369	1933.3333372	Minor	Good_deeds	43	You have sold illegal drugs	C1_57	0.25	Easy	I2_17	33	Bears have the biggest eyes among mammals	0.0	No	RIGHT	387.32530000015686	RIGHT	296.32800000035786	RIGHT	2163.149799999701	LEFT	1144.0268999999716	26.900000000000013	0.4	Probable_Truth	RIGHT	RIGHT	4	582.3040999998739	128	2020-01-16 12:17:12.224496
106	Computer	S200116	0.5	2	1	1	2	0.1	1216.6666691	1066.6666688	1783.3333369	2216.6666711000003	Minor	Good_deeds	40	You have rescued others from a catastrophe	C1_40	1.0	Hard	I2_39	12	The sun rises at night	0.722222222222222	No	LEFT	559.6652999997787	RIGHT	88.28799999992043	LEFT	831.5779999998085	RIGHT	1365.044599999692	26.900000000000013	0.1	Probable_Truth	RIGHT	LEFT	1	885.9191273535187	129	2020-01-16 12:17:34.808835
30	Self	S200116	0.6666666666666666	2	1	2	1	0.7	1066.6666688	1350.0000027	2500.000005	2500.000005	Minor	Good_deeds	13	You have extorted money from anyone	C1_50	0.05	Hard	I2_4	5	Chickens lay eggs	0.764705882352941	No	RIGHT	462.0433000000048	RIGHT	135.96070000039617	RIGHT	788.5765999999421	LEFT	815.4869999998482	27.60000000000001	0.7	Probable_Truth	LEFT	LEFT	1	547.9160999998385	130	2020-01-16 12:17:57.553705
42	Self	S200116	0.8333333333333334	2	1	1	2	0.2	1000.000002	1066.6666688	2216.6666711000003	1500.000003	Major	Wrong_doings	28	You have cheated on a test	C1_58	0.05	Easy	I2_54	35	Cheese is an Asian staple	0.0	No	RIGHT	287.1050999997351	RIGHT	80.86670000011509	LEFT	1023.5069000000294	LEFT	774.8139000000265	27.80000000000001	0.2	Probable_Truth	LEFT	LEFT	1	762.7391000000898	131	2020-01-16 12:18:18.841774
7	Self	S200116	0.5	1	2	2	1	0.1	1283.3333359	1433.3333362	1500.000003	1783.3333369	Minor	Wrong_doings	38	You have sheltered others from disasters	C2_24	0.05	Hard	I1_31	31	There are 6 million animal species on Earth	0.0	Yes	RIGHT	56.98649999976624	LEFT	708.5387000001901	LEFT	1920.6176000002413	RIGHT	863.3128999999826	27.70000000000001	0.1	Probable_Lie	RIGHT	LEFT	5	984.986399999798	132	2020-01-16 12:18:41.952937
28	Self	S200116	0.6666666666666666	2	1	2	1	0.5	1283.3333359	1150.0000023	2350.0000047	2350.0000047	Minor	Wrong_doings	18	You have stopped using products tested on animals	C1_13	0.45	Hard	I2_30	24	There are 6000 spoken languages in the World	0.0	Yes	RIGHT	1699.162899999919	LEFT	753.5172000002603	RIGHT	2048.5404999999446	RIGHT	1145.1634000000013	27.20000000000001	0.5	Probable_Lie	RIGHT	RIGHT	1	756.4073000003191	133	2020-01-16 12:19:08.065692
63	Self	S200116	0.5	2	1	2	1	0.8	1066.6666688	1283.3333359	1500.000003	1783.3333369	Minor	Wrong_doings	39	You have donated a pay cheque to charity	C1_31	0.95	Hard	I2_55	55	Afghan Hound is the first cloned cat	0.0	Yes	RIGHT	548.7639999996645	LEFT	103.80809999969642	RIGHT	1450.7073999998283	RIGHT	1166.8070000000623	26.40000000000001	0.8	Probable_Lie	RIGHT	LEFT	6	807.6977000000625	134	2020-01-16 12:19:30.353706
3	Self	S200116	0.5	1	2	1	2	0.8	1150.0000023	1000.000002	2066.6666708	2500.000005	Major	Good_deeds	50	You have made someone cry	C1_47	1.0	Easy	I2_45	17	Hot chocolate was created by the Mayan culture	0.888888888888889	Yes	RIGHT	328.0790999997407	LEFT	1076.6883999999664	RIGHT	1030.927199999951	LEFT	891.4953999997124	25.60000000000001	0.8	Probable_Lie	RIGHT	LEFT	5	775.448200000028	135	2020-01-16 12:19:53.753085
113	Computer	S200116	0.6666666666666666	1	2	1	2	0.5	1500.000003	1066.6666688	2216.6666711000003	1933.3333372	Minor	Wrong_doings	29	You have volunteered every week for many years	C2_6	0.85	Hard	I2_42	27	Obama is the USA president now	0.0555555555555556	Yes	LEFT	160.1024999999936	LEFT	838.8230999998996	LEFT	983.7240999995628	RIGHT	1115.750399999797	25.60000000000001	0.5	Probable_Lie	LEFT	RIGHT	2	698.1811853286206	136	2020-01-16 12:20:16.840056
117	Computer	S200116	0.6666666666666666	1	2	2	1	0.7	1216.6666691	1283.3333359	1500.000003	2066.6666708	Minor	Good_deeds	39	You have cursed at others	C1_34	0.0	Easy	I1_14	50	Animals are living things	0.944444444444444	No	LEFT	111.53070000000298	LEFT	419.6774000001824	RIGHT	814.1998999999487	LEFT	1191.222999999809	25.60000000000001	0.7	Probable_Truth	LEFT	RIGHT	3	789.0700399637774	137	2020-01-16 12:20:38.800405
70	Self	S200116	0.6666666666666666	1	2	2	1	0.6	1500.000003	1216.6666691	2066.6666708	2066.6666708	Major	Wrong_doings	42	You have lied to your parents	C1_29	0.0	Easy	I1_37	13	Fishes can swim in water	0.777777777777778	Yes	RIGHT	232.61749999983292	RIGHT	351.508400000057	RIGHT	838.2308999998713	LEFT	808.9608999998745	26.20000000000001	0.6	Probable_Lie	LEFT	LEFT	3	562.2787000002063	138	2020-01-16 12:21:01.017406
57	Self	S200116	0.5	2	1	1	2	0.7	1433.3333362	1500.000003	1650.0000033	2350.0000047	Minor	Wrong_doings	23	You have watched an M18 movie when you were underage	C2_23	0.0	Easy	I1_25	56	Beef comes from cows	0.0	Yes	RIGHT	286.88229999988835	RIGHT	103.12329999987924	RIGHT	926.7588000002434	LEFT	1402.0915000000969	26.90000000000001	0.7	Probable_Truth	RIGHT	LEFT	3	1007.2954000002028	139	2020-01-16 12:21:24.257054
4	Self	S200116	0.5	1	2	2	1	0.2	1216.6666691	1350.0000027	1783.3333369	1933.3333372	Major	Good_deeds	4	You have returned your trays in food courts	C1_28	0.95	Hard	I1_60	51	Nanyang Technological University is in Australia	0.0555555555555556	No	RIGHT	240.26240000011967	RIGHT	335.5520999998589	LEFT	1139.7171000003254	RIGHT	879.5678000001317	27.10000000000001	0.2	Probable_Truth	LEFT	RIGHT	6	926.0928000003332	140	2020-01-16 12:21:46.640297
121	Computer	S200116	0.6666666666666666	2	1	1	2	0.6	1283.3333359	1000.000002	2500.000005	1783.3333369	Minor	Good_deeds	57	You have deceived a loved one	C1_35	0.1	Easy	I1_5	4	There are 20 bones in the human skull	0.833333333333333	Yes	LEFT	301.49600000004284	LEFT	168.17379999974946	LEFT	1080.5292999998528	LEFT	967.6979999999276	27.10000000000001	0.6	Probable_Lie	RIGHT	LEFT	6	775.9676247227662	141	2020-01-16 12:22:09.064494
95	Self	S200116	0.8333333333333334	2	1	2	1	0.1	1216.6666691	1500.000003	2500.000005	2500.000005	Minor	Good_deeds	57	You have told someone's secret to others	C1_60	0.0	Hard	I1_41	40	There are 30 hours in a day	0.0	No	RIGHT	1755.2069999997002	LEFT	720.9465000000819	LEFT	925.8233999998992	LEFT	1840.322600000036	27.000000000000007	0.1	Probable_Truth	LEFT	LEFT	1	610.3158000000803	142	2020-01-16 12:22:35.208470
31	Self	S200116	0.6666666666666666	2	1	2	1	0.1	1216.6666691	1500.000003	1933.3333372	2066.6666708	Major	Wrong_doings	3	You have downloaded pirated movies	C2_35	1.0	Hard	I2_34	44	The Moon orbits around the Earth	0.0555555555555556	Yes	RIGHT	372.2303000004104	RIGHT	247.83799999977415	RIGHT	1503.2446999998683	LEFT	872.1005000002151	27.10000000000001	0.1	Probable_Truth	RIGHT	RIGHT	3	536.9234999998298	143	2020-01-16 12:22:58.032069
