index	Trial_Type	Participant_ID	Trial_Probability	Question_Position_Prediction_Correct	Question_Position_Prediction_Agent	Question_Position_Comparison_Self	Question_Position_Comparison_Irrelevant	Trial_Stake	Trial_Stake_Jitter	Trial_Type_Jitter	Trial_Result_Jitter	Balance_Update_Jitter	Question_Comparison_Condition	Question_Comparison_Type	Question_Comparison_Question	Question_Comparison_Label	Question_Comparison_Item	Question_Comparison_Proportion_Yes	Question_Factual_Condition	Question_Factual_Item	Question_Factual_Question	Question_Factual_Label	Question_Factual_Proportion_DontKnow	Question_Factual_Type	Answer_Prediction_Agent	Answer_Prediction_Agent_RT	Answer_Prediction_Correct	Answer_Prediction_Correct_RT	Answer_Self	Answer_Self_RT	Answer_Irrelevant	Answer_Irrelevant_RT	Trial_Balance	Trial_Balance_Effect	Trial_Condition	Trial_ProbableSide	Prediction_Choice	Prediction_Result	Prediction_RT	Trial_Order	Trial_Datetime
72	Self	S201118	0.6666666666666666	2	1	1	2	0.4	1433.3333362	1433.3333362	2066.6666708	1500.000003	Minor	Good_deeds	16	You have engaged in money laundering	C2_60	0.85	Easy	I2_13	28	Cheese is an Asian staple	0.833333333333333	Yes	RIGHT	646.699099999978	RIGHT	424.42360000001145	LEFT	966.0478999999782	LEFT	1568.4056000000055	10.4	0.4	Probable_Truth	LEFT	LEFT	2	559.2234999999732	0	2020-11-18 14:13:20.019962
8	Self	S201118	0.5	2	1	1	2	0.3	1216.6666691	1500.000003	2350.0000047	2066.6666708	Major	Good_deeds	58	You have cursed at others	C1_14	0.1	Hard	I1_38	27	Dutch is the 6th Europe's most widely spoken language	0.888888888888889	No	RIGHT	595.602499999984	LEFT	592.2694000000206	LEFT	769.2954000000327	LEFT	1766.447600000049	10.1	0.3	Probable_Lie	LEFT	LEFT	4	951.9741999999952	1	2020-11-18 14:13:44.403823
59	Self	S201118	0.5	2	1	1	2	0.4	1500.000003	1500.000003	2350.0000047	1783.3333369	Minor	Good_deeds	5	You have donated a pay cheque to charity	C1_31	0.9	Easy	I2_22	2	The sun rises at night	0.666666666666667	Yes	RIGHT	579.4276999999965	RIGHT	391.4077999999108	RIGHT	1850.001299999917	LEFT	1040.3407000000016	10.5	0.4	Probable_Truth	RIGHT	RIGHT	5	1872.054300000002	2	2020-11-18 14:14:09.844115
135	Computer	S201118	0.8333333333333334	1	2	2	1	0.4	1500.000003	1283.3333359	1650.0000033	1650.0000033	Major	Good_deeds	37	You have donated blood every 6 months for many years	C2_3	0.0	Hard	I1_44	23	Malay is one of the races in Singapore	0.0	No	LEFT	584.7869000000401	LEFT	798.4519000000319	RIGHT	2207.936899999936	RIGHT	1145.8314999999857	10.5	0.4	Probable_Lie	RIGHT	RIGHT	1	946.603167939591	3	2020-11-18 14:14:34.179865
33	Self	S201118	0.8333333333333334	1	2	1	2	0.4	1350.0000027	1433.3333362	2500.000005	1933.3333372	Major	Wrong_doings	17	You have bribed someone to improve a grade	C2_47	0.65	Hard	I2_23	44	A dog has four legs	0.833333333333333	Yes	RIGHT	416.1735999999792	RIGHT	804.2006000000583	LEFT	1006.8797999999788	RIGHT	999.5257000000493	10.9	0.4	Probable_Truth	LEFT	LEFT	1	731.4342999999326	4	2020-11-18 14:14:57.924001
35	Self	S201118	0.8333333333333334	1	2	1	2	0.3	1216.6666691	1283.3333359	1783.3333369	2500.000005	Minor	Wrong_doings	46	You have started a movement to support a cause	C2_46	0.0	Easy	I1_50	10	Singapore has four seasons	0.611111111111111	No	RIGHT	391.7433000000301	RIGHT	586.7145999999366	RIGHT	2581.423199999904	LEFT	1239.8730999999543	11.2	0.3	Probable_Truth	RIGHT	RIGHT	5	821.3400999999294	5	2020-11-18 14:15:22.900226
133	Computer	S201118	0.8333333333333334	1	2	2	1	0.3	1150.0000023	1150.0000023	2216.6666711000003	1783.3333369	Major	Good_deeds	47	You have followed instructions	C1_37	0.95	Easy	I2_43	43	Fibers in oranges can be used to make fabric	1.0	Yes	LEFT	440.64749999995456	RIGHT	1002.173999999968	RIGHT	1016.0776999999824	LEFT	2945.477799999935	11.2	0.3	Probable_Lie	LEFT	LEFT	2	733.9748193695834	6	2020-11-18 14:15:47.908352
122	Computer	S201118	0.6666666666666666	2	1	1	2	0.3	1150.0000023	1433.3333362	1650.0000033	2500.000005	Minor	Good_deeds	7	You have cursed at your loved ones	C2_2	0.55	Hard	I1_41	41	The Eiffel Tower is in Paris	0.0555555555555556	No	LEFT	736.0582999999679	LEFT	816.1680999999135	LEFT	1237.8311999999596	RIGHT	888.765899999953	11.2	0.3	Probable_Lie	RIGHT	RIGHT	2	501.1475125195562	7	2020-11-18 14:16:11.388453
24	Self	S201118	0.6666666666666666	2	1	1	2	0.8	1433.3333362	1350.0000027	1933.3333372	2350.0000047	Major	Wrong_doings	29	You have attended all lectures as a student	C1_29	0.0	Hard	I1_17	60	It sometimes snows in Singapore	0.0	Yes	RIGHT	780.8018999999149	RIGHT	384.3580999999858	RIGHT	1148.0061999999407	LEFT	904.3940000000248	12.000000000000002	0.8	Probable_Truth	RIGHT	RIGHT	5	737.1507000000292	8	2020-11-18 14:16:34.980563
42	Self	S201118	0.8333333333333334	2	1	1	2	0.2	1216.6666691	1000.000002	1783.3333369	2350.0000047	Minor	Good_deeds	39	You have done something against your values	C2_54	0.85	Hard	I2_31	26	Fishes can swim in water	0.0	No	RIGHT	556.7710999999917	RIGHT	334.3796999999995	LEFT	1365.5151000000387	RIGHT	887.1417999999949	12.2	0.2	Probable_Truth	LEFT	LEFT	1	622.6791000000276	9	2020-11-18 14:16:57.668448
16	Self	S201118	0.6666666666666666	1	2	1	2	0.8	1283.3333359	1500.000003	1500.000003	1500.000003	Major	Wrong_doings	43	You have made someone cry	C2_10	0.05	Easy	I2_17	35	Animals are living things	0.0	No	RIGHT	344.52410000005784	RIGHT	413.3051000000023	LEFT	926.5521999999464	RIGHT	759.999300000004	13.000000000000002	0.8	Probable_Truth	RIGHT	RIGHT	3	681.996799999979	10	2020-11-18 14:17:19.147819
39	Self	S201118	0.8333333333333334	1	2	2	1	0.8	1150.0000023	1000.000002	1933.3333372	2216.6666711000003	Major	Good_deeds	37	You have donated blood every 6 months for many years	C2_3	0.0	Hard	I1_44	23	Malay is one of the races in Singapore	0.0	No	RIGHT	327.9036000000133	RIGHT	620.6882999999834	RIGHT	886.7173999999522	RIGHT	815.9602999999152	13.800000000000002	0.8	Probable_Truth	LEFT	LEFT	1	515.0211999999783	11	2020-11-18 14:17:41.188082
73	Self	S201118	0.6666666666666666	2	1	1	2	0.1	1216.6666691	1066.6666688	1783.3333369	2066.6666708	Major	Good_deeds	52	You have engaged in drink-driving	C2_17	0.8	Easy	I1_53	19	Beef comes from cows	0.0555555555555556	No	RIGHT	483.0008999999791	RIGHT	278.8325000000213	LEFT	912.3789000000216	RIGHT	2016.0108999999693	13.900000000000002	0.1	Probable_Truth	RIGHT	RIGHT	6	725.9795999999596	12	2020-11-18 14:18:04.308929
92	Self	S201118	0.8333333333333334	2	1	2	1	0.8	1433.3333362	1350.0000027	1500.000003	1650.0000033	Minor	Good_deeds	15	You have taken part in violent demonstration	C1_60	0.7	Hard	I2_1	18	"Statue of Liberty is 151 feet tall"	0.0	Yes	RIGHT	526.0362000000214	RIGHT	328.4265999999434	LEFT	1125.9845000000723	RIGHT	2265.13870000008	14.700000000000005	0.8	Probable_Truth	RIGHT	RIGHT	4	685.2044999999407	13	2020-11-18 14:18:27.748060
80	Self	S201118	0.8333333333333334	1	2	1	2	0.5	1150.0000023	1150.0000023	2216.6666711000003	1650.0000033	Minor	Good_deeds	38	You have eaten something in the MRT train	C1_38	0.15	Hard	I1_4	26	Feijoa is a type of grape	1.0	No	RIGHT	349.8793999999634	LEFT	752.6605000000473	LEFT	1464.4332000000304	RIGHT	2392.092100000013	14.200000000000005	0.5	Probable_Lie	RIGHT	RIGHT	1	749.9063000000206	14	2020-11-18 14:18:52.196203
45	Self	S201118	0.8333333333333334	2	1	2	1	0.5	1066.6666688	1283.3333359	2066.6666708	1650.0000033	Major	Wrong_doings	48	You have started an NGO using your savings	C2_9	1.0	Easy	I2_58	1	China is a part of Asia	0.833333333333333	No	RIGHT	606.0704999999871	RIGHT	304.8880000000054	RIGHT	3759.8279999999695	RIGHT	1217.310399999974	14.700000000000005	0.5	Probable_Truth	RIGHT	RIGHT	2	805.4744999999457	15	2020-11-18 14:19:17.524337
127	Computer	S201118	0.6666666666666666	2	1	2	1	0.2	1500.000003	1066.6666688	2216.6666711000003	2350.0000047	Major	Good_deeds	16	You have cheated on a national exam	C2_38	1.0	Easy	I2_39	17	It takes 500 days to travel from Earth to Mars	0.0555555555555556	Yes	LEFT	644.946799999957	LEFT	824.4098999999778	LEFT	1023.9497999999684	LEFT	2138.9339999999493	14.700000000000005	0.2	Probable_Lie	LEFT	LEFT	6	619.9789597990364	16	2020-11-18 14:19:42.476491
63	Self	S201118	0.5	2	1	2	1	0.7	1433.3333362	1283.3333359	1650.0000033	2216.6666711000003	Minor	Wrong_doings	57	You have helped with household chores	C2_30	0.95	Hard	I1_52	9	Today is a weekday	0.0	Yes	RIGHT	636.4164999999957	RIGHT	295.0331000000688	RIGHT	1111.542800000052	RIGHT	1738.210200000026	15.400000000000002	0.7	Probable_Truth	LEFT	LEFT	3	1474.5629000000235	17	2020-11-18 14:20:06.892135
114	Computer	S201118	0.6666666666666666	1	2	1	2	0.5	1433.3333362	1000.000002	2350.0000047	1933.3333372	Major	Wrong_doings	12	You have bribed a police officer	C1_19	0.95	Easy	I2_44	17	There are 30 hours in a day	0.666666666666667	No	LEFT	1112.5264999999445	LEFT	893.2423999999628	LEFT	748.5875000000988	LEFT	1080.0004000000172	15.400000000000002	0.5	Probable_Lie	RIGHT	LEFT	5	625.7677168826555	18	2020-11-18 14:20:30.644216
76	Self	S201118	0.6666666666666666	2	1	2	1	0.5	1150.0000023	1350.0000027	1500.000003	2500.000005	Minor	Wrong_doings	60	You have told someone's secret to others	C2_52	0.05	Easy	I1_28	53	North Korea is more developed than South Korea	0.0	Yes	RIGHT	693.0558999999903	RIGHT	319.2228999999997	LEFT	2277.94270000004	LEFT	1374.120199999993	15.900000000000002	0.5	Probable_Truth	RIGHT	RIGHT	6	1672.8193999999803	19	2020-11-18 14:20:56.060671
85	Self	S201118	0.8333333333333334	1	2	2	1	0.1	1066.6666688	1000.000002	1933.3333372	2216.6666711000003	Major	Wrong_doings	25	You have signed up as a bone marrow donor	C2_53	0.55	Easy	I1_45	55	The human's inner ear is larger than a pencil eraser	0.0555555555555556	Yes	RIGHT	376.7570999999634	RIGHT	805.2370999999994	RIGHT	2718.8740999999936	LEFT	3336.955900000021	16.000000000000004	0.1	Probable_Truth	LEFT	LEFT	1	733.3736999999019	20	2020-11-18 14:21:22.820711
65	Self	S201118	0.6666666666666666	1	2	1	2	0.7	1066.6666688	1350.0000027	2350.0000047	1500.000003	Minor	Good_deeds	13	You have bought cocaine	C2_42	0.75	Hard	I1_15	36	The hyoid bone is the only jointless bone	0.944444444444444	No	RIGHT	351.9746000000623	LEFT	763.0976000000373	LEFT	879.0753000000677	LEFT	1640.1716000000306	15.300000000000004	0.7	Probable_Lie	RIGHT	RIGHT	2	695.1567999999497	21	2020-11-18 14:21:45.988547
109	Computer	S201118	0.5	2	1	2	1	0.4	1433.3333362	1433.3333362	1783.3333369	1933.3333372	Major	Good_deeds	58	You have watched a pirated movie	C2_48	0.0	Easy	I1_27	38	Pyramid of Giza is 468 feet tall	0.111111111111111	No	LEFT	710.8365000000276	LEFT	632.7479000000267	LEFT	1262.6322999999502	RIGHT	1989.1933000000108	15.300000000000004	0.4	Probable_Lie	RIGHT	RIGHT	3	511.6346249664732	22	2020-11-18 14:22:10.253315
123	Computer	S201118	0.6666666666666666	2	1	1	2	0.4	1066.6666688	1150.0000023	1783.3333369	1650.0000033	Minor	Wrong_doings	34	You have complimented others for good work	C1_35	0.45	Easy	I2_54	25	Mageirocophobia is a fear of deathly disease	0.888888888888889	No	LEFT	535.4259000000638	LEFT	711.0858999999436	RIGHT	1992.162599999915	LEFT	1776.2345000001003	15.300000000000004	0.4	Probable_Lie	RIGHT	LEFT	3	543.369014359049	23	2020-11-18 14:22:34.036669
41	Self	S201118	0.8333333333333334	2	1	1	2	0.3	1000.000002	1150.0000023	2500.000005	1500.000003	Major	Good_deeds	54	You have downloaded pirated movies	C2_39	0.0	Easy	I1_36	31	The hardest bone in human body is the jawbone	0.722222222222222	No	RIGHT	787.7563999998074	LEFT	576.9420000001446	LEFT	1005.745600000182	LEFT	2488.0061999999725	15.000000000000004	0.3	Probable_Lie	RIGHT	RIGHT	1	976.0903999999756	24	2020-11-18 14:22:58.596327
31	Self	S201118	0.6666666666666666	2	1	2	1	0.5	1350.0000027	1150.0000023	2500.000005	1933.3333372	Major	Good_deeds	16	You have cheated on a national exam	C2_38	1.0	Easy	I2_39	17	It takes 500 days to travel from Earth to Mars	0.0555555555555556	Yes	RIGHT	1093.2130000001052	RIGHT	432.5976000000082	LEFT	1023.5301000000164	LEFT	1242.7288999999746	15.500000000000004	0.5	Probable_Truth	LEFT	LEFT	2	835.096300000032	25	2020-11-18 14:23:22.732019
124	Computer	S201118	0.6666666666666666	2	1	2	1	0.8	1350.0000027	1000.000002	2350.0000047	2216.6666711000003	Minor	Wrong_doings	59	You have helped your parents when asked to	C1_7	0.7	Easy	I1_60	39	There are 6000 spoken languages in the World	0.944444444444444	No	RIGHT	549.4810999998663	RIGHT	1257.140599999957	RIGHT	1552.115400000048	LEFT	1537.1592000001328	16.300000000000004	0.8	Probable_Truth	RIGHT	RIGHT	4	558.2391112206399	26	2020-11-18 14:23:47.660045
12	Self	S201118	0.5	2	1	2	1	0.7	1433.3333362	1283.3333359	2216.6666711000003	1783.3333369	Minor	Good_deeds	6	You have said sorry when you were rude	C2_6	0.95	Easy	I1_39	38	Slavery was abolished in Cuba in 1886	0.944444444444444	Yes	RIGHT	663.8895999999477	RIGHT	687.0476000001418	RIGHT	1311.4766999999574	LEFT	2578.7930999999844	17.000000000000004	0.7	Probable_Truth	RIGHT	RIGHT	5	1412.3151999999664	27	2020-11-18 14:24:13.604248
79	Self	S201118	0.6666666666666666	2	1	2	1	0.7	1350.0000027	1000.000002	2500.000005	1933.3333372	Major	Wrong_doings	23	You have claimed doing things that you never did	C1_16	1.0	Hard	I1_19	34	Beer is an alcoholic drink	0.111111111111111	No	RIGHT	1036.7756000000554	LEFT	376.0459999998602	LEFT	3384.152200000017	RIGHT	1046.3938999998843	16.300000000000004	0.7	Probable_Lie	RIGHT	RIGHT	1	1155.5017999999109	28	2020-11-18 14:24:39.955861
48	Self	S201118	0.5	1	2	1	2	0.5	1000.000002	1283.3333359	2350.0000047	1500.000003	Minor	Wrong_doings	23	You have thrown your trash into the bin	C1_11	0.9	Easy	I2_46	11	Singapore ranked 8th in World's smallest countries	0.0555555555555556	No	RIGHT	632.0275000000493	RIGHT	835.1233000000775	RIGHT	2518.341500000133	LEFT	1807.45039999988	16.800000000000004	0.5	Probable_Truth	LEFT	LEFT	3	1702.7159000001575	29	2020-11-18 14:25:06.157380
99	Computer	S201118	0.5	1	2	1	2	0.1	1500.000003	1350.0000027	2500.000005	2066.6666708	Minor	Wrong_doings	40	You have given up your seat in the MRT	C2_1	0.05	Hard	I1_12	53	It is 20th Century now	0.0	No	LEFT	696.4265999999952	LEFT	1088.5779000000184	RIGHT	999.0446000001612	RIGHT	1551.354500000116	16.800000000000004	0.1	Probable_Lie	LEFT	RIGHT	2	540.4723037041337	30	2020-11-18 14:25:31.012382
106	Computer	S201118	0.5	2	1	1	2	0.5	1066.6666688	1350.0000027	1500.000003	2216.6666711000003	Minor	Wrong_doings	24	You have bought cigarettes for a minor	C1_24	0.05	Easy	I2_38	6	It is snowing outside now	0.0	Yes	LEFT	1017.7577000001749	RIGHT	896.4630999998917	LEFT	1183.9588000000276	LEFT	848.3810000000176	16.800000000000004	0.5	Probable_Truth	RIGHT	LEFT	3	506.8433474818545	31	2020-11-18 14:25:54.164864
18	Self	S201118	0.6666666666666666	1	2	1	2	0.5	1216.6666691	1066.6666688	1650.0000033	2066.6666708	Major	Wrong_doings	12	You have bribed a police officer	C1_19	0.95	Easy	I2_44	17	There are 30 hours in a day	0.666666666666667	No	RIGHT	424.6388000001389	RIGHT	775.8627000000615	LEFT	741.7754999999033	LEFT	703.9481000001615	17.300000000000004	0.5	Probable_Lie	LEFT	LEFT	3	764.2683999999917	32	2020-11-18 14:26:16.147983
75	Self	S201118	0.6666666666666666	2	1	1	2	0.2	1066.6666688	1216.6666691	1650.0000033	1650.0000033	Major	Good_deeds	33	You have sorted your trash into recycling bin	C1_23	0.0	Hard	I1_42	13	Some owl species hunt fish	0.777777777777778	No	RIGHT	1056.0236000001169	LEFT	735.8698999998978	RIGHT	1424.8978999999051	LEFT	1679.6065000000908	17.100000000000005	0.2	Probable_Lie	RIGHT	RIGHT	1	1203.733800000009	33	2020-11-18 14:26:40.404058
142	Computer	S201118	0.8333333333333334	2	1	2	1	0.3	1433.3333362	1066.6666688	1650.0000033	2350.0000047	Minor	Wrong_doings	1	You have blackmailed others for money	C1_1	0.0	Easy	I2_26	49	Cleopatra was born in Greece	0.888888888888889	Yes	LEFT	827.6640999999927	LEFT	712.9652999999507	LEFT	999.8827000001712	RIGHT	1674.2472000000816	17.100000000000005	0.3	Probable_Lie	RIGHT	LEFT	2	934.9732887342284	34	2020-11-18 14:27:04.620014
118	Computer	S201118	0.6666666666666666	1	2	2	1	0.7	1150.0000023	1500.000003	1500.000003	1650.0000033	Major	Good_deeds	10	You have kidnapped someone	C2_28	0.0	Hard	I2_35	44	Bears have the biggest eyes among mammals	0.0	No	LEFT	536.2493000000086	LEFT	1044.9492000000191	LEFT	808.5294999998496	LEFT	1551.493400000027	17.100000000000005	0.7	Probable_Truth	LEFT	RIGHT	4	578.1409520892139	35	2020-11-18 14:27:27.515887
93	Self	S201118	0.8333333333333334	2	1	2	1	0.3	1283.3333359	1500.000003	2216.6666711000003	2066.6666708	Major	Wrong_doings	45	You have engaged in arson	C2_26	0.0	Easy	I1_43	21	Carnivore refers to meat-eater	0.666666666666667	No	RIGHT	824.1167000001042	RIGHT	504.65989999997873	LEFT	887.8558999999768	RIGHT	1205.7144000000335	17.400000000000006	0.3	Probable_Truth	RIGHT	RIGHT	6	808.1141999998636	36	2020-11-18 14:27:51.387815
62	Self	S201118	0.5	2	1	2	1	0.1	1150.0000023	1433.3333362	2216.6666711000003	2350.0000047	Major	Good_deeds	13	You have been sued	C2_56	0.0	Hard	I2_2	56	A square has 3 corners	0.0	Yes	RIGHT	944.639099999904	LEFT	488.29969999997047	LEFT	944.525399999975	LEFT	963.7101999999232	17.300000000000004	0.1	Probable_Lie	RIGHT	RIGHT	3	1200.6759999999304	37	2020-11-18 14:28:15.651793
58	Self	S201118	0.5	2	1	1	2	0.3	1350.0000027	1000.000002	1783.3333369	1650.0000033	Minor	Good_deeds	56	You have switched off appliances when not in use	C1_13	0.5	Easy	I2_56	52	Acoustic Kitty refers to cat with implants	0.0	No	RIGHT	666.2317000000257	RIGHT	312.30810000010933	RIGHT	1655.3292000000963	LEFT	2974.572500000022	17.600000000000005	0.3	Probable_Truth	LEFT	LEFT	2	2449.002900000096	38	2020-11-18 14:28:42.068105
97	Computer	S201118	0.5	1	2	1	2	0.5	1433.3333362	1433.3333362	2350.0000047	1783.3333369	Major	Good_deeds	36	You have adopted a zero-waste lifestyle	C1_44	0.95	Easy	I2_52	12	The Amazon forest covers an area of 1 billion acres	0.944444444444444	No	LEFT	391.4193999999043	LEFT	874.890200000209	RIGHT	1995.036700000128	RIGHT	2023.2684999998585	17.600000000000005	0.5	Probable_Lie	RIGHT	RIGHT	2	883.814225151749	39	2020-11-18 14:29:07.804034
131	Computer	S201118	0.8333333333333334	1	2	1	2	0.5	1066.6666688	1433.3333362	1500.000003	2500.000005	Minor	Wrong_doings	46	You have started a movement to support a cause	C2_46	0.0	Easy	I1_50	10	Singapore has four seasons	0.611111111111111	No	LEFT	353.09140000003936	LEFT	581.4702000000125	RIGHT	1612.938700000086	LEFT	912.6858999998148	17.600000000000005	0.5	Probable_Lie	LEFT	RIGHT	1	752.8932581285658	40	2020-11-18 14:29:31.084248
98	Computer	S201118	0.5	1	2	1	2	0.3	1283.3333359	1500.000003	1500.000003	2216.6666711000003	Minor	Wrong_doings	11	You have held the elevator doors for others	C1_28	0.95	Hard	I2_33	58	Afghan Hound is the first cloned cat	0.0	Yes	LEFT	888.6459000000286	RIGHT	875.5924999998115	RIGHT	1089.1397000000325	LEFT	1799.8259000000871	17.600000000000005	0.3	Probable_Truth	RIGHT	LEFT	3	955.9892629650336	41	2020-11-18 14:29:55.756760
14	Self	S201118	0.5	2	1	2	1	0.2	1350.0000027	1150.0000023	2066.6666708	1500.000003	Minor	Wrong_doings	8	You have assisted in a crime	C2_8	0.95	Hard	I2_12	12	Arabi is the oldest surviving breed of horse	1.0	No	RIGHT	767.1688999998878	RIGHT	400.5221999998412	LEFT	912.3916999999436	LEFT	1375.1110000000608	17.800000000000004	0.2	Probable_Truth	LEFT	LEFT	2	1667.2138000001269	42	2020-11-18 14:30:19.516438
7	Self	S201118	0.5	1	2	2	1	0.1	1433.3333362	1433.3333362	1500.000003	2066.6666708	Minor	Good_deeds	1	You have cheated on a test	C2_35	0.0	Easy	I1_31	31	Christmas Day is in March	0.0	Yes	RIGHT	600.3740999999536	RIGHT	541.1085999999159	LEFT	735.769399999981	LEFT	1200.0172000000475	17.900000000000006	0.1	Probable_Truth	LEFT	LEFT	3	1392.9269000000204	43	2020-11-18 14:30:42.996194
36	Self	S201118	0.8333333333333334	1	2	2	1	0.2	1433.3333362	1150.0000023	2066.6666708	1650.0000033	Minor	Good_deeds	3	You have borrowed things and never returned	C1_36	0.85	Easy	I2_42	48	French is Singapore's official language	1.0	Yes	RIGHT	392.62559999997393	LEFT	1199.3643999999222	LEFT	1311.3192000000709	LEFT	1086.2930999999207	17.700000000000006	0.2	Probable_Lie	LEFT	LEFT	6	700.54540000001	44	2020-11-18 14:31:06.563940
61	Self	S201118	0.5	2	1	2	1	0.8	1283.3333359	1066.6666688	1933.3333372	2500.000005	Major	Wrong_doings	31	You have pretended to be busy to avoid a social situation	C1_51	0.0	Hard	I1_9	22	December is the last month of the year	0.944444444444444	No	RIGHT	501.1161000002176	RIGHT	440.6796000000668	LEFT	2448.12479999996	RIGHT	2029.8017000000077	18.500000000000007	0.8	Probable_Truth	LEFT	RIGHT	4	2756.5122000000883	45	2020-11-18 14:31:34.099841
43	Self	S201118	0.8333333333333334	2	1	1	2	0.7	1433.3333362	1350.0000027	1650.0000033	1783.3333369	Minor	Good_deeds	18	You have used heroin	C2_18	0.7	Hard	I2_49	58	Teddy Roosevelt was the youngest US President	0.0	Yes	RIGHT	687.2816000000057	RIGHT	352.8874999999516	LEFT	1041.729999999916	LEFT	1559.6479000000727	19.200000000000006	0.7	Probable_Truth	LEFT	LEFT	1	767.9502999999386	46	2020-11-18 14:31:57.299920
138	Computer	S201118	0.8333333333333334	2	1	1	2	0.7	1000.000002	1283.3333359	2500.000005	2216.6666711000003	Minor	Good_deeds	39	You have done something against your values	C2_54	0.85	Hard	I2_31	26	Fishes can swim in water	0.0	No	LEFT	806.7975999999817	LEFT	336.5522999999939	LEFT	873.8903000000846	RIGHT	872.2352000002047	19.200000000000006	0.7	Probable_Lie	RIGHT	RIGHT	1	761.5093408947329	47	2020-11-18 14:32:20.524302
67	Self	S201118	0.6666666666666666	1	2	1	2	0.2	1350.0000027	1150.0000023	2066.6666708	1650.0000033	Major	Wrong_doings	42	You have coveted things that belong to others	C1_47	1.0	Easy	I2_30	30	Africa is the continent with the least rainfall	0.0	Yes	RIGHT	1632.1278000000348	LEFT	942.737999999963	LEFT	896.1335000001327	RIGHT	2727.1943999999166	19.000000000000007	0.2	Probable_Lie	LEFT	LEFT	5	1042.0355999999629	48	2020-11-18 14:33:49.692151
120	Computer	S201118	0.6666666666666666	2	1	1	2	0.1	1000.000002	1500.000003	2500.000005	2066.6666708	Major	Wrong_doings	29	You have attended all lectures as a student	C1_29	0.0	Hard	I1_17	60	It sometimes snows in Singapore	0.0	Yes	LEFT	1339.9749000000156	RIGHT	455.3346000000147	RIGHT	1144.6543999998084	LEFT	903.673499999968	19.000000000000007	0.1	Probable_Truth	LEFT	RIGHT	5	870.9955224074897	49	2020-11-18 14:34:14.035947
101	Computer	S201118	0.5	1	2	2	1	0.8	1066.6666688	1216.6666691	1650.0000033	1500.000003	Major	Wrong_doings	35	You have lied to your parents	C1_40	0.05	Easy	I1_29	52	Statute of Liberty is in New York	0.777777777777778	Yes	LEFT	712.5931999999011	RIGHT	847.2951999999623	LEFT	855.4541999999401	RIGHT	1309.9363000001176	19.000000000000007	0.8	Probable_Truth	LEFT	LEFT	1	992.4431794283691	50	2020-11-18 14:34:36.764509
46	Self	S201118	0.8333333333333334	2	1	2	1	0.6	1350.0000027	1500.000003	1933.3333372	2500.000005	Minor	Wrong_doings	1	You have blackmailed others for money	C1_1	0.0	Easy	I2_26	49	Cleopatra was born in Greece	0.888888888888889	Yes	RIGHT	708.0157000000327	RIGHT	337.07669999989776	LEFT	791.7015999998966	RIGHT	1086.5986999999675	19.60000000000001	0.6	Probable_Truth	LEFT	LEFT	1	726.2840999999298	51	2020-11-18 14:35:00.268430
49	Self	S201118	0.5	1	2	1	2	0.3	1433.3333362	1433.3333362	2500.000005	2066.6666708	Major	Good_deeds	50	You have been donating all your excess food to a food bank	C2_23	1.0	Hard	I1_5	27	Most plants emit oxygen in the day	0.0555555555555556	Yes	RIGHT	312.4881999999616	RIGHT	710.0901999999678	RIGHT	2428.679599999896	RIGHT	3840.299500000128	19.90000000000001	0.3	Probable_Truth	LEFT	LEFT	3	1309.7990999999638	52	2020-11-18 14:35:28.875996
105	Computer	S201118	0.5	2	1	1	2	0.6	1150.0000023	1150.0000023	2500.000005	2066.6666708	Major	Wrong_doings	48	You have volunteered for a disaster-related humanitarian mission	C2_58	0.05	Hard	I2_41	41	Chickens lay eggs	0.888888888888889	Yes	LEFT	870.3665000000456	RIGHT	704.2536000001292	LEFT	2957.667700000002	RIGHT	1081.9135000001552	19.90000000000001	0.6	Probable_Truth	LEFT	RIGHT	6	727.1344119605603	53	2020-11-18 14:35:54.660020
19	Self	S201118	0.6666666666666666	1	2	1	2	0.6	1066.6666688	1283.3333359	2066.6666708	2500.000005	Minor	Good_deeds	28	You have a non-judgmental attitude towards everyone	C2_37	1.0	Hard	I1_8	40	Vegetarians can eat vegetable products	0.944444444444444	Yes	RIGHT	384.6186000000671	RIGHT	438.6982999999418	RIGHT	3694.9282000000494	RIGHT	2839.83360000002	20.50000000000001	0.6	Probable_Truth	RIGHT	RIGHT	6	1116.388600000164	54	2020-11-18 14:36:22.619896
140	Computer	S201118	0.8333333333333334	2	1	2	1	0.6	1216.6666691	1500.000003	1783.3333369	1500.000003	Major	Wrong_doings	9	You have lost everything just to help others	C1_30	0.9	Easy	I1_37	14	Obama is the USA president now	0.0	Yes	LEFT	954.2204000001676	RIGHT	512.1381000001293	LEFT	2695.555499999955	LEFT	1311.194500000056	20.50000000000001	0.6	Probable_Lie	LEFT	LEFT	6	761.2269957302806	55	2020-11-18 14:36:47.428389
104	Computer	S201118	0.5	2	1	1	2	0.2	1350.0000027	1000.000002	2216.6666711000003	2500.000005	Major	Good_deeds	58	You have cursed at others	C1_14	0.1	Hard	I1_38	27	Dutch is the 6th Europe's most widely spoken language	0.888888888888889	No	LEFT	863.9611999999488	RIGHT	848.5332000000199	LEFT	845.3948999999739	LEFT	1319.0559999998186	20.50000000000001	0.2	Probable_Truth	RIGHT	RIGHT	6	753.4228674436627	56	2020-11-18 14:37:11.692241
53	Self	S201118	0.5	1	2	2	1	0.7	1150.0000023	1350.0000027	1500.000003	1650.0000033	Major	Wrong_doings	14	You have sold illegal drugs	C2_50	0.0	Easy	I2_3	5	A caterpillar has more muscle than a human	0.722222222222222	Yes	RIGHT	312.6462000000174	RIGHT	732.2810000000572	LEFT	791.8053999999302	LEFT	1549.4820000001257	21.20000000000001	0.7	Probable_Truth	RIGHT	RIGHT	5	1473.5815000001369	57	2020-11-18 14:37:34.779939
1	Self	S201118	0.5	1	2	1	2	0.6	1500.000003	1000.000002	2500.000005	1933.3333372	Major	Good_deeds	36	You have adopted a zero-waste lifestyle	C1_44	0.95	Easy	I2_52	12	The Amazon forest covers an area of 1 billion acres	0.944444444444444	No	RIGHT	576.0376000000633	LEFT	668.9433999999892	RIGHT	1244.3915999999715	RIGHT	1054.1371000001618	20.60000000000001	0.6	Probable_Lie	RIGHT	RIGHT	2	1249.066800000037	58	2020-11-18 14:37:59.083872
23	Self	S201118	0.6666666666666666	1	2	2	1	0.1	1433.3333362	1216.6666691	2350.0000047	1650.0000033	Minor	Wrong_doings	43	You have failed to keep promises	C1_43	0.25	Easy	I1_2	2	It is night time now	0.888888888888889	Yes	RIGHT	335.6355999999323	RIGHT	867.6738999999998	LEFT	1367.6621999998133	LEFT	1015.3291999999964	20.70000000000001	0.1	Probable_Truth	LEFT	LEFT	1	1718.7734999999975	59	2020-11-18 14:38:23.612742
117	Computer	S201118	0.6666666666666666	1	2	2	1	0.6	1216.6666691	1150.0000023	1783.3333369	1500.000003	Major	Good_deeds	19	You have given directions to a lost tourist	C1_57	0.0	Easy	I2_40	40	Nomophobia is the fear of being without a phone or computer	0.764705882352941	Yes	LEFT	424.0313000000242	LEFT	1272.252700000081	RIGHT	2375.374899999997	LEFT	3342.134200000146	20.70000000000001	0.6	Probable_Lie	RIGHT	LEFT	6	508.1047837281437	60	2020-11-18 14:38:49.748109
126	Computer	S201118	0.6666666666666666	2	1	2	1	0.6	1433.3333362	1283.3333359	2066.6666708	1933.3333372	Major	Good_deeds	35	You have gossiped about your best friend	C2_34	0.95	Hard	I2_4	21	A triangle has three sides	0.0	Yes	LEFT	777.9436000000715	LEFT	703.8456000000224	LEFT	1591.905499999939	RIGHT	1310.3049999999712	20.70000000000001	0.6	Probable_Lie	LEFT	LEFT	5	654.3677656063737	61	2020-11-18 14:39:14.068713
50	Self	S201118	0.5	1	2	1	2	0.6	1350.0000027	1066.6666688	1650.0000033	2216.6666711000003	Minor	Good_deeds	9	You have volunteered every week for many years	C1_53	0.0	Easy	I1_33	24	There are 6 million animal species on Earth	0.888888888888889	No	RIGHT	319.6706000001086	LEFT	919.7836000000734	RIGHT	3649.0967999998247	RIGHT	1408.0355999999483	20.10000000000001	0.6	Probable_Lie	RIGHT	LEFT	4	1405.6878999999751	62	2020-11-18 14:39:40.627850
84	Self	S201118	0.8333333333333334	1	2	2	1	0.6	1433.3333362	1500.000003	1500.000003	2350.0000047	Minor	Good_deeds	27	You have returned your trays in food courts	C1_34	0.0	Hard	I1_46	4	Cernan was the second last man to walk on the Moon	0.666666666666667	Yes	RIGHT	496.75040000011	RIGHT	2389.0983000001142	RIGHT	1502.7656000002023	LEFT	1699.6853999999075	20.70000000000001	0.6	Probable_Lie	LEFT	LEFT	2	712.8013000001374	63	2020-11-18 14:40:06.788149
56	Self	S201118	0.5	2	1	1	2	0.5	1216.6666691	1150.0000023	1500.000003	1933.3333372	Minor	Wrong_doings	30	You have started a hotline for victims of bully	C2_24	0.2	Easy	I1_32	32	Algeria is Africa's second largest country	0.0	Yes	RIGHT	565.0746000001163	RIGHT	343.39619999991555	RIGHT	4611.45039999974	LEFT	1431.368200000179	21.20000000000001	0.5	Probable_Truth	LEFT	RIGHT	4	2967.550400000164	64	2020-11-18 14:40:35.084367
128	Computer	S201118	0.8333333333333334	1	2	1	2	0.8	1350.0000027	1066.6666688	2066.6666708	1500.000003	Major	Good_deeds	6	You have deceived a loved one	C2_29	0.0	Hard	I1_10	42	R. Amundsen discovered the South Pole	0.0	Yes	LEFT	319.73440000001574	RIGHT	700.2352999998038	LEFT	1071.1707999998907	LEFT	1000.4945000000588	21.20000000000001	0.8	Probable_Lie	LEFT	LEFT	5	947.5378054111555	65	2020-11-18 14:40:57.683126
26	Self	S201118	0.6666666666666666	2	1	1	2	0.1	1066.6666688	1500.000003	1783.3333369	2216.6666711000003	Minor	Good_deeds	7	You have cursed at your loved ones	C2_2	0.55	Hard	I1_41	41	The Eiffel Tower is in Paris	0.0555555555555556	No	RIGHT	449.88919999968857	RIGHT	465.5636000002232	LEFT	1826.162300000305	RIGHT	872.2221000002719	21.30000000000001	0.1	Probable_Truth	RIGHT	RIGHT	4	1137.5152000000526	66	2020-11-18 14:41:21.572563
22	Self	S201118	0.6666666666666666	1	2	2	1	0.4	1500.000003	1433.3333362	2500.000005	1933.3333372	Major	Good_deeds	10	You have kidnapped someone	C2_28	0.0	Hard	I2_35	44	Bears have the biggest eyes among mammals	0.0	No	RIGHT	336.63239999987127	RIGHT	1333.4280999997643	LEFT	719.3394999999327	LEFT	1227.288700000372	21.70000000000001	0.4	Probable_Truth	LEFT	LEFT	2	1506.3373000002684	67	2020-11-18 14:41:46.636251
25	Self	S201118	0.6666666666666666	2	1	1	2	0.4	1283.3333359	1433.3333362	1500.000003	1783.3333369	Minor	Good_deeds	38	You have organized a violent protest	C2_16	0.2	Hard	I2_21	54	Singapore is a poor country	0.944444444444444	No	RIGHT	677.760600000056	RIGHT	272.03899999994974	LEFT	995.8984999998391	LEFT	968.5640000002422	22.10000000000001	0.4	Probable_Truth	RIGHT	RIGHT	6	860.2799000000232	68	2020-11-18 14:42:08.980672
69	Self	S201118	0.6666666666666666	1	2	2	1	0.5	1216.6666691	1283.3333359	1650.0000033	2350.0000047	Minor	Wrong_doings	40	You have sign up to sponsor a needy child	C1_8	1.0	Easy	I2_16	23	The current century is 21st	0.611111111111111	No	RIGHT	216.47140000004583	LEFT	1302.1702000000914	LEFT	124.81900000011592	Time_Max_Exceeded	5000.226999999995	21.60000000000001	0.5	Probable_Lie	RIGHT	RIGHT	2	819.8807999997371	69	2020-11-18 14:42:35.516735
110	Computer	S201118	0.5	2	1	2	1	0.8	1500.000003	1500.000003	1650.0000033	1500.000003	Minor	Wrong_doings	8	You have assisted in a crime	C2_8	0.95	Hard	I2_12	12	Arabi is the oldest surviving breed of horse	1.0	No	LEFT	860.0141000001713	RIGHT	232.7361999996356	LEFT	1064.4092000002274	LEFT	1725.750600000083	21.60000000000001	0.8	Probable_Truth	RIGHT	RIGHT	6	567.9353509969862	70	2020-11-18 14:42:58.683019
21	Self	S201118	0.6666666666666666	1	2	2	1	0.7	1150.0000023	1000.000002	2216.6666711000003	2216.6666711000003	Major	Good_deeds	19	You have given directions to a lost tourist	C1_57	0.0	Easy	I2_40	40	Nomophobia is the fear of being without a phone or computer	0.764705882352941	Yes	RIGHT	255.7523000000401	RIGHT	582.5024000000667	RIGHT	854.7454999998081	LEFT	1863.0511999999728	22.300000000000008	0.7	Probable_Truth	RIGHT	RIGHT	6	793.8033999998879	71	2020-11-18 14:43:22.196713
64	Self	S201118	0.6666666666666666	1	2	1	2	0.8	1283.3333359	1216.6666691	1783.3333369	2216.6666711000003	Major	Good_deeds	8	You have offered a listening ear to a friend	C2_20	0.0	Hard	I1_23	35	Singapore is a country	0.0	No	RIGHT	200.2092000002449	RIGHT	538.2784000003085	RIGHT	1432.3132999998052	RIGHT	960.6715999998414	23.10000000000001	0.8	Probable_Truth	RIGHT	RIGHT	5	691.5220000000772	72	2020-11-18 14:43:45.092540
71	Self	S201118	0.6666666666666666	1	2	2	1	0.4	1000.000002	1433.3333362	2216.6666711000003	1933.3333372	Major	Wrong_doings	47	You have given way to the handicapped	C2_40	0.0	Hard	I1_35	16	Kangaroos live in Africa	0.833333333333333	Yes	RIGHT	888.0033999998886	RIGHT	510.218100000202	RIGHT	1431.846200000109	LEFT	1205.050100000335	23.500000000000007	0.4	Probable_Truth	RIGHT	RIGHT	6	1087.237400000049	73	2020-11-18 14:44:09.371819
32	Self	S201118	0.8333333333333334	1	2	1	2	0.6	1000.000002	1066.6666688	2350.0000047	1783.3333369	Major	Good_deeds	6	You have deceived a loved one	C2_29	0.0	Hard	I1_10	42	R. Amundsen discovered the South Pole	0.0	Yes	RIGHT	231.7979999997988	LEFT	442.472700000053	LEFT	868.4927999997853	LEFT	1104.480500000136	22.90000000000001	0.6	Probable_Lie	RIGHT	RIGHT	1	689.5643000002565	74	2020-11-18 14:44:31.482772
103	Computer	S201118	0.5	1	2	2	1	0.2	1350.0000027	1283.3333359	2216.6666711000003	2500.000005	Minor	Good_deeds	1	You have cheated on a test	C2_35	0.0	Easy	I1_31	31	Christmas Day is in March	0.0	Yes	LEFT	689.4139999999425	LEFT	1171.906200000194	LEFT	872.4330000000009	LEFT	934.6914999996444	22.90000000000001	0.2	Probable_Lie	LEFT	RIGHT	2	532.0518399330612	75	2020-11-18 14:44:55.604217
86	Self	S201118	0.8333333333333334	1	2	2	1	0.2	1500.000003	1216.6666691	2066.6666708	1500.000003	Major	Wrong_doings	19	You have sheltered others from disasters	C1_4	1.0	Hard	I2_25	46	Saturn's rings are between 30 and 300 feet thick	0.0555555555555556	Yes	RIGHT	256.7625000001499	RIGHT	487.11180000009335	RIGHT	2735.676499999954	LEFT	1455.2342999995744	23.100000000000005	0.2	Probable_Truth	RIGHT	RIGHT	6	1434.6002999996017	76	2020-11-18 14:45:20.835935
111	Computer	S201118	0.5	2	1	2	1	0.3	1216.6666691	1066.6666688	2066.6666708	2350.0000047	Minor	Good_deeds	14	You have taken responsibility for your actions	C1_50	1.0	Easy	I2_6	3	Summer is hotter than winter	0.0	Yes	LEFT	942.0681000001424	LEFT	696.408099999644	RIGHT	967.8281999999854	RIGHT	1250.6332000002658	23.100000000000005	0.3	Probable_Lie	LEFT	LEFT	4	599.8655164055042	77	2020-11-18 14:45:44.564753
2	Self	S201118	0.5	1	2	1	2	0.2	1150.0000023	1500.000003	2350.0000047	2216.6666711000003	Minor	Wrong_doings	11	You have held the elevator doors for others	C1_28	0.95	Hard	I2_33	58	Afghan Hound is the first cloned cat	0.0	Yes	RIGHT	232.01160000007803	RIGHT	731.4040999999634	RIGHT	1201.6404000000875	LEFT	1119.9285999996391	23.300000000000004	0.2	Probable_Truth	LEFT	LEFT	3	1333.0495999998675	78	2020-11-18 14:46:08.972140
112	Computer	S201118	0.6666666666666666	1	2	1	2	0.2	1000.000002	1216.6666691	2500.000005	2350.0000047	Major	Wrong_doings	43	You have made someone cry	C2_10	0.05	Easy	I2_17	35	Animals are living things	0.0	No	LEFT	577.178499999718	RIGHT	713.885399999981	LEFT	850.9233999998287	RIGHT	759.7187000001213	23.300000000000004	0.2	Probable_Truth	RIGHT	RIGHT	5	956.6154760549672	79	2020-11-18 14:46:32.459972
5	Self	S201118	0.5	1	2	2	1	0.3	1283.3333359	1350.0000027	2216.6666711000003	2500.000005	Major	Wrong_doings	35	You have lied to your parents	C1_40	0.05	Easy	I1_29	52	Statute of Liberty is in New York	0.777777777777778	Yes	RIGHT	239.740299999994	LEFT	913.0943000000116	LEFT	903.6544000000504	RIGHT	942.9488999999194	23.000000000000004	0.3	Probable_Lie	LEFT	LEFT	6	1712.1202999996967	80	2020-11-18 14:46:57.093687
116	Computer	S201118	0.6666666666666666	1	2	2	1	0.1	1500.000003	1066.6666688	2066.6666708	2066.6666708	Minor	Wrong_doings	57	You have rescued others from a catastrophe	C2_43	0.95	Hard	I1_57	57	Lehman Brothers went bankrupt on 20th September	0.0	No	LEFT	448.4887999997227	LEFT	1108.2166000001052	RIGHT	3087.419599999976	RIGHT	2725.9562000003825	23.000000000000004	0.1	Probable_Lie	LEFT	RIGHT	1	720.3587395114987	81	2020-11-18 14:47:24.451785
34	Self	S201118	0.8333333333333334	1	2	1	2	0.1	1066.6666688	1216.6666691	1650.0000033	2066.6666708	Minor	Wrong_doings	29	You have been arrested	C1_17	0.1	Easy	I2_48	50	There is typically 0.6 grams of mercury in glass thermometer	0.0	No	RIGHT	272.8191000001061	RIGHT	424.7940000000199	LEFT	822.4654999999075	RIGHT	2063.49500000033	23.100000000000005	0.1	Probable_Truth	RIGHT	RIGHT	4	882.0676000000276	82	2020-11-18 14:47:47.492680
68	Self	S201118	0.6666666666666666	1	2	2	1	0.3	1150.0000023	1066.6666688	1500.000003	2500.000005	Minor	Wrong_doings	20	You have provided shelter for stray animals	C1_42	0.7	Easy	I2_36	15	Airbags in cars are filled with sodium azide	0.166666666666667	Yes	RIGHT	81.08420000007754	RIGHT	333.8032999999996	RIGHT	1871.3133999999627	RIGHT	2256.6305000000284	23.40000000000001	0.3	Probable_Truth	LEFT	LEFT	1	689.3495999997867	83	2020-11-18 14:48:11.516641
17	Self	S201118	0.6666666666666666	1	2	1	2	0.3	1000.000002	1150.0000023	1933.3333372	1783.3333369	Minor	Good_deeds	37	You have held the door open for a stranger	C1_12	0.85	Hard	I1_40	8	There are 20 bones in the human skull	0.0	Yes	RIGHT	255.58600000022125	LEFT	1226.0220000002846	RIGHT	1320.9492999999384	LEFT	1312.1178999999756	23.100000000000005	0.3	Probable_Lie	RIGHT	RIGHT	2	873.1536999998752	84	2020-11-18 14:48:34.948206
137	Computer	S201118	0.8333333333333334	2	1	1	2	0.4	1066.6666688	1433.3333362	2216.6666711000003	2500.000005	Major	Good_deeds	54	You have downloaded pirated movies	C2_39	0.0	Easy	I1_36	31	The hardest bone in human body is the jawbone	0.722222222222222	No	LEFT	1036.1644000004162	RIGHT	120.2488999997513	LEFT	1070.5070999997588	LEFT	1478.90550000011	23.100000000000005	0.4	Probable_Truth	RIGHT	RIGHT	4	814.2667692089258	85	2020-11-18 14:48:59.260335
20	Self	S201118	0.6666666666666666	1	2	2	1	0.2	1350.0000027	1350.0000027	1783.3333369	2350.0000047	Minor	Wrong_doings	57	You have rescued others from a catastrophe	C2_43	0.95	Hard	I1_57	57	Lehman Brothers went bankrupt on 20th September	0.0	No	RIGHT	247.88269999999105	RIGHT	290.9036999999444	RIGHT	1071.753499999886	RIGHT	860.5106999998497	23.300000000000004	0.2	Probable_Truth	LEFT	LEFT	2	795.3651000002537	86	2020-11-18 14:49:21.932041
108	Computer	S201118	0.5	2	1	2	1	0.7	1283.3333359	1216.6666691	1933.3333372	1783.3333369	Minor	Good_deeds	6	You have said sorry when you were rude	C2_6	0.95	Easy	I1_39	38	Slavery was abolished in Cuba in 1886	0.944444444444444	Yes	LEFT	740.2695999999196	LEFT	208.23870000003808	RIGHT	903.4059000000524	LEFT	1723.8130000000638	23.300000000000004	0.7	Probable_Lie	RIGHT	RIGHT	3	558.1230649195635	87	2020-11-18 14:49:44.844347
141	Computer	S201118	0.8333333333333334	2	1	2	1	0.5	1350.0000027	1350.0000027	1500.000003	1650.0000033	Major	Wrong_doings	48	You have started an NGO using your savings	C2_9	1.0	Easy	I2_58	1	China is a part of Asia	0.833333333333333	No	RIGHT	2708.405599999878	LEFT	640.9200000002784	RIGHT	1543.740300000081	RIGHT	1160.9716000002663	22.800000000000004	0.5	Probable_Lie	LEFT	LEFT	6	910.803823955973	88	2020-11-18 14:50:10.236739
129	Computer	S201118	0.8333333333333334	1	2	1	2	0.2	1000.000002	1216.6666691	2350.0000047	1933.3333372	Major	Wrong_doings	17	You have bribed someone to improve a grade	C2_47	0.65	Hard	I2_23	44	A dog has four legs	0.833333333333333	Yes	LEFT	96.85110000009443	LEFT	912.519599999996	LEFT	830.4791000000478	RIGHT	831.999900000028	22.800000000000004	0.2	Probable_Lie	LEFT	RIGHT	1	867.8215222553818	89	2020-11-18 14:50:32.844366
9	Self	S201118	0.5	2	1	1	2	0.8	1066.6666688	1216.6666691	1783.3333369	2500.000005	Major	Wrong_doings	48	You have volunteered for a disaster-related humanitarian mission	C2_58	0.05	Hard	I2_41	41	Chickens lay eggs	0.888888888888889	Yes	RIGHT	842.755400000442	RIGHT	592.9114999999001	LEFT	1693.5161999999764	RIGHT	663.4438999999475	23.600000000000005	0.8	Probable_Truth	LEFT	LEFT	1	777.8370999999424	90	2020-11-18 14:50:56.564363
57	Self	S201118	0.5	2	1	1	2	0.2	1066.6666688	1216.6666691	2500.000005	1500.000003	Major	Good_deeds	51	You have fabricated facts about yourself	C2_57	0.05	Easy	I1_11	11	Mexico's National Day is September 16	1.0	No	RIGHT	645.3973000002406	RIGHT	352.534900000137	LEFT	751.04040000042	LEFT	1607.9222000003028	23.800000000000004	0.2	Probable_Truth	LEFT	LEFT	2	1611.2957999998798	91	2020-11-18 14:51:20.388196
100	Computer	S201118	0.5	1	2	2	1	0.4	1216.6666691	1066.6666688	1783.3333369	2350.0000047	Major	Good_deeds	44	You have risked your life to save another person's life	C2_36	0.65	Hard	I2_53	33	The Seine river is 50 feet above sea level	0.0	No	LEFT	472.0952000002399	LEFT	727.2174999998242	RIGHT	1680.0499999999374	LEFT	1253.051400000004	23.800000000000004	0.4	Probable_Lie	LEFT	LEFT	4	890.2824999402679	92	2020-11-18 14:51:44.388270
115	Computer	S201118	0.6666666666666666	1	2	1	2	0.4	1283.3333359	1283.3333359	1650.0000033	2216.6666711000003	Minor	Good_deeds	28	You have a non-judgmental attitude towards everyone	C2_37	1.0	Hard	I1_8	40	Vegetarians can eat vegetable products	0.944444444444444	Yes	LEFT	696.1120999999366	RIGHT	815.692399999989	RIGHT	2161.749299999883	RIGHT	832.3896000001696	23.800000000000004	0.4	Probable_Truth	LEFT	RIGHT	6	881.0608319747315	93	2020-11-18 14:52:08.779284
78	Self	S201118	0.6666666666666666	2	1	2	1	0.3	1000.000002	1150.0000023	2350.0000047	1783.3333369	Minor	Good_deeds	49	You have stopped using plastics completely	C1_49	0.55	Easy	I2_51	42	The Earth turns the closest to the sun in May	0.888888888888889	No	RIGHT	339.89489999976286	RIGHT	288.19209999983286	RIGHT	1423.6049999999525	LEFT	2201.7644999996264	24.100000000000005	0.3	Probable_Truth	LEFT	LEFT	2	978.9387000000715	94	2020-11-18 14:52:32.868157
55	Self	S201118	0.5	1	2	2	1	0.8	1066.6666688	1000.000002	1783.3333369	2350.0000047	Major	Good_deeds	53	You have watched an M18 movie when you were underage	C2_14	0.05	Hard	I2_11	3	The Earth is round	0.833333333333333	Yes	LEFT	240.4343000002882	LEFT	1585.2169999998296	LEFT	1462.876900000083	RIGHT	1439.9665999999345	24.100000000000005	0.8	Probable_Lie	RIGHT	RIGHT	1	1235.3861999999936	95	2020-11-18 14:52:57.612243
29	Self	S201118	0.6666666666666666	2	1	2	1	0.6	1150.0000023	1216.6666691	2216.6666711000003	1650.0000033	Major	Wrong_doings	2	You have been physically hurt to protect others	C1_59	0.05	Easy	I1_25	4	The first Grammy awards was held in 1959	0.722222222222222	Yes	LEFT	959.3865000001642	LEFT	2464.0283999997337	RIGHT	3359.7741000003225	RIGHT	1905.3595000000316	24.100000000000005	0.6	Probable_Lie	RIGHT	RIGHT	2	784.6600000002582	96	2020-11-18 14:55:04.244512
28	Self	S201118	0.6666666666666666	2	1	2	1	0.2	1216.6666691	1283.3333359	2350.0000047	1500.000003	Minor	Wrong_doings	59	You have helped your parents when asked to	C1_7	0.7	Easy	I1_60	39	There are 6000 spoken languages in the World	0.944444444444444	No	RIGHT	516.1481000000094	RIGHT	206.4724000001661	RIGHT	991.5899000002356	RIGHT	1660.3321000002325	24.300000000000004	0.2	Probable_Truth	RIGHT	RIGHT	5	753.2641000002513	97	2020-11-18 14:55:27.299901
11	Self	S201118	0.5	2	1	1	2	0.6	1150.0000023	1066.6666688	1500.000003	1650.0000033	Major	Wrong_doings	50	You have stopped using products tested on animals	C1_58	0.85	Hard	I1_3	39	There are 10 continents in the World	0.0	No	RIGHT	1492.9008999997675	RIGHT	393.56980000002295	RIGHT	2973.987800000032	LEFT	1047.195399999964	24.90000000000001	0.6	Probable_Lie	RIGHT	RIGHT	3	1110.403099999985	98	2020-11-18 14:55:52.260550
96	Computer	S201118	0.5	1	2	1	2	0.7	1150.0000023	1150.0000023	1933.3333372	1650.0000033	Minor	Wrong_doings	22	You have made counterfeit money	C1_22	1.0	Hard	I2_24	24	There are 7 days in a week	0.888888888888889	Yes	LEFT	767.9001999999855	LEFT	1286.2413999996534	LEFT	814.4159000003128	RIGHT	743.5027999999875	24.90000000000001	0.7	Probable_Lie	RIGHT	LEFT	5	502.9517809180309	99	2020-11-18 14:56:14.828268
90	Self	S201118	0.8333333333333334	2	1	1	2	0.7	1500.000003	1216.6666691	1650.0000033	2500.000005	Minor	Wrong_doings	26	You have said thank you when you have received help	C2_33	0.45	Hard	I1_21	13	South East Asia is currently free from polio	0.888888888888889	No	RIGHT	301.4373000000887	RIGHT	129.24459999976534	RIGHT	982.04990000022	RIGHT	2103.238499999861	25.600000000000005	0.7	Probable_Lie	LEFT	LEFT	2	667.1178999999938	100	2020-11-18 14:56:38.451512
91	Self	S201118	0.8333333333333334	2	1	1	2	0.5	1216.6666691	1000.000002	1783.3333369	1783.3333369	Major	Wrong_doings	3	You have taken months off to volunteer	C2_45	0.05	Hard	I2_18	43	February has 30 days	0.777777777777778	Yes	RIGHT	258.15959999999905	RIGHT	88.28820000007909	LEFT	2218.228000000181	LEFT	1119.3984999999884	26.100000000000005	0.5	Probable_Truth	RIGHT	RIGHT	6	654.1848999995636	101	2020-11-18 14:57:01.148473
107	Computer	S201118	0.5	2	1	1	2	0.1	1000.000002	1283.3333359	2350.0000047	1650.0000033	Major	Wrong_doings	50	You have stopped using products tested on animals	C1_58	0.85	Hard	I1_3	39	There are 10 continents in the World	0.0	No	LEFT	699.1441000000123	RIGHT	87.19030000020211	RIGHT	1103.0249000000367	LEFT	781.5491999999722	26.100000000000005	0.1	Probable_Truth	LEFT	RIGHT	4	797.3104325162849	102	2020-11-18 14:57:23.474843
88	Self	S201118	0.8333333333333334	2	1	1	2	0.2	1000.000002	1433.3333362	2500.000005	2350.0000047	Minor	Good_deeds	45	You have used a fake name online	C1_15	1.0	Easy	I2_50	1	Last day of the year is 30th December	0.888888888888889	No	RIGHT	285.9336000001349	RIGHT	96.79789999972854	LEFT	2115.138799999841	LEFT	1966.214200000195	26.300000000000004	0.2	Probable_Truth	RIGHT	RIGHT	5	581.3741000001755	103	2020-11-18 14:57:48.379938
102	Computer	S201118	0.5	1	2	2	1	0.6	1000.000002	1000.000002	2066.6666708	1933.3333372	Major	Good_deeds	28	You have taken part in burglary	C2_11	0.0	Easy	I1_58	29	The first Olympic Games was held in the 5th century B.C	0.833333333333333	No	RIGHT	495.8555999996861	RIGHT	187.62470000001483	LEFT	783.5798000000977	RIGHT	1772.2450000001118	26.90000000000001	0.6	Probable_Lie	RIGHT	LEFT	6	863.5570167628771	104	2020-11-18 14:58:11.059821
89	Self	S201118	0.8333333333333334	2	1	1	2	0.6	1350.0000027	1066.6666688	1933.3333372	2216.6666711000003	Major	Wrong_doings	7	You have confessed to your mistake	C1_45	0.0	Hard	I1_13	48	Red is a color	0.0	No	RIGHT	12.996400000247377	RIGHT	328.3211000002666	RIGHT	1289.6785000002635	RIGHT	944.7248999999828	27.500000000000007	0.6	Probable_Truth	RIGHT	RIGHT	5	605.5221000001438	105	2020-11-18 14:58:33.379988
60	Self	S201118	0.5	2	1	2	1	0.6	1000.000002	1350.0000027	2066.6666708	2066.6666708	Major	Wrong_doings	24	You have extorted money from anyone	C1_5	1.0	Hard	I2_28	28	Milwaukee Art Museum is located in California	0.722222222222222	No	RIGHT	198.0406000002404	RIGHT	368.374700000004	LEFT	783.9632000000165	LEFT	1097.0705999998245	28.10000000000001	0.6	Probable_Lie	LEFT	LEFT	5	767.1319000000949	106	2020-11-18 14:58:55.652179
134	Computer	S201118	0.8333333333333334	1	2	2	1	0.7	1433.3333362	1350.0000027	1933.3333372	2066.6666708	Minor	Wrong_doings	36	You have kept your promises	C1_6	0.8	Hard	I1_6	6	It takes 112 years to build the Pisa Tower	0.0	No	LEFT	328.2014999999774	LEFT	765.2324999999109	RIGHT	1078.7955999999213	LEFT	2502.435299999888	28.10000000000001	0.7	Probable_Lie	RIGHT	LEFT	6	796.5519000069952	107	2020-11-18 14:59:20.484447
121	Computer	S201118	0.6666666666666666	2	1	1	2	0.5	1216.6666691	1350.0000027	1933.3333372	1500.000003	Minor	Good_deeds	38	You have organized a violent protest	C2_16	0.2	Hard	I2_21	54	Singapore is a poor country	0.944444444444444	No	LEFT	928.0367000001206	RIGHT	31.802200000129236	LEFT	1109.335899999678	LEFT	776.5754000001834	28.10000000000001	0.5	Probable_Truth	LEFT	LEFT	2	928.7147573978166	108	2020-11-18 14:59:42.835968
82	Self	S201118	0.8333333333333334	1	2	1	2	0.4	1283.3333359	1433.3333362	2350.0000047	1933.3333372	Major	Wrong_doings	4	You have drunk alcohol when you were underage	C1_27	0.1	Easy	I1_26	25	The Moon orbits around the Earth	0.0	Yes	RIGHT	240.14719999968293	RIGHT	299.06839999966905	LEFT	1213.0365000002712	LEFT	2833.1012000003284	28.500000000000007	0.4	Probable_Lie	RIGHT	RIGHT	1	585.5430000001434	109	2020-11-18 15:00:07.579575
54	Self	S201118	0.5	1	2	2	1	0.1	1500.000003	1216.6666691	2216.6666711000003	2500.000005	Minor	Wrong_doings	11	You have faked an illness	C2_31	0.15	Hard	I1_24	46	Penguin can fly with their wings	0.0555555555555556	No	RIGHT	991.5575999998508	LEFT	823.8544999999249	LEFT	1233.32419999997	LEFT	1134.4856000000618	28.40000000000001	0.1	Probable_Lie	RIGHT	LEFT	4	561.212400000386	110	2020-11-18 15:00:32.332656
125	Computer	S201118	0.6666666666666666	2	1	2	1	0.7	1283.3333359	1216.6666691	1500.000003	1783.3333369	Major	Wrong_doings	2	You have been physically hurt to protect others	C1_59	0.05	Easy	I1_25	4	The first Grammy awards was held in 1959	0.722222222222222	Yes	LEFT	1122.9620999997678	LEFT	302.4155999996765	RIGHT	942.7514999997584	RIGHT	1633.1780000000435	28.40000000000001	0.7	Probable_Truth	LEFT	RIGHT	4	742.7628823293139	111	2020-11-18 15:00:55.444437
30	Self	S201118	0.6666666666666666	2	1	2	1	0.3	1000.000002	1066.6666688	1650.0000033	2066.6666708	Major	Good_deeds	35	You have gossiped about your best friend	C2_34	0.95	Hard	I2_4	21	A triangle has three sides	0.0	Yes	RIGHT	2271.468299999924	RIGHT	288.5080000000926	LEFT	783.0143999999564	RIGHT	918.0905999996868	28.700000000000006	0.3	Probable_Lie	RIGHT	RIGHT	2	1194.3560999998226	112	2020-11-18 15:01:19.260235
52	Self	S201118	0.5	1	2	2	1	0.2	1283.3333359	1150.0000023	1933.3333372	1783.3333369	Major	Good_deeds	31	You have helped others to pick up their belongings	C1_39	1.0	Easy	I1_47	47	Mozambique is the world's poorest country	0.833333333333333	Yes	RIGHT	409.1050000001815	LEFT	1420.4280999997536	RIGHT	1438.731100000041	RIGHT	1274.7472999999443	28.500000000000007	0.2	Probable_Lie	LEFT	LEFT	6	566.0686000001078	113	2020-11-18 15:01:43.092186
37	Self	S201118	0.8333333333333334	1	2	2	1	0.7	1500.000003	1500.000003	2216.6666711000003	1500.000003	Major	Good_deeds	47	You have followed instructions	C1_37	0.95	Easy	I2_43	43	Fibers in oranges can be used to make fabric	1.0	Yes	RIGHT	230.86499999999432	RIGHT	127.84760000022288	RIGHT	735.101300000224	LEFT	1294.8013000000174	29.200000000000006	0.7	Probable_Truth	RIGHT	RIGHT	2	504.5028999998067	114	2020-11-18 15:02:05.275891
94	Self	S201118	0.8333333333333334	2	1	2	1	0.1	1066.6666688	1283.3333359	2350.0000047	1500.000003	Major	Good_deeds	33	You have stolen something	C1_3	1.0	Easy	I1_48	60	Hot chocolate was created by the Mayan culture	0.0555555555555556	Yes	RIGHT	459.0846000000965	RIGHT	335.6115999999929	LEFT	672.1548999998959	LEFT	1684.9277999999686	29.300000000000008	0.1	Probable_Truth	LEFT	LEFT	1	1445.9623999996438	115	2020-11-18 15:02:28.651779
83	Self	S201118	0.8333333333333334	1	2	1	2	0.3	1216.6666691	1066.6666688	1650.0000033	2500.000005	Major	Good_deeds	59	You have participated in a scamming business	C2_25	0.0	Easy	I2_8	8	Singapore is in Africa	0.777777777777778	No	RIGHT	231.5393000003496	RIGHT	575.3429000001233	LEFT	1110.200099999929	LEFT	1015.414899999996	29.60000000000001	0.3	Probable_Lie	RIGHT	RIGHT	1	555.07149999994	116	2020-11-18 15:02:51.147883
0	Self	S201118	0.5	1	2	1	2	0.4	1350.0000027	1066.6666688	1933.3333372	1650.0000033	Minor	Wrong_doings	22	You have made counterfeit money	C1_22	1.0	Hard	I2_24	24	There are 7 days in a week	0.888888888888889	Yes	RIGHT	152.28810000007795	RIGHT	49.09100000031685	LEFT	657.1177999999236	RIGHT	791.2903000001279	30.000000000000007	0.4	Probable_Truth	LEFT	RIGHT	6	318.04680000004737	117	2020-11-18 15:03:11.692608
4	Self	S201118	0.5	1	2	2	1	0.7	1000.000002	1283.3333359	1650.0000033	1783.3333369	Major	Good_deeds	44	You have risked your life to save another person's life	C2_36	0.65	Hard	I2_53	33	The Seine river is 50 feet above sea level	0.0	No	RIGHT	96.85350000017934	RIGHT	559.2971000000944	RIGHT	879.3983999999	RIGHT	1345.8143000002565	30.700000000000006	0.7	Probable_Truth	RIGHT	RIGHT	5	1385.8792000000903	118	2020-11-18 15:03:34.252207
38	Self	S201118	0.8333333333333334	1	2	2	1	0.5	1283.3333359	1350.0000027	1500.000003	2350.0000047	Minor	Wrong_doings	36	You have kept your promises	C1_6	0.8	Hard	I1_6	6	It takes 112 years to build the Pisa Tower	0.0	No	RIGHT	136.15359999994325	RIGHT	724.7060999998212	RIGHT	624.223300000267	RIGHT	1022.10389999982	31.200000000000006	0.5	Probable_Lie	RIGHT	LEFT	2	333.8373000001411	119	2020-11-18 15:03:56.148550
130	Computer	S201118	0.8333333333333334	1	2	1	2	0.6	1216.6666691	1500.000003	2500.000005	2216.6666711000003	Minor	Wrong_doings	29	You have been arrested	C1_17	0.1	Easy	I2_48	50	There is typically 0.6 grams of mercury in glass thermometer	0.0	No	LEFT	23.865699999987555	LEFT	566.1024000000907	LEFT	704.3112000001202	RIGHT	927.4593000000096	31.200000000000006	0.6	Probable_Lie	LEFT	RIGHT	1	762.6938667600009	120	2020-11-18 15:04:19.148382
139	Computer	S201118	0.8333333333333334	2	1	1	2	0.2	1500.000003	1150.0000023	1933.3333372	2066.6666708	Minor	Good_deeds	18	You have used heroin	C2_18	0.7	Hard	I2_49	58	Teddy Roosevelt was the youngest US President	0.0	Yes	LEFT	394.8239999999714	LEFT	511.6337999997995	LEFT	687.606599999981	RIGHT	1671.1419999996906	31.200000000000006	0.2	Probable_Lie	LEFT	RIGHT	1	637.0289553501968	121	2020-11-18 15:04:42.268657
66	Self	S201118	0.6666666666666666	1	2	1	2	0.6	1433.3333362	1000.000002	1933.3333372	1783.3333369	Minor	Good_deeds	42	You have illegally stayed in a country	C1_20	0.2	Easy	I1_54	5	Nanyang Technological University is in Australia	0.0	Yes	RIGHT	87.68579999969006	RIGHT	285.6776000003265	LEFT	795.7114000000729	LEFT	1591.356899999937	31.800000000000008	0.6	Probable_Truth	RIGHT	RIGHT	5	549.807299999884	122	2020-11-18 15:05:04.300035
95	Self	S201118	0.8333333333333334	2	1	2	1	0.4	1150.0000023	1150.0000023	2066.6666708	1933.3333372	Minor	Good_deeds	60	You have been restricting your electricity consumption	C2_7	0.65	Easy	I2_60	50	Astatine is the rarest element in the Earth's crust	0.0	Yes	RIGHT	62.32379999983095	RIGHT	88.37519999997312	RIGHT	2079.817500000445	LEFT	1565.8809999999903	32.20000000000001	0.4	Probable_Truth	RIGHT	RIGHT	4	1420.3745999998318	123	2020-11-18 15:05:28.395497
119	Computer	S201118	0.6666666666666666	1	2	2	1	0.8	1350.0000027	1433.3333362	2216.6666711000003	2500.000005	Minor	Wrong_doings	43	You have failed to keep promises	C1_43	0.25	Easy	I1_2	2	It is night time now	0.888888888888889	Yes	RIGHT	257.80010000016773	RIGHT	282.9234999999244	LEFT	1840.850699999919	LEFT	958.712700000433	33.00000000000001	0.8	Probable_Lie	RIGHT	LEFT	4	500.199499358647	124	2020-11-18 15:05:52.308531
3	Self	S201118	0.5	1	2	1	2	0.5	1066.6666688	1216.6666691	2066.6666708	2350.0000047	Minor	Wrong_doings	40	You have given up your seat in the MRT	C2_1	0.05	Hard	I1_12	53	It is 20th Century now	0.0	No	RIGHT	873.1347999996615	LEFT	1543.678	RIGHT	1043.4688000000278	LEFT	1608.4890000001906	32.50000000000001	0.5	Probable_Lie	LEFT	LEFT	5	1234.0782999999649	125	2020-11-18 15:06:17.883062
87	Self	S201118	0.8333333333333334	1	2	2	1	0.7	1000.000002	1283.3333359	1783.3333369	2066.6666708	Minor	Wrong_doings	34	You have helped a friend in need	C2_19	1.0	Hard	I2_45	45	Marijuana is legal in Singapore	0.0	No	RIGHT	120.04990000014004	RIGHT	282.29220000002897	RIGHT	2351.8325000000004	LEFT	765.487099999973	33.20000000000001	0.7	Probable_Truth	RIGHT	RIGHT	3	484.2886000001272	126	2020-11-18 15:06:40.595940
113	Computer	S201118	0.6666666666666666	1	2	1	2	0.3	1066.6666688	1350.0000027	1933.3333372	1783.3333369	Minor	Good_deeds	37	You have held the door open for a stranger	C1_12	0.85	Hard	I1_40	8	There are 20 bones in the human skull	0.0	Yes	LEFT	79.81269999982032	LEFT	928.621799999746	RIGHT	850.8250999998381	LEFT	719.5731000001615	33.20000000000001	0.3	Probable_Lie	RIGHT	RIGHT	1	919.7359654622744	127	2020-11-18 15:07:02.796648
81	Self	S201118	0.8333333333333334	1	2	1	2	0.8	1350.0000027	1350.0000027	2500.000005	1783.3333369	Minor	Good_deeds	53	You have been convicted in court	C2_59	0.85	Easy	I2_55	45	Brazil is in South America	0.777777777777778	No	RIGHT	481.0248000003412	RIGHT	190.24730000001	LEFT	754.906800000299	Time_Max_Exceeded	5000.163200000316	34.00000000000001	0.8	Probable_Lie	RIGHT	RIGHT	1	698.0929000001197	128	2020-11-18 15:07:29.473835
51	Self	S201118	0.5	1	2	1	2	0.4	1216.6666691	1500.000003	2066.6666708	1933.3333372	Minor	Wrong_doings	39	You have engaged in underage smoking	C1_9	0.65	Hard	I2_27	33	There are 9 rings in the Olympic flag	0.0	No	RIGHT	129.42019999991317	RIGHT	285.6728000001567	LEFT	661.1658000001626	LEFT	1391.9796000000133	34.400000000000006	0.4	Probable_Lie	RIGHT	LEFT	5	447.572499999751	129	2020-11-18 15:07:51.683803
136	Computer	S201118	0.8333333333333334	2	1	1	2	0.8	1283.3333359	1000.000002	2066.6666708	1783.3333369	Major	Wrong_doings	30	You have shown your appreciation to your teachers	C1_48	0.0	Hard	I1_14	37	Today is Sunday	0.611111111111111	No	RIGHT	226.051400000415	RIGHT	55.86219999986497	RIGHT	883.9111000002049	LEFT	927.9616000003444	35.2	0.8	Probable_Lie	LEFT	RIGHT	1	924.5842633781192	130	2020-11-18 15:08:13.396157
15	Self	S201118	0.5	2	1	2	1	0.4	1283.3333359	1000.000002	2500.000005	1933.3333372	Minor	Good_deeds	14	You have taken responsibility for your actions	C1_50	1.0	Easy	I2_6	3	Summer is hotter than winter	0.0	Yes	RIGHT	285.94139999995605	RIGHT	543.3941999999661	RIGHT	727.7589999998781	RIGHT	1021.3370000001304	35.6	0.4	Probable_Truth	RIGHT	RIGHT	4	754.4560000001184	131	2020-11-18 15:08:36.019813
40	Self	S201118	0.8333333333333334	2	1	1	2	0.4	1150.0000023	1433.3333362	2350.0000047	2216.6666711000003	Major	Wrong_doings	30	You have shown your appreciation to your teachers	C1_48	0.0	Hard	I1_14	37	Today is Sunday	0.611111111111111	No	RIGHT	250.5037999999331	RIGHT	263.57599999982995	RIGHT	815.9411000001455	LEFT	816.7690000000221	36.0	0.4	Probable_Truth	LEFT	LEFT	1	272.94819999997344	132	2020-11-18 15:08:58.163894
10	Self	S201118	0.5	2	1	1	2	0.1	1000.000002	1433.3333362	1650.0000033	2350.0000047	Minor	Wrong_doings	24	You have bought cigarettes for a minor	C1_24	0.05	Easy	I2_38	6	It is snowing outside now	0.0	Yes	LEFT	407.2444000003088	LEFT	1223.500599999625	LEFT	987.4182999997174	LEFT	758.9333000000806	36.0	0.1	Probable_Lie	LEFT	RIGHT	1	910.5632999999216	133	2020-11-18 15:09:21.460769
132	Computer	S201118	0.8333333333333334	1	2	2	1	0.1	1283.3333359	1000.000002	1783.3333369	2350.0000047	Minor	Good_deeds	3	You have borrowed things and never returned	C1_36	0.85	Easy	I2_42	48	French is Singapore's official language	1.0	Yes	LEFT	15.493299999889132	RIGHT	343.5738000002857	LEFT	2247.1128000001954	LEFT	1230.9559000000263	36.0	0.1	Probable_Truth	RIGHT	RIGHT	3	970.858638306816	134	2020-11-18 15:09:45.258835
13	Self	S201118	0.5	2	1	2	1	0.5	1500.000003	1350.0000027	1933.3333372	2216.6666711000003	Major	Good_deeds	58	You have watched a pirated movie	C2_48	0.0	Easy	I1_27	38	Pyramid of Giza is 468 feet tall	0.111111111111111	No	RIGHT	716.0662000001139	RIGHT	672.066900000118	LEFT	712.4095999997735	RIGHT	1165.820899999744	36.5	0.5	Probable_Lie	RIGHT	RIGHT	3	1973.7268000003496	135	2020-11-18 15:10:10.075795
47	Self	S201118	0.8333333333333334	2	1	2	1	0.8	1283.3333359	1066.6666688	1500.000003	2066.6666708	Minor	Good_deeds	46	You have intentionally let others cut in line	C1_46	0.0	Hard	I1_1	36	The Franco-Prussian War occurred in the 19th century	0.0	Yes	RIGHT	292.12409999991	RIGHT	72.37110000005487	LEFT	3053.0079000000114	LEFT	1215.3252000002794	37.3	0.8	Probable_Truth	RIGHT	RIGHT	4	545.7765000001018	136	2020-11-18 15:10:33.746873
77	Self	S201118	0.6666666666666666	2	1	2	1	0.8	1500.000003	1500.000003	1933.3333372	2350.0000047	Major	Wrong_doings	27	You have let a homeless man into your house	C1_33	0.0	Hard	I2_34	51	Septicemia is a lung infection condition	0.0	Yes	RIGHT	164.5023000000947	RIGHT	520.560999999816	RIGHT	2205.644600000141	LEFT	1363.1508000003123	38.1	0.8	Probable_Truth	LEFT	LEFT	1	933.9458999997988	137	2020-11-18 15:10:58.796751
27	Self	S201118	0.6666666666666666	2	1	1	2	0.7	1500.000003	1000.000002	2066.6666708	2500.000005	Minor	Wrong_doings	34	You have complimented others for good work	C1_35	0.45	Easy	I2_54	25	Mageirocophobia is a fear of deathly disease	0.888888888888889	No	RIGHT	471.58810000019	RIGHT	49.25649999995585	RIGHT	782.5999000001502	RIGHT	2264.871000000312	38.8	0.7	Probable_Truth	RIGHT	RIGHT	3	562.8246000001127	138	2020-11-18 15:11:22.564418
44	Self	S201118	0.8333333333333334	2	1	2	1	0.1	1500.000003	1216.6666691	2216.6666711000003	1933.3333372	Major	Wrong_doings	9	You have lost everything just to help others	C1_30	0.9	Easy	I1_37	14	Obama is the USA president now	0.0	Yes	RIGHT	264.76370000000315	RIGHT	271.9512999997278	RIGHT	2527.84470000006	LEFT	884.0155000002596	38.9	0.1	Probable_Truth	RIGHT	RIGHT	4	466.0265000002255	139	2020-11-18 15:11:46.420258
143	Computer	S201118	0.8333333333333334	2	1	2	1	0.1	1150.0000023	1216.6666691	2350.0000047	1933.3333372	Minor	Good_deeds	46	You have intentionally let others cut in line	C1_46	0.0	Hard	I1_1	36	The Franco-Prussian War occurred in the 19th century	0.0	Yes	LEFT	745.5462999996598	LEFT	471.8889999999192	LEFT	1176.1351000000104	RIGHT	1389.447200000177	38.9	0.1	Probable_Lie	LEFT	RIGHT	1	669.4375343733432	140	2020-11-18 15:12:10.092178
74	Self	S201118	0.6666666666666666	2	1	1	2	0.6	1283.3333359	1283.3333359	2216.6666711000003	2216.6666711000003	Minor	Wrong_doings	17	You have queued to enter the MRT train	C2_27	0.0	Hard	I2_59	59	Polish is 20th most spoken language in the World	0.944444444444444	Yes	RIGHT	32.26449999965553	RIGHT	463.7764999997671	RIGHT	1321.1824999998498	LEFT	1288.0063000002338	39.5	0.6	Probable_Truth	LEFT	LEFT	1	456.9479000001593	141	2020-11-18 15:12:33.227899
70	Self	S201118	0.6666666666666666	1	2	2	1	0.1	1500.000003	1500.000003	2500.000005	2066.6666708	Major	Good_deeds	20	You have violated a traffic law	C2_13	0.05	Hard	I2_5	54	Earth's atmosphere extends up to 10,000km into space	0.666666666666667	No	RIGHT	40.000399999826186	RIGHT	198.09699999996155	LEFT	759.93840000001	RIGHT	2416.6065999997954	39.6	0.1	Probable_Lie	LEFT	LEFT	5	725.4367999998976	142	2020-11-18 15:12:57.508543
6	Self	S201118	0.5	1	2	2	1	0.8	1216.6666691	1150.0000023	1783.3333369	1500.000003	Major	Good_deeds	28	You have taken part in burglary	C2_11	0.0	Easy	I1_58	29	The first Olympic Games was held in the 5th century B.C	0.833333333333333	No	RIGHT	609.699399999954	RIGHT	522.2828000000845	LEFT	799.5419999997466	RIGHT	1750.267200000053	40.4	0.8	Probable_Lie	LEFT	RIGHT	2	1527.4928999997428	143	2020-11-18 15:13:20.940204
