index	Trial_Type	Participant_ID	Trial_Probability	Question_Position_Prediction_Correct	Question_Position_Prediction_Agent	Question_Position_Comparison_Self	Question_Position_Comparison_Irrelevant	Trial_Stake	Trial_Stake_Jitter	Trial_Type_Jitter	Trial_Result_Jitter	Balance_Update_Jitter	Question_Comparison_Condition	Question_Comparison_Type	Question_Comparison_Question	Question_Comparison_Label	Question_Comparison_Item	Question_Comparison_Proportion_Yes	Question_Factual_Condition	Question_Factual_Item	Question_Factual_Question	Question_Factual_Label	Question_Factual_Proportion_DontKnow	Question_Factual_Type	Answer_Prediction_Correct	Answer_Prediction_Correct_RT	Answer_Prediction_Agent	Answer_Prediction_Agent_RT	Answer_Self	Answer_Self_RT	Answer_Irrelevant	Answer_Irrelevant_RT	Trial_Balance	Trial_Balance_Effect	Trial_Condition	Trial_ProbableSide	Prediction_Choice	Prediction_Result	Prediction_RT	Trial_Order	Trial_Datetime
64	Self	S200120	0.6666666666666666	1	2	1	2	0.3	1283.3333359	1150.0000023	1783.3333369	2216.6666711000003	Major	Good_deeds	2	You have gossiped about your best friend	C1_13	0.15	Easy	I2_51	46	There are 6000 spoken languages in the World	0.0	No	LEFT	715.7644000000118	RIGHT	553.083700000002	LEFT	1487.379400000009	RIGHT	2254.9846	9.7	0.3	Probable_Lie	RIGHT	RIGHT	1	807.7906000000326	0	2020-01-20 11:55:08.171860
128	Computer	S200120	0.8333333333333334	1	2	1	2	0.7	1000.000002	1000.000002	1783.3333369	2066.6666708	Minor	Wrong_doings	46	You have queued to enter the MRT train	C1_35	0.0	Easy	I2_3	6	Singapore has four seasons	0.0	Yes	RIGHT	595.8441999999877	LEFT	456.186300000013	RIGHT	1398.1146000000422	LEFT	1241.1596999999688	9.7	0.7	Probable_Truth	LEFT	LEFT	1	846.7555930222354	1	2020-01-20 11:55:31.131626
69	Self	S200120	0.6666666666666666	1	2	2	1	0.2	1216.6666691	1066.6666688	2216.6666711000003	2350.0000047	Major	Wrong_doings	39	You have violated a traffic law	C2_13	0.55	Hard	I2_4	31	Kangaroos live in Africa	0.0555555555555556	No	RIGHT	609.0871000000107	RIGHT	464.61019999998143	LEFT	1056.7712000000142	LEFT	1106.6359999999804	9.9	0.2	Probable_Truth	LEFT	LEFT	1	717.3156999999719	2	2020-01-20 11:55:54.507622
127	Computer	S200120	0.6666666666666666	2	1	2	1	0.5	1283.3333359	1000.000002	1933.3333372	2500.000005	Major	Wrong_doings	44	You have cheated on a test	C1_44	0.15	Hard	I1_3	57	Most plants emit oxygen in the day	0.777777777777778	Yes	LEFT	361.6306999999779	LEFT	822.4255999999741	LEFT	894.684199999972	RIGHT	1844.346299999984	9.9	0.5	Probable_Lie	LEFT	RIGHT	1	589.8912649699707	3	2020-01-20 11:56:18.299690
112	Computer	S200120	0.6666666666666666	1	2	1	2	0.6	1150.0000023	1066.6666688	1783.3333369	2216.6666711000003	Major	Good_deeds	1	You have volunteered for a disaster-related humanitarian mission	C1_27	0.0	Hard	I2_12	35	Cleopatra was born in Greece	0.722222222222222	No	RIGHT	721.8653000000472	LEFT	455.4883000000132	RIGHT	4041.224800000009	LEFT	1695.153399999981	9.9	0.6	Probable_Truth	RIGHT	LEFT	2	524.8981442428876	4	2020-01-20 11:56:44.514449
27	Self	S200120	0.6666666666666666	2	1	1	2	0.1	1066.6666688	1066.6666688	1650.0000033	1650.0000033	Minor	Wrong_doings	37	You have bought cigarettes for a minor	C2_27	0.95	Easy	I2_60	47	The first Olympic Games was held in the 5th century B.C	0.0	No	LEFT	312.54200000000765	RIGHT	936.39619999999	LEFT	1185.8298000000218	LEFT	2398.218400000019	9.8	0.1	Probable_Lie	RIGHT	RIGHT	2	1012.4907000000009	5	2020-01-20 11:57:08.362964
131	Computer	S200120	0.8333333333333334	1	2	1	2	0.8	1066.6666688	1066.6666688	2500.000005	1783.3333369	Major	Good_deeds	60	You have been physically hurt to protect others	C1_11	0.95	Easy	I1_15	3	Mozambique is the world's poorest country	0.0	Yes	RIGHT	597.5122999999485	LEFT	409.04599999998936	RIGHT	2389.710600000001	LEFT	2439.619099999959	9.8	0.8	Probable_Lie	LEFT	LEFT	4	770.4482095418848	6	2020-01-20 11:57:33.955649
104	Computer	S200120	0.5	2	1	1	2	0.5	1150.0000023	1350.0000027	2066.6666708	1500.000003	Minor	Good_deeds	34	You have helped your parents when asked to	C2_57	0.9	Easy	I1_13	60	February has 30 days	0.0	No	RIGHT	559.8492000000306	LEFT	694.3279999999845	RIGHT	2406.8856999999757	LEFT	846.1180999999556	9.8	0.5	Probable_Truth	RIGHT	RIGHT	6	990.4019175960692	7	2020-01-20 11:57:58.082543
122	Computer	S200120	0.6666666666666666	2	1	1	2	0.1	1066.6666688	1216.6666691	1500.000003	1933.3333372	Major	Wrong_doings	27	You have risked your life to save another person's life	C1_24	0.0	Hard	I2_39	25	Astatine is the rarest element in the Earth's crust	0.722222222222222	Yes	LEFT	361.0170000000608	LEFT	920.7984000000806	RIGHT	1901.9398000000365	LEFT	3343.145100000015	9.8	0.1	Probable_Lie	RIGHT	RIGHT	2	986.1484456031168	8	2020-01-20 11:58:23.874124
95	Self	S200120	0.8333333333333334	2	1	2	1	0.6	1350.0000027	1216.6666691	1500.000003	1783.3333369	Minor	Wrong_doings	28	You have thrown your trash into the bin	C2_39	0.1	Easy	I2_31	33	Teddy Roosevelt was the youngest US President	0.0555555555555556	No	RIGHT	295.01110000001063	RIGHT	764.820200000031	RIGHT	935.650799999962	LEFT	1841.89600000002	10.4	0.6	Probable_Truth	LEFT	LEFT	1	754.0465000000722	9	2020-01-20 11:58:46.892016
83	Self	S200120	0.8333333333333334	1	2	1	2	0.3	1283.3333359	1283.3333359	1650.0000033	1500.000003	Major	Wrong_doings	28	You have drunk alcohol when you were underage	C2_19	0.0	Easy	I2_41	40	A square has 3 corners	0.888888888888889	No	LEFT	479.3895000000248	RIGHT	376.18380000003526	LEFT	1877.097400000025	LEFT	1128.5850000000437	10.099999999999998	0.3	Probable_Lie	RIGHT	RIGHT	1	714.7742999999309	10	2020-01-20 11:59:09.755285
40	Self	S200120	0.8333333333333334	2	1	1	2	0.7	1150.0000023	1433.3333362	1783.3333369	2216.6666711000003	Minor	Wrong_doings	31	You have donated a pay cheque to charity	C2_14	0.55	Hard	I2_43	43	China is a part of Asia	0.0	Yes	RIGHT	271.9257999999627	RIGHT	754.1229999999359	RIGHT	1201.9956999999977	RIGHT	1309.8720000000412	10.799999999999995	0.7	Probable_Lie	LEFT	LEFT	3	881.0571000000209	11	2020-01-20 11:59:33.330345
75	Self	S200120	0.6666666666666666	2	1	1	2	0.8	1283.3333359	1433.3333362	2500.000005	1783.3333369	Minor	Good_deeds	22	You have helped a friend in need	C2_53	0.05	Easy	I2_44	6	There are 20 bones in the human skull	0.0	No	LEFT	344.29179999995085	RIGHT	1268.0599999999913	RIGHT	851.0854999999538	LEFT	1871.1106000000652	9.999999999999996	0.8	Probable_Lie	RIGHT	RIGHT	1	711.9701000000305	12	2020-01-20 11:59:57.947008
62	Self	S200120	0.5	2	1	2	1	0.1	1283.3333359	1350.0000027	2350.0000047	1650.0000033	Major	Wrong_doings	26	You have given directions to a lost tourist	C2_6	0.0	Easy	I2_38	52	Slavery was abolished in Cuba in 1886	0.111111111111111	Yes	RIGHT	576.2111999999888	RIGHT	707.6501000000235	RIGHT	1118.033999999966	RIGHT	3310.5291000000534	10.099999999999996	0.1	Probable_Truth	RIGHT	LEFT	2	1415.6636000000162	13	2020-01-20 12:00:24.283152
101	Computer	S200120	0.5	1	2	2	1	0.5	1150.0000023	1066.6666688	1650.0000033	1933.3333372	Major	Wrong_doings	3	You have coveted things that belong to others	C2_45	0.0	Easy	I1_39	43	"Statue of Liberty is 151 feet tall"	0.944444444444444	Yes	LEFT	782.4100000000271	LEFT	376.080399999978	LEFT	1376.5624999999773	RIGHT	1237.363099999925	10.099999999999996	0.5	Probable_Lie	LEFT	RIGHT	3	653.1847997942839	14	2020-01-20 12:00:47.074717
31	Self	S200120	0.6666666666666666	2	1	2	1	0.5	1000.000002	1350.0000027	2216.6666711000003	2066.6666708	Major	Wrong_doings	44	You have cheated on a test	C1_44	0.15	Hard	I1_3	57	Most plants emit oxygen in the day	0.777777777777778	Yes	RIGHT	401.2334000000237	RIGHT	624.2556999999351	LEFT	870.5737999999883	RIGHT	886.0649999999168	10.599999999999996	0.5	Probable_Truth	LEFT	LEFT	1	646.2619000000132	15	2020-01-20 12:01:09.707370
84	Self	S200120	0.8333333333333334	1	2	2	1	0.7	1066.6666688	1500.000003	1500.000003	1650.0000033	Major	Wrong_doings	20	You have stopped using plastics completely	C2_52	0.85	Hard	I2_28	23	Obama is the USA president now	0.0	Yes	RIGHT	828.255899999931	RIGHT	392.0137000000068	RIGHT	2206.8669999999884	LEFT	1471.9246000000794	11.299999999999995	0.7	Probable_Lie	LEFT	LEFT	2	712.0107999999163	16	2020-01-20 12:01:33.611756
111	Computer	S200120	0.5	2	1	2	1	0.6	1283.3333359	1066.6666688	2500.000005	1933.3333372	Major	Wrong_doings	23	You have a non-judgmental attitude towards everyone	C1_57	0.1	Hard	I2_27	5	The Eiffel Tower is in Paris	0.944444444444444	No	LEFT	353.5336999999572	LEFT	971.5676999999232	LEFT	2911.459499999978	RIGHT	957.7001000000108	11.299999999999995	0.6	Probable_Lie	RIGHT	RIGHT	1	634.7700744552948	17	2020-01-20 12:01:58.786226
46	Self	S200120	0.8333333333333334	2	1	2	1	0.4	1000.000002	1000.000002	2066.6666708	2066.6666708	Major	Wrong_doings	48	You have taken part in violent demonstration	C2_35	0.05	Easy	I2_22	36	French is Singapore's official language	1.0	Yes	RIGHT	632.0931000000201	RIGHT	862.1500000000424	LEFT	2360.3806999999506	LEFT	1239.8655000000645	11.699999999999996	0.4	Probable_Truth	RIGHT	RIGHT	6	716.4546999999857	18	2020-01-20 12:02:23.299920
86	Self	S200120	0.8333333333333334	1	2	2	1	0.2	1433.3333362	1066.6666688	2066.6666708	2350.0000047	Minor	Wrong_doings	51	You have complimented others for good work	C1_20	0.0	Hard	I2_24	14	Statute of Liberty is in New York	0.944444444444444	Yes	LEFT	1277.0858999999746	RIGHT	884.6272000000681	RIGHT	3919.9952000000167	LEFT	2268.1184000000485	11.499999999999996	0.2	Probable_Lie	RIGHT	RIGHT	1	779.6848999998929	19	2020-01-20 12:02:51.922139
110	Computer	S200120	0.5	2	1	2	1	0.4	1433.3333362	1500.000003	1783.3333369	1650.0000033	Major	Good_deeds	30	You have done something against your values	C1_23	0.25	Easy	I2_17	27	Last day of the year is 30th December	0.0	No	LEFT	295.5690000000004	LEFT	1067.0238000000154	LEFT	2144.9973999999656	LEFT	1768.4674999999288	11.499999999999996	0.4	Probable_Lie	LEFT	RIGHT	2	646.6524596925439	20	2020-01-20 12:03:16.779725
19	Self	S200120	0.6666666666666666	1	2	1	2	0.5	1433.3333362	1433.3333362	1500.000003	2066.6666708	Major	Good_deeds	23	You have watched an M18 movie when you were underage	C2_46	0.85	Easy	I1_8	58	Beef comes from cows	0.111111111111111	Yes	LEFT	812.7928999999767	RIGHT	449.0784000000758	LEFT	1581.893599999944	RIGHT	936.0328999999864	10.999999999999996	0.5	Probable_Lie	LEFT	RIGHT	1	2109.942100000012	21	2020-01-20 12:03:41.677909
116	Computer	S200120	0.6666666666666666	1	2	2	1	0.8	1500.000003	1150.0000023	1933.3333372	2500.000005	Minor	Wrong_doings	43	You have switched off appliances when not in use	C1_8	0.05	Easy	I1_35	8	Singapore ranked 8th in World's smallest countries	0.0	No	RIGHT	570.3042999999752	LEFT	328.4415000000536	RIGHT	1032.0610999999644	LEFT	2814.672399999949	10.999999999999996	0.8	Probable_Truth	RIGHT	RIGHT	5	617.7141739434066	22	2020-01-20 12:04:06.691085
6	Self	S200120	0.5	1	2	2	1	0.1	1150.0000023	1433.3333362	1650.0000033	1500.000003	Minor	Good_deeds	53	You have watched a pirated movie	C2_36	0.0	Easy	I2_34	59	Singapore is in Africa	0.0	Yes	RIGHT	695.6655999999839	RIGHT	367.80080000005455	LEFT	1063.0978999998888	LEFT	1107.5548000000026	11.099999999999996	0.1	Probable_Truth	LEFT	RIGHT	6	1563.4035000000497	23	2020-01-20 12:04:29.794764
1	Self	S200120	0.5	1	2	1	2	0.5	1216.6666691	1216.6666691	2066.6666708	2066.6666708	Major	Good_deeds	5	You have confessed to your mistake	C2_20	1.0	Hard	I2_1	34	Red is a color	0.0	No	RIGHT	629.9835999999459	RIGHT	425.041100000044	RIGHT	1471.8089000000418	RIGHT	928.4565000000384	11.599999999999996	0.5	Probable_Truth	RIGHT	LEFT	1	1335.6506999999738	24	2020-01-20 12:04:53.723580
8	Self	S200120	0.5	2	1	1	2	0.4	1500.000003	1216.6666691	1933.3333372	1933.3333372	Minor	Good_deeds	34	You have helped your parents when asked to	C2_57	0.9	Easy	I1_13	60	February has 30 days	0.0	No	RIGHT	544.773599999985	RIGHT	692.8146000000197	RIGHT	1863.586400000031	LEFT	944.4804999999404	11.999999999999996	0.4	Probable_Truth	LEFT	LEFT	1	1522.6781000000074	25	2020-01-20 12:05:18.443150
34	Self	S200120	0.8333333333333334	1	2	1	2	0.1	1216.6666691	1000.000002	2350.0000047	1650.0000033	Major	Wrong_doings	10	You have sold illegal drugs	C2_60	0.45	Hard	I2_40	53	The current century is 21st	0.833333333333333	No	RIGHT	603.5555000000841	RIGHT	448.9674999999807	LEFT	782.4609000000464	RIGHT	1480.4904999999735	12.099999999999996	0.1	Probable_Truth	LEFT	LEFT	1	893.5443999999961	26	2020-01-20 12:05:41.443222
42	Self	S200120	0.8333333333333334	2	1	1	2	0.2	1066.6666688	1350.0000027	1933.3333372	1783.3333369	Minor	Good_deeds	35	You have claimed doing things that you never did	C1_7	0.0	Easy	I1_41	10	Milwaukee Art Museum is located in California	0.0	Yes	RIGHT	408.4677000000738	RIGHT	643.6257999999953	LEFT	2921.49900000004	RIGHT	2632.256600000005	12.299999999999995	0.2	Probable_Truth	LEFT	LEFT	1	758.7038000000348	27	2020-01-20 12:06:07.516381
35	Self	S200120	0.8333333333333334	1	2	1	2	0.7	1150.0000023	1150.0000023	2500.000005	2350.0000047	Major	Good_deeds	60	You have been physically hurt to protect others	C1_11	0.95	Easy	I1_15	3	Mozambique is the world's poorest country	0.0	Yes	RIGHT	515.7124000000977	RIGHT	312.69959999997354	RIGHT	1428.8702000000058	LEFT	2639.8901000000023	12.999999999999996	0.7	Probable_Lie	LEFT	LEFT	2	680.1987000000054	28	2020-01-20 12:06:32.819694
49	Self	S200120	0.5	1	2	1	2	0.3	1350.0000027	1500.000003	2216.6666711000003	1783.3333369	Major	Wrong_doings	17	You have eaten something in the MRT train	C1_33	0.85	Hard	I2_52	17	Today is a weekday	0.0555555555555556	Yes	LEFT	697.7636999999959	RIGHT	616.7220999998335	LEFT	1011.5512999998372	RIGHT	1809.049800000139	12.699999999999994	0.3	Probable_Lie	RIGHT	RIGHT	2	1511.781599999949	29	2020-01-20 12:06:57.883207
57	Self	S200120	0.5	2	1	1	2	0.3	1500.000003	1066.6666688	2066.6666708	2066.6666708	Major	Good_deeds	34	You have attended all lectures as a student	C1_59	0.1	Easy	I2_18	55	Christmas Day is in March	0.0	No	RIGHT	312.4986999998782	RIGHT	556.3574999998764	RIGHT	1373.1487999998535	LEFT	984.0798999998696	12.999999999999996	0.3	Probable_Truth	RIGHT	RIGHT	6	1840.2152000001024	30	2020-01-20 12:07:22.228912
45	Self	S200120	0.8333333333333334	2	1	2	1	0.8	1350.0000027	1216.6666691	2350.0000047	1650.0000033	Major	Good_deeds	33	You have lost everything just to help others	C2_17	0.95	Hard	I1_10	2	A triangle has three sides	0.666666666666667	Yes	RIGHT	495.3104999999596	RIGHT	579.1469999999208	RIGHT	2623.1285999999727	RIGHT	999.874600000112	13.799999999999995	0.8	Probable_Truth	LEFT	LEFT	1	838.5359000001245	31	2020-01-20 12:07:46.907843
109	Computer	S200120	0.5	2	1	2	1	0.3	1000.000002	1216.6666691	1500.000003	2350.0000047	Major	Good_deeds	18	You have downloaded pirated movies	C1_30	0.7	Hard	I1_48	48	Carnivore refers to meat-eater	0.722222222222222	Yes	RIGHT	343.386799999962	LEFT	673.8251000001583	LEFT	1136.2722000001213	RIGHT	1220.9157999998297	13.799999999999995	0.3	Probable_Truth	RIGHT	LEFT	3	985.9517685815792	32	2020-01-20 12:08:09.900781
29	Self	S200120	0.6666666666666666	2	1	2	1	0.6	1150.0000023	1283.3333359	1500.000003	1783.3333369	Major	Good_deeds	47	You have organized a violent protest	C1_29	0.05	Easy	I1_25	8	It is snowing outside now	0.888888888888889	Yes	RIGHT	309.9629999999252	RIGHT	461.3224000001992	LEFT	2471.830699999828	LEFT	940.1070999999774	14.399999999999997	0.6	Probable_Truth	RIGHT	RIGHT	3	711.6017000000738	33	2020-01-20 12:08:33.084990
130	Computer	S200120	0.8333333333333334	1	2	1	2	0.5	1283.3333359	1216.6666691	1933.3333372	1933.3333372	Major	Wrong_doings	10	You have sold illegal drugs	C2_60	0.45	Hard	I2_40	53	The current century is 21st	0.833333333333333	No	RIGHT	871.3499000000411	LEFT	328.4045000000333	LEFT	780.7153000001108	RIGHT	958.9571999999862	14.399999999999997	0.5	Probable_Truth	RIGHT	RIGHT	3	956.2074821357672	34	2020-01-20 12:08:55.908809
22	Self	S200120	0.6666666666666666	1	2	2	1	0.6	1150.0000023	1216.6666691	2500.000005	1650.0000033	Major	Good_deeds	58	You have kept your promises	C1_58	0.0	Hard	I2_58	19	There are 30 hours in a day	0.0	No	RIGHT	1021.9352999999956	RIGHT	287.8453000000718	RIGHT	936.4226000000144	LEFT	1064.8409000000356	14.999999999999996	0.6	Probable_Truth	LEFT	LEFT	1	872.4769999998898	35	2020-01-20 12:09:19.179212
32	Self	S200120	0.8333333333333334	1	2	1	2	0.3	1350.0000027	1216.6666691	1783.3333369	1783.3333369	Minor	Wrong_doings	46	You have queued to enter the MRT train	C1_35	0.0	Easy	I2_3	6	Singapore has four seasons	0.0	Yes	RIGHT	897.7999999999611	RIGHT	296.1640999999417	RIGHT	922.4487999999836	LEFT	750.9987999999339	15.299999999999995	0.3	Probable_Truth	LEFT	LEFT	1	537.6597000001766	36	2020-01-20 12:09:41.291770
68	Self	S200120	0.6666666666666666	1	2	2	1	0.1	1150.0000023	1283.3333359	2350.0000047	2500.000005	Minor	Good_deeds	13	You have volunteered every week for many years	C1_9	0.05	Hard	I1_46	23	There are 6 million animal species on Earth	0.888888888888889	Yes	RIGHT	761.3681999998789	RIGHT	264.4648000000416	RIGHT	2656.0563000000457	LEFT	1860.7891000001475	15.399999999999997	0.1	Probable_Truth	LEFT	LEFT	2	878.6615999999867	37	2020-01-20 12:10:07.572051
54	Self	S200120	0.5	1	2	2	1	0.1	1066.6666688	1433.3333362	2350.0000047	2350.0000047	Minor	Good_deeds	40	You have sign up to sponsor a needy child	C2_50	1.0	Easy	I2_21	32	Earth's atmosphere extends up to 10,000km into space	0.0	Yes	LEFT	715.9497000000101	RIGHT	417.4846000000798	RIGHT	1432.468500000141	RIGHT	2457.6287999998385	15.299999999999995	0.1	Probable_Lie	LEFT	RIGHT	2	1214.5009000000755	38	2020-01-20 12:10:33.580271
21	Self	S200120	0.6666666666666666	1	2	2	1	0.8	1066.6666688	1066.6666688	1783.3333369	1783.3333369	Minor	Wrong_doings	56	You have participated in a scamming business	C2_1	1.0	Hard	I1_42	12	Singapore is a country	0.0	Yes	LEFT	619.7835999998915	RIGHT	280.61800000000403	LEFT	1112.3552999999902	RIGHT	827.2621000000981	14.499999999999996	0.8	Probable_Lie	RIGHT	RIGHT	2	667.1066999999766	39	2020-01-20 12:10:55.355328
16	Self	S200120	0.6666666666666666	1	2	1	2	0.1	1283.3333359	1500.000003	1933.3333372	2500.000005	Major	Good_deeds	1	You have volunteered for a disaster-related humanitarian mission	C1_27	0.0	Hard	I2_12	35	Cleopatra was born in Greece	0.722222222222222	No	LEFT	612.0623000001615	RIGHT	455.29640000017935	RIGHT	1134.977000000163	LEFT	967.7474000000076	14.399999999999997	0.1	Probable_Lie	LEFT	LEFT	5	738.6429999999109	40	2020-01-20 12:11:19.052997
10	Self	S200120	0.5	2	1	1	2	0.5	1216.6666691	1500.000003	2500.000005	1783.3333369	Minor	Wrong_doings	37	You have blackmailed others for money	C2_34	1.0	Easy	I1_60	13	Nomophobia is the fear of being without a phone or computer	0.944444444444444	Yes	RIGHT	353.01300000014635	RIGHT	364.90040000012414	LEFT	970.3239999998914	RIGHT	2952.144899999894	14.899999999999997	0.5	Probable_Truth	RIGHT	RIGHT	4	917.6108999999996	41	2020-01-20 12:11:44.179347
78	Self	S200120	0.6666666666666666	2	1	2	1	0.6	1000.000002	1066.6666688	2216.6666711000003	1500.000003	Major	Wrong_doings	3	You have taken responsibility for your actions	C1_22	0.95	Hard	I1_44	44	Pyramid of Giza is 468 feet tall	0.777777777777778	No	RIGHT	248.8791000000674	RIGHT	521.3472000000365	RIGHT	790.4156999998122	RIGHT	1487.1110999999928	15.499999999999996	0.6	Probable_Truth	LEFT	LEFT	1	775.7286000000931	42	2020-01-20 12:12:06.356486
132	Computer	S200120	0.8333333333333334	1	2	2	1	0.3	1433.3333362	1500.000003	1500.000003	1500.000003	Major	Wrong_doings	14	You have made someone cry	C1_46	0.8	Hard	I1_54	42	Beer is an alcoholic drink	0.0	Yes	RIGHT	595.6664000000274	LEFT	288.08359999993627	LEFT	1119.9709999998504	RIGHT	982.711399999971	15.499999999999996	0.3	Probable_Truth	RIGHT	RIGHT	2	884.655429557688	43	2020-01-20 12:12:28.723637
140	Computer	S200120	0.8333333333333334	2	1	2	1	0.2	1150.0000023	1283.3333359	2216.6666711000003	2350.0000047	Major	Wrong_doings	7	You have said thank you when you have received help	C2_33	0.0	Hard	I2_36	22	Africa is the continent with the least rainfall	0.611111111111111	No	LEFT	303.5383000001275	LEFT	803.5118999998758	RIGHT	1423.8408999999592	RIGHT	3868.538800000124	15.499999999999996	0.2	Probable_Lie	RIGHT	RIGHT	1	971.6248494422384	44	2020-01-20 12:12:55.661105
18	Self	S200120	0.6666666666666666	1	2	1	2	0.4	1000.000002	1000.000002	1650.0000033	1500.000003	Major	Wrong_doings	46	You have rescued others from a catastrophe	C1_43	0.9	Easy	I2_46	50	Cheese is an Asian staple	0.777777777777778	No	LEFT	679.2946000000484	RIGHT	304.0211999998519	RIGHT	3174.9423999999635	LEFT	1279.4673999999304	15.099999999999994	0.4	Probable_Lie	LEFT	LEFT	6	691.5539999999964	45	2020-01-20 12:13:19.516823
137	Computer	S200120	0.8333333333333334	2	1	1	2	0.6	1283.3333359	1500.000003	1500.000003	1933.3333372	Major	Good_deeds	17	You have faked an illness	C1_31	1.0	Easy	I1_1	36	Mexico's National Day is September 16	0.0	No	RIGHT	329.1099000000486	LEFT	688.4440000001177	LEFT	2251.0373000000072	RIGHT	1696.2317999998504	15.099999999999994	0.6	Probable_Truth	LEFT	LEFT	1	851.9731773972753	46	2020-01-20 12:13:44.115478
81	Self	S200120	0.8333333333333334	1	2	1	2	0.5	1500.000003	1150.0000023	2216.6666711000003	2066.6666708	Major	Wrong_doings	38	You have illegally stayed in a country	C1_51	0.55	Easy	I1_14	58	The Seine river is 50 feet above sea level	0.0	No	RIGHT	439.7285000000011	RIGHT	271.9875000000229	LEFT	878.6454000000958	RIGHT	2584.8399999999856	15.599999999999994	0.5	Probable_Truth	RIGHT	RIGHT	3	721.5303999998923	47	2020-01-20 12:14:08.524111
92	Self	S200120	0.8333333333333334	2	1	2	1	0.2	1433.3333362	1283.3333359	2350.0000047	1933.3333372	Minor	Wrong_doings	50	You have cursed at your loved ones	C1_50	0.65	Hard	I2_35	30	Lehman Brothers went bankrupt on 20th September	0.777777777777778	Yes	RIGHT	423.7923999999112	RIGHT	818.5742999999093	LEFT	983.8841000000684	RIGHT	2285.6279000000086	15.799999999999994	0.2	Probable_Truth	RIGHT	RIGHT	4	580.4048999998486	48	2020-01-20 12:15:25.316817
67	Self	S200120	0.6666666666666666	1	2	1	2	0.7	1500.000003	1350.0000027	2500.000005	1650.0000033	Major	Good_deeds	59	You have given way to the handicapped	C2_42	0.75	Easy	I1_31	25	There are 7 days in a week	0.166666666666667	Yes	LEFT	917.8659000001516	LEFT	456.0315000001083	RIGHT	3695.4838000001473	RIGHT	1976.2688999999227	15.799999999999994	0.7	Probable_Lie	RIGHT	RIGHT	2	781.1804999998913	49	2020-01-20 12:15:52.716169
90	Self	S200120	0.8333333333333334	2	1	1	2	0.1	1066.6666688	1000.000002	2216.6666711000003	2066.6666708	Minor	Wrong_doings	60	You have taken part in burglary	C2_7	0.7	Hard	I2_45	31	Feijoa is a type of grape	0.833333333333333	No	RIGHT	248.0242999999973	RIGHT	968.0375999998888	LEFT	1176.425499999823	RIGHT	1456.6729999999095	15.899999999999991	0.1	Probable_Truth	LEFT	LEFT	1	742.821000000049	50	2020-01-20 12:16:16.228634
89	Self	S200120	0.8333333333333334	2	1	1	2	0.4	1500.000003	1066.6666688	1650.0000033	2350.0000047	Minor	Good_deeds	16	You have been restricting your electricity consumption	C1_60	0.0	Hard	I2_30	28	North Korea is more developed than South Korea	0.0	No	LEFT	593.5497000000396	RIGHT	1312.1906000001218	RIGHT	1256.363599999986	LEFT	1807.6953999998293	15.499999999999991	0.4	Probable_Truth	RIGHT	RIGHT	2	632.6669000000038	51	2020-01-20 12:16:40.972198
93	Self	S200120	0.8333333333333334	2	1	2	1	0.5	1150.0000023	1150.0000023	2066.6666708	1650.0000033	Major	Good_deeds	6	You have stopped using products tested on animals	C2_31	0.45	Easy	I1_28	35	Airbags in cars are filled with sodium azide	0.888888888888889	Yes	LEFT	336.43789999996443	RIGHT	1454.227499999888	RIGHT	1574.1345000001274	LEFT	1799.43749999984	14.999999999999991	0.5	Probable_Truth	RIGHT	RIGHT	2	822.3722999998699	52	2020-01-20 12:17:05.548460
126	Computer	S200120	0.6666666666666666	2	1	2	1	0.4	1150.0000023	1066.6666688	2500.000005	2350.0000047	Major	Wrong_doings	11	You have held the door open for a stranger	C2_11	0.8	Easy	I2_8	39	It takes 500 days to travel from Earth to Mars	0.0555555555555556	No	LEFT	273.02080000004025	LEFT	843.7172999999802	RIGHT	3175.8972000000085	LEFT	2547.2540999999183	14.999999999999991	0.4	Probable_Lie	RIGHT	LEFT	4	936.709295703331	53	2020-01-20 12:17:32.956872
25	Self	S200120	0.6666666666666666	2	1	1	2	0.3	1216.6666691	1500.000003	1933.3333372	1933.3333372	Minor	Good_deeds	24	You have told someone's secret to others	C1_38	0.05	Hard	I1_47	60	Vegetarians can eat vegetable products	0.888888888888889	No	LEFT	1200.8210999999849	RIGHT	1052.3912999999538	LEFT	1173.8675000001422	RIGHT	1279.9741999999696	14.699999999999992	0.3	Probable_Lie	RIGHT	RIGHT	2	1013.8053999999102	54	2020-01-20 12:17:57.828991
129	Computer	S200120	0.8333333333333334	1	2	1	2	0.1	1350.0000027	1283.3333359	2066.6666708	2500.000005	Major	Good_deeds	48	You have assisted in a crime	C1_14	0.95	Easy	I2_42	54	Bears have the biggest eyes among mammals	0.666666666666667	No	LEFT	923.2027999998992	LEFT	257.00290000008863	LEFT	910.3109000000132	LEFT	1559.0190000000348	14.699999999999992	0.1	Probable_Lie	LEFT	RIGHT	1	762.1031792173914	55	2020-01-20 12:18:22.012209
139	Computer	S200120	0.8333333333333334	2	1	1	2	0.5	1350.0000027	1216.6666691	1783.3333369	2500.000005	Minor	Wrong_doings	14	You have held the elevator doors for others	C1_48	0.2	Easy	I2_2	1	Today is Sunday	1.0	No	RIGHT	401.76579999979367	LEFT	641.5280000001076	RIGHT	789.1723999998703	LEFT	864.1731999998683	14.699999999999992	0.5	Probable_Truth	LEFT	LEFT	1	974.8268924702236	56	2020-01-20 12:18:45.092354
91	Self	S200120	0.8333333333333334	2	1	1	2	0.8	1000.000002	1500.000003	1933.3333372	1500.000003	Major	Good_deeds	39	You have stolen something	C2_16	1.0	Hard	I1_2	45	The Earth is round	0.833333333333333	Yes	RIGHT	271.6680000000906	RIGHT	596.2193000000298	LEFT	766.4376000000175	RIGHT	1048.4260000000631	15.499999999999991	0.8	Probable_Truth	LEFT	LEFT	1	947.0369000000574	57	2020-01-20 12:19:07.228027
9	Self	S200120	0.5	2	1	1	2	0.3	1000.000002	1000.000002	1500.000003	2066.6666708	Major	Wrong_doings	9	You have engaged in drink-driving	C2_18	1.0	Easy	I2_56	17	The hyoid bone is the only jointless bone	0.0555555555555556	Yes	RIGHT	336.719599999924	RIGHT	669.7034999999687	LEFT	1110.165199999983	RIGHT	1688.1501999998818	15.799999999999994	0.3	Probable_Truth	RIGHT	LEFT	3	1418.094900000142	58	2020-01-20 12:19:30.588957
36	Self	S200120	0.8333333333333334	1	2	2	1	0.2	1500.000003	1433.3333362	1933.3333372	2500.000005	Major	Wrong_doings	14	You have made someone cry	C1_46	0.8	Hard	I1_54	42	Beer is an alcoholic drink	0.0	Yes	RIGHT	476.2556999999106	RIGHT	320.2277000000322	RIGHT	872.8370000001178	RIGHT	877.2627999999258	15.999999999999991	0.2	Probable_Truth	LEFT	LEFT	1	865.2524999999969	59	2020-01-20 12:19:53.940350
97	Computer	S200120	0.5	1	2	1	2	0.6	1000.000002	1500.000003	1783.3333369	2216.6666711000003	Major	Good_deeds	5	You have confessed to your mistake	C2_20	1.0	Hard	I2_1	34	Red is a color	0.0	No	RIGHT	938.613999999916	LEFT	320.6795000000966	RIGHT	1048.8274000001638	RIGHT	783.5919999999987	15.999999999999991	0.6	Probable_Truth	RIGHT	RIGHT	6	972.5260304652064	60	2020-01-20 12:20:17.068497
99	Computer	S200120	0.5	1	2	1	2	0.3	1350.0000027	1216.6666691	2350.0000047	1500.000003	Minor	Good_deeds	36	You have been donating all your excess food to a food bank	C1_3	0.95	Hard	I2_59	12	Septicemia is a lung infection condition	0.833333333333333	Yes	LEFT	950.6291000000148	LEFT	280.6629000001521	RIGHT	1684.7243999998227	LEFT	1808.1973000000744	15.999999999999991	0.3	Probable_Lie	RIGHT	LEFT	6	983.1783687665826	61	2020-01-20 12:20:41.764953
118	Computer	S200120	0.6666666666666666	1	2	2	1	0.7	1216.6666691	1283.3333359	2066.6666708	1933.3333372	Major	Good_deeds	58	You have kept your promises	C1_58	0.0	Hard	I2_58	19	There are 30 hours in a day	0.0	No	RIGHT	2056.2212999998337	LEFT	383.5524000000987	RIGHT	599.8282000000472	LEFT	781.5740999999434	15.999999999999991	0.7	Probable_Truth	LEFT	RIGHT	5	954.392053817838	62	2020-01-20 12:21:05.604926
136	Computer	S200120	0.8333333333333334	2	1	1	2	0.3	1433.3333362	1000.000002	1650.0000033	2216.6666711000003	Minor	Wrong_doings	31	You have donated a pay cheque to charity	C2_14	0.55	Hard	I2_43	43	China is a part of Asia	0.0	Yes	LEFT	1248.5341999999946	LEFT	1346.372400000064	RIGHT	931.1463999999888	RIGHT	885.8245000001261	15.999999999999991	0.3	Probable_Truth	RIGHT	RIGHT	2	917.772195662856	63	2020-01-20 12:21:29.804059
82	Self	S200120	0.8333333333333334	1	2	1	2	0.1	1350.0000027	1216.6666691	1783.3333369	2500.000005	Major	Good_deeds	49	You have started a hotline for victims of bully	C2_28	0.85	Hard	I1_11	24	Arabi is the oldest surviving breed of horse	0.944444444444444	Yes	LEFT	818.7204999999267	RIGHT	256.4697000000251	RIGHT	2092.938199999935	RIGHT	2751.5618999998424	15.899999999999991	0.1	Probable_Lie	RIGHT	RIGHT	1	1018.6185999998544	64	2020-01-20 12:21:56.165519
134	Computer	S200120	0.8333333333333334	1	2	2	1	0.6	1150.0000023	1350.0000027	1650.0000033	2216.6666711000003	Minor	Wrong_doings	29	You have started an NGO using your savings	C2_10	0.0	Hard	I1_6	54	Nanyang Technological University is in Australia	0.944444444444444	No	LEFT	1161.661299999878	LEFT	281.296999999995	RIGHT	3326.491600000054	LEFT	1321.031400000038	15.899999999999991	0.6	Probable_Lie	LEFT	RIGHT	1	568.7321814623083	65	2020-01-20 12:22:21.756218
26	Self	S200120	0.6666666666666666	2	1	1	2	0.7	1350.0000027	1150.0000023	2350.0000047	1500.000003	Major	Wrong_doings	27	You have risked your life to save another person's life	C1_24	0.0	Hard	I2_39	25	Astatine is the rarest element in the Earth's crust	0.722222222222222	Yes	RIGHT	294.5448000000397	RIGHT	610.9692999998515	RIGHT	837.1442000000116	LEFT	2703.748399999995	16.599999999999994	0.7	Probable_Truth	RIGHT	RIGHT	5	1021.5866999999434	66	2020-01-20 12:22:46.148348
38	Self	S200120	0.8333333333333334	1	2	2	1	0.5	1283.3333359	1066.6666688	2066.6666708	2066.6666708	Minor	Wrong_doings	29	You have started an NGO using your savings	C2_10	0.0	Hard	I1_6	54	Nanyang Technological University is in Australia	0.944444444444444	No	LEFT	462.32949999989614	RIGHT	305.74750000005224	RIGHT	870.3629000001456	LEFT	926.2549000000035	16.099999999999994	0.5	Probable_Lie	RIGHT	RIGHT	1	833.4131999999954	67	2020-01-20 12:23:08.604446
108	Computer	S200120	0.5	2	1	2	1	0.7	1350.0000027	1283.3333359	2350.0000047	2066.6666708	Minor	Good_deeds	57	You have donated blood every 6 months for many years	C2_9	0.05	Hard	I2_5	56	Acoustic Kitty refers to cat with implants	0.722222222222222	Yes	LEFT	255.3381000000172	LEFT	911.5466000000652	RIGHT	1286.7096999998466	LEFT	1894.613100000015	16.099999999999994	0.7	Probable_Lie	LEFT	RIGHT	2	572.3299619412005	68	2020-01-20 12:23:33.141253
65	Self	S200120	0.6666666666666666	1	2	1	2	0.4	1000.000002	1500.000003	1650.0000033	1500.000003	Minor	Wrong_doings	36	You have engaged in underage smoking	C2_59	1.0	Easy	I2_25	51	The human's inner ear is larger than a pencil eraser	0.888888888888889	No	LEFT	704.0360999999393	RIGHT	647.5594000003184	LEFT	901.5286000003472	LEFT	2599.002400000245	15.699999999999994	0.4	Probable_Lie	LEFT	LEFT	6	843.4151999999813	69	2020-01-20 12:23:57.061481
121	Computer	S200120	0.6666666666666666	2	1	1	2	0.7	1433.3333362	1500.000003	1650.0000033	1650.0000033	Minor	Good_deeds	24	You have told someone's secret to others	C1_38	0.05	Hard	I1_47	60	Vegetarians can eat vegetable products	0.888888888888889	No	RIGHT	376.5696000000389	LEFT	969.8153000003912	LEFT	1055.0853999998253	RIGHT	1319.3834000003335	15.699999999999994	0.7	Probable_Truth	LEFT	LEFT	1	719.6361090196431	70	2020-01-20 12:24:20.301772
56	Self	S200120	0.5	2	1	1	2	0.6	1350.0000027	1216.6666691	1783.3333369	2350.0000047	Minor	Good_deeds	59	You have been convicted in court	C1_4	0.0	Hard	I1_29	26	December is the last month of the year	1.0	No	LEFT	3000.1508999998805	LEFT	2312.8664000000754	LEFT	1172.1317999999883	RIGHT	1320.2221999999892	15.699999999999994	0.6	Probable_Lie	RIGHT	RIGHT	3	1345.154200000252	71	2020-01-20 12:24:48.725407
114	Computer	S200120	0.6666666666666666	1	2	1	2	0.3	1350.0000027	1216.6666691	2500.000005	1650.0000033	Major	Wrong_doings	46	You have rescued others from a catastrophe	C1_43	0.9	Easy	I2_46	50	Cheese is an Asian staple	0.777777777777778	No	LEFT	740.3729000002386	LEFT	272.8900000001886	RIGHT	1656.7064999999277	LEFT	943.878600000062	15.699999999999994	0.3	Probable_Lie	LEFT	RIGHT	2	745.2746240066658	72	2020-01-20 12:25:12.372684
73	Self	S200120	0.6666666666666666	2	1	1	2	0.2	1433.3333362	1150.0000023	1650.0000033	1650.0000033	Major	Wrong_doings	30	You have kidnapped someone	C2_30	1.0	Easy	I2_48	26	Marijuana is legal in Singapore	0.611111111111111	Yes	LEFT	656.8631000000096	RIGHT	991.8087999999444	LEFT	2021.9250000000104	LEFT	1119.804699999804	15.499999999999996	0.2	Probable_Lie	RIGHT	RIGHT	1	863.0880999999135	73	2020-01-20 12:25:36.485845
123	Computer	S200120	0.6666666666666666	2	1	1	2	0.2	1350.0000027	1283.3333359	2216.6666711000003	1783.3333369	Minor	Wrong_doings	37	You have bought cigarettes for a minor	C2_27	0.95	Easy	I2_60	47	The first Olympic Games was held in the 5th century B.C	0.0	No	RIGHT	336.457800000062	LEFT	1421.1150000000998	LEFT	849.5419999999285	LEFT	1248.7317000000075	15.499999999999996	0.2	Probable_Truth	RIGHT	RIGHT	3	791.0616806883438	74	2020-01-20 12:26:00.325032
24	Self	S200120	0.6666666666666666	2	1	1	2	0.4	1283.3333359	1433.3333362	2500.000005	2350.0000047	Minor	Good_deeds	38	You have followed instructions	C2_37	0.95	Easy	I2_53	53	Saturn's rings are between 30 and 300 feet thick	0.0	No	RIGHT	273.01079999961075	RIGHT	357.4506999998448	RIGHT	1133.867999999893	RIGHT	2984.4849999999497	15.899999999999997	0.4	Probable_Truth	RIGHT	LEFT	1	1020.8050000001094	75	2020-01-20 12:26:26.229866
58	Self	S200120	0.5	2	1	1	2	0.5	1066.6666688	1150.0000023	1500.000003	1783.3333369	Minor	Good_deeds	54	You have cursed at others	C1_34	1.0	Hard	I2_55	38	The hardest bone in human body is the jawbone	0.666666666666667	Yes	RIGHT	224.61999999995896	RIGHT	1285.938299999998	LEFT	754.0539999999964	LEFT	3502.759999999853	16.399999999999995	0.5	Probable_Truth	LEFT	RIGHT	5	1719.3480000000818	76	2020-01-20 12:26:51.788554
100	Computer	S200120	0.5	1	2	2	1	0.7	1283.3333359	1350.0000027	2216.6666711000003	2066.6666708	Minor	Wrong_doings	45	You have engaged in arson	C1_53	0.05	Hard	I1_12	13	It is 20th Century now	0.888888888888889	No	LEFT	701.0843999996723	LEFT	136.2210000002051	LEFT	879.7255999998015	LEFT	1846.8454999997448	16.399999999999995	0.7	Probable_Truth	LEFT	LEFT	2	569.9798124777816	77	2020-01-20 12:27:15.405175
85	Self	S200120	0.8333333333333334	1	2	2	1	0.6	1000.000002	1433.3333362	2500.000005	1933.3333372	Minor	Good_deeds	19	You have sorted your trash into recycling bin	C1_1	0.95	Easy	I1_40	41	Algeria is Africa's second largest country	0.0	No	RIGHT	777.9811999998856	RIGHT	304.47640000011233	RIGHT	839.5975000003091	RIGHT	3092.632500000036	16.999999999999996	0.6	Probable_Truth	RIGHT	RIGHT	2	710.2062999997543	78	2020-01-20 12:27:40.573960
20	Self	S200120	0.6666666666666666	1	2	2	1	0.3	1216.6666691	1150.0000023	2066.6666708	2216.6666711000003	Minor	Wrong_doings	43	You have switched off appliances when not in use	C1_8	0.05	Easy	I1_35	8	Singapore ranked 8th in World's smallest countries	0.0	No	LEFT	838.6937999998736	RIGHT	319.6453999998994	RIGHT	949.7019000000364	LEFT	1528.8077000000158	16.699999999999996	0.3	Probable_Lie	RIGHT	LEFT	4	1265.22709999972	79	2020-01-20 12:28:04.701434
52	Self	S200120	0.5	1	2	2	1	0.7	1150.0000023	1150.0000023	2500.000005	2216.6666711000003	Major	Good_deeds	33	You have offered a listening ear to a friend	C1_47	1.0	Hard	I1_17	16	There are 9 rings in the Olympic flag	0.888888888888889	Yes	LEFT	875.9663999999248	RIGHT	296.9489999995858	RIGHT	1022.9509000000688	LEFT	1240.2481000003718	15.999999999999996	0.7	Probable_Lie	RIGHT	RIGHT	2	1843.9385999995463	80	2020-01-20 12:28:29.573213
119	Computer	S200120	0.6666666666666666	1	2	2	1	0.1	1283.3333359	1500.000003	1650.0000033	2066.6666708	Minor	Good_deeds	27	You have lied to your parents	C2_56	0.65	Easy	I1_19	46	South East Asia is currently free from polio	0.833333333333333	Yes	LEFT	447.2233999999844	LEFT	216.4913999999953	LEFT	1031.8309999997837	RIGHT	2510.163299999931	15.999999999999996	0.1	Probable_Lie	RIGHT	RIGHT	1	923.2081735714136	81	2020-01-20 12:28:53.764164
87	Self	S200120	0.8333333333333334	1	2	2	1	0.8	1150.0000023	1000.000002	2350.0000047	2216.6666711000003	Minor	Good_deeds	1	You have failed to keep promises	C1_49	0.0	Hard	I1_58	28	It takes 112 years to build the Pisa Tower	0.0	No	LEFT	707.1172999999362	RIGHT	256.0622000000876	LEFT	1048.5313999997743	RIGHT	1706.3140999998725	15.199999999999996	0.8	Probable_Lie	RIGHT	RIGHT	1	1073.9470999997138	82	2020-01-20 12:29:17.845398
76	Self	S200120	0.6666666666666666	2	1	2	1	0.4	1150.0000023	1000.000002	1500.000003	2500.000005	Minor	Good_deeds	58	You have made counterfeit money	C1_19	0.65	Easy	I1_26	37	The sun rises at night	0.764705882352941	Yes	RIGHT	240.89760000015303	RIGHT	365.13849999983	LEFT	1095.2836000001298	LEFT	1189.227800000026	15.599999999999996	0.4	Probable_Truth	LEFT	LEFT	1	802.0146999997451	83	2020-01-20 12:29:40.260664
53	Self	S200120	0.5	1	2	2	1	0.6	1433.3333362	1066.6666688	2066.6666708	2500.000005	Major	Good_deeds	16	You have bribed someone to improve a grade	C1_17	0.0	Hard	I1_5	5	Mageirocophobia is a fear of deathly disease	0.0555555555555556	Yes	RIGHT	1126.106400000026	RIGHT	310.7168999999885	LEFT	983.8299000002736	LEFT	2461.240199999793	16.199999999999996	0.6	Probable_Truth	RIGHT	RIGHT	4	2038.363499999832	84	2020-01-20 12:30:06.821405
138	Computer	S200120	0.8333333333333334	2	1	1	2	0.7	1000.000002	1066.6666688	2350.0000047	1783.3333369	Minor	Good_deeds	35	You have claimed doing things that you never did	C1_7	0.0	Easy	I1_41	10	Milwaukee Art Museum is located in California	0.0	Yes	LEFT	305.19890000005034	LEFT	983.7165999997524	LEFT	1883.3325999999036	LEFT	2184.1097000001355	16.199999999999996	0.7	Probable_Lie	RIGHT	RIGHT	1	573.1535674665388	85	2020-01-20 12:30:31.509152
61	Self	S200120	0.5	2	1	2	1	0.8	1150.0000023	1500.000003	2500.000005	2216.6666711000003	Major	Wrong_doings	12	You have used a fake name online	C2_26	0.7	Hard	I1_27	29	Hot chocolate was created by the Mayan culture	0.0	No	LEFT	440.6303000000662	RIGHT	564.908800000012	LEFT	991.9952000000194	LEFT	3328.7303000001884	15.399999999999997	0.8	Probable_Lie	LEFT	RIGHT	3	1127.515399999993	86	2020-01-20 12:30:57.901113
80	Self	S200120	0.8333333333333334	1	2	1	2	0.4	1216.6666691	1350.0000027	1933.3333372	1783.3333369	Minor	Good_deeds	52	You have used heroin	C2_38	0.0	Easy	I2_23	11	Animals are living things	1.0	Yes	RIGHT	1028.9060000000063	RIGHT	344.08929999972315	LEFT	851.2924999999996	RIGHT	665.1004000000285	15.799999999999995	0.4	Probable_Truth	RIGHT	RIGHT	4	618.2128000000375	87	2020-01-20 12:31:20.262856
55	Self	S200120	0.5	1	2	2	1	0.4	1216.6666691	1283.3333359	1500.000003	1500.000003	Major	Wrong_doings	24	You have engaged in money laundering	C2_25	0.95	Easy	I2_16	45	Brazil is in South America	0.666666666666667	No	RIGHT	501.6014000002542	RIGHT	384.2365999998947	LEFT	751.825700000154	RIGHT	981.6132000000836	16.199999999999996	0.4	Probable_Truth	RIGHT	LEFT	2	972.18759999987	88	2020-01-20 12:31:41.924678
79	Self	S200120	0.6666666666666666	2	1	2	1	0.1	1350.0000027	1350.0000027	2066.6666708	2066.6666708	Minor	Good_deeds	40	You have deceived a loved one	C1_42	0.5	Easy	I2_33	9	Fibers in oranges can be used to make fabric	0.944444444444444	Yes	RIGHT	256.9829999997637	RIGHT	1214.8826000002373	LEFT	1095.908899999813	LEFT	2015.2445999997328	16.299999999999997	0.1	Probable_Truth	LEFT	LEFT	1	645.4351000002134	89	2020-01-20 12:32:06.557250
135	Computer	S200120	0.8333333333333334	1	2	2	1	0.2	1500.000003	1150.0000023	2350.0000047	2350.0000047	Minor	Good_deeds	35	You have said sorry when you were rude	C2_29	0.0	Hard	I2_54	15	The first Grammy awards was held in 1959	0.0	No	RIGHT	775.9077000000616	LEFT	329.6680000003107	RIGHT	1518.3615000000827	RIGHT	1178.3563000003596	16.299999999999997	0.2	Probable_Truth	RIGHT	RIGHT	2	538.0555923463187	90	2020-01-20 12:32:30.813521
15	Self	S200120	0.5	2	1	2	1	0.2	1066.6666688	1066.6666688	1650.0000033	2350.0000047	Major	Wrong_doings	23	You have a non-judgmental attitude towards everyone	C1_57	0.1	Hard	I2_27	5	The Eiffel Tower is in Paris	0.944444444444444	No	LEFT	295.46449999998003	RIGHT	959.3181999998706	LEFT	1736.0850000000028	RIGHT	819.3919999998798	16.099999999999998	0.2	Probable_Lie	LEFT	RIGHT	1	1009.2619000001832	91	2020-01-20 12:32:54.341310
103	Computer	S200120	0.5	1	2	2	1	0.2	1216.6666691	1150.0000023	2500.000005	2350.0000047	Minor	Good_deeds	45	You have taken months off to volunteer	C1_5	0.0	Easy	I2_13	39	Polish is 20th most spoken language in the World	0.888888888888889	Yes	RIGHT	1051.98160000009	LEFT	208.1124000001182	RIGHT	1248.2473000000027	RIGHT	1467.8241999999957	16.099999999999998	0.2	Probable_Truth	RIGHT	RIGHT	5	516.4303639309064	92	2020-01-20 12:33:18.622165
77	Self	S200120	0.6666666666666666	2	1	2	1	0.5	1066.6666688	1283.3333359	2350.0000047	1933.3333372	Minor	Wrong_doings	53	You have fabricated facts about yourself	C1_40	0.0	Hard	I2_6	48	Fishes can swim in water	0.0	No	RIGHT	168.9274000000296	RIGHT	667.3038999997516	LEFT	1095.0984999999491	RIGHT	884.7632000001795	16.599999999999998	0.5	Probable_Truth	RIGHT	RIGHT	5	1095.770100000209	93	2020-01-20 12:33:41.741440
2	Self	S200120	0.5	1	2	1	2	0.8	1500.000003	1500.000003	2216.6666711000003	2216.6666711000003	Major	Wrong_doings	20	You have been sued	C2_8	0.7	Easy	I1_43	4	Some owl species hunt fish	0.0	No	LEFT	1272.7373999996416	RIGHT	319.5484999996552	LEFT	1318.3764999998857	RIGHT	1248.059899999589	15.799999999999995	0.8	Probable_Lie	LEFT	LEFT	6	1897.2932000001488	94	2020-01-20 12:34:07.805844
66	Self	S200120	0.6666666666666666	1	2	1	2	0.5	1066.6666688	1433.3333362	1933.3333372	1933.3333372	Minor	Wrong_doings	13	You have extorted money from anyone	C2_2	0.0	Easy	I1_24	24	Penguin can fly with their wings	0.0555555555555556	No	RIGHT	284.3889999999192	RIGHT	264.0057999997225	LEFT	2717.404400000305	LEFT	2128.1355000000985	16.299999999999997	0.5	Probable_Lie	LEFT	LEFT	4	705.4153999997652	95	2020-01-20 12:34:32.845179
96	Computer	S200120	0.5	1	2	1	2	0.4	1066.6666688	1433.3333362	1933.3333372	1783.3333369	Major	Wrong_doings	8	You have given up your seat in the MRT	C1_45	1.0	Hard	I1_4	1	Summer is hotter than winter	0.0	No	RIGHT	1727.236400000038	LEFT	280.1758000000518	RIGHT	1051.2388999995892	RIGHT	1039.937000000009	16.299999999999997	0.4	Probable_Truth	LEFT	RIGHT	4	938.6873052261814	96	2020-01-20 12:35:43.189061
94	Self	S200120	0.8333333333333334	2	1	2	1	0.3	1283.3333359	1350.0000027	1783.3333369	2216.6666711000003	Major	Good_deeds	7	You have shown your appreciation to your teachers	C1_6	1.0	Easy	I1_50	50	It is night time now	0.0	No	LEFT	393.0355000002237	RIGHT	691.3775000002715	RIGHT	1256.1467000000448	LEFT	1032.5573000000077	15.999999999999996	0.3	Probable_Lie	LEFT	LEFT	6	983.802100000048	97	2020-01-20 12:36:06.750992
28	Self	S200120	0.6666666666666666	2	1	2	1	0.2	1433.3333362	1000.000002	2066.6666708	2500.000005	Minor	Good_deeds	29	You have sheltered others from disasters	C2_47	0.65	Hard	I1_57	3	It sometimes snows in Singapore	0.0555555555555556	Yes	LEFT	264.3883000000642	RIGHT	759.7399999999652	RIGHT	959.5013999996808	LEFT	925.4618999998456	15.799999999999995	0.2	Probable_Lie	RIGHT	RIGHT	1	709.7057999999379	98	2020-01-20 12:36:29.941901
3	Self	S200120	0.5	1	2	1	2	0.7	1066.6666688	1066.6666688	1783.3333369	1933.3333372	Minor	Good_deeds	36	You have been donating all your excess food to a food bank	C1_3	0.95	Hard	I2_59	12	Septicemia is a lung infection condition	0.833333333333333	Yes	RIGHT	345.64030000001367	RIGHT	305.14990000028774	RIGHT	1317.502599999898	LEFT	1383.4676999999829	16.499999999999996	0.7	Probable_Truth	RIGHT	LEFT	3	1083.1382999999732	99	2020-01-20 12:36:52.797536
51	Self	S200120	0.5	1	2	1	2	0.5	1500.000003	1000.000002	1933.3333372	1933.3333372	Minor	Good_deeds	50	You have let a homeless man into your house	C2_40	0.0	Hard	I2_49	52	Singapore is a poor country	0.833333333333333	No	RIGHT	324.48799999974653	RIGHT	249.5032000001629	RIGHT	2195.555499999955	LEFT	1343.5343999999532	16.999999999999996	0.5	Probable_Truth	RIGHT	RIGHT	6	858.4026000003178	100	2020-01-20 12:37:16.709820
12	Self	S200120	0.5	2	1	2	1	0.7	1350.0000027	1283.3333359	2216.6666711000003	2500.000005	Minor	Good_deeds	57	You have donated blood every 6 months for many years	C2_9	0.05	Hard	I2_5	56	Acoustic Kitty refers to cat with implants	0.722222222222222	Yes	RIGHT	294.96930000004795	RIGHT	240.9012000002804	RIGHT	870.519399999921	LEFT	1222.841000000244	17.699999999999996	0.7	Probable_Truth	LEFT	RIGHT	4	1096.4217000000644	101	2020-01-20 12:37:40.358925
59	Self	S200120	0.5	2	1	1	2	0.7	1000.000002	1283.3333359	2216.6666711000003	2500.000005	Minor	Wrong_doings	4	You have bribed a police officer	C2_54	0.85	Easy	I1_52	27	There are 10 continents in the World	1.0	No	RIGHT	279.07580000010057	RIGHT	304.6151999997164	LEFT	804.7387999999955	LEFT	807.1279000000686	18.399999999999995	0.7	Probable_Truth	LEFT	LEFT	2	1724.2667999998955	102	2020-01-20 12:38:03.854821
98	Computer	S200120	0.5	1	2	1	2	0.1	1433.3333362	1283.3333359	1500.000003	2500.000005	Major	Wrong_doings	20	You have been sued	C2_8	0.7	Easy	I1_43	4	Some owl species hunt fish	0.0	No	LEFT	771.955799999887	LEFT	168.3858000001237	LEFT	982.4106000000938	RIGHT	839.0696000001299	18.399999999999995	0.1	Probable_Lie	LEFT	LEFT	5	996.538439985702	103	2020-01-20 12:38:26.902135
72	Self	S200120	0.6666666666666666	2	1	1	2	0.3	1216.6666691	1500.000003	1933.3333372	2350.0000047	Major	Good_deeds	19	You have adopted a zero-waste lifestyle	C2_58	0.0	Hard	I1_9	44	The Amazon forest covers an area of 1 billion acres	0.0	Yes	LEFT	232.33990000017	RIGHT	757.2850000001381	RIGHT	928.9046000003508	RIGHT	1294.1760999997314	18.099999999999994	0.3	Probable_Lie	RIGHT	RIGHT	1	849.9563999998827	104	2020-01-20 12:38:50.542322
50	Self	S200120	0.5	1	2	1	2	0.2	1283.3333359	1350.0000027	1783.3333369	1650.0000033	Minor	Wrong_doings	25	You have pretended to be busy to avoid a social situation	C1_16	0.0	Easy	I1_45	49	The Franco-Prussian War occurred in the 19th century	0.0555555555555556	No	LEFT	898.62630000016	RIGHT	776.7491999998128	LEFT	4313.033599999926	RIGHT	1214.7813999999926	17.899999999999995	0.2	Probable_Lie	LEFT	RIGHT	2	1116.1551999998665	105	2020-01-20 12:39:17.502404
102	Computer	S200120	0.5	1	2	2	1	0.8	1500.000003	1000.000002	2066.6666708	1650.0000033	Minor	Good_deeds	53	You have watched a pirated movie	C2_36	0.0	Easy	I2_34	59	Singapore is in Africa	0.0	Yes	LEFT	690.0055000000975	LEFT	112.0973000001868	LEFT	736.3107999999556	LEFT	1405.3693999999268	17.899999999999995	0.8	Probable_Lie	RIGHT	RIGHT	3	863.0764620026491	106	2020-01-20 12:39:40.102174
41	Self	S200120	0.8333333333333334	2	1	1	2	0.3	1283.3333359	1150.0000023	1650.0000033	1933.3333372	Major	Good_deeds	17	You have faked an illness	C1_31	1.0	Easy	I1_1	36	Mexico's National Day is September 16	0.0	No	RIGHT	112.8088000000389	RIGHT	765.6593000001521	LEFT	1165.2664000002917	RIGHT	1255.414799999926	18.2	0.3	Probable_Truth	RIGHT	RIGHT	2	775.4592000001139	107	2020-01-20 12:40:02.766774
143	Computer	S200120	0.8333333333333334	2	1	2	1	0.1	1066.6666688	1150.0000023	2500.000005	2066.6666708	Minor	Good_deeds	15	You have cheated on a national exam	C1_15	0.9	Hard	I1_36	41	R. Amundsen discovered the South Pole	0.0	No	RIGHT	384.2024999999012	LEFT	975.5124999996953	LEFT	2631.4508999998907	RIGHT	2126.217500000166	18.2	0.1	Probable_Truth	RIGHT	RIGHT	5	967.6983319726626	108	2020-01-20 12:40:29.205475
74	Self	S200120	0.6666666666666666	2	1	1	2	0.7	1500.000003	1216.6666691	1783.3333369	2216.6666711000003	Major	Wrong_doings	42	You have provided shelter for stray animals	C2_3	0.2	Hard	I1_37	33	A dog has four legs	0.0	No	RIGHT	663.5940999999548	RIGHT	322.61270000026343	RIGHT	2009.5621999998912	RIGHT	766.2021999999524	18.899999999999995	0.7	Probable_Lie	LEFT	LEFT	4	620.9060999999565	109	2020-01-20 12:40:52.878488
14	Self	S200120	0.5	2	1	2	1	0.6	1150.0000023	1433.3333362	2350.0000047	1650.0000033	Major	Good_deeds	30	You have done something against your values	C1_23	0.25	Easy	I2_17	27	Last day of the year is 30th December	0.0	No	RIGHT	272.21940000026734	RIGHT	336.97099999972124	LEFT	1510.6631999997262	LEFT	1264.7445999996307	19.5	0.6	Probable_Truth	LEFT	LEFT	1	1175.137199999881	110	2020-01-20 12:41:16.597884
39	Self	S200120	0.8333333333333334	1	2	2	1	0.6	1000.000002	1283.3333359	2216.6666711000003	1933.3333372	Minor	Good_deeds	35	You have said sorry when you were rude	C2_29	0.0	Hard	I2_54	15	The first Grammy awards was held in 1959	0.0	No	LEFT	839.4575000002078	RIGHT	231.90470000008645	RIGHT	1008.05229999969	RIGHT	1389.4884999999704	18.899999999999995	0.6	Probable_Lie	LEFT	LEFT	6	673.2814000001781	111	2020-01-20 12:41:39.750253
120	Computer	S200120	0.6666666666666666	2	1	1	2	0.6	1500.000003	1433.3333362	1783.3333369	2216.6666711000003	Minor	Good_deeds	38	You have followed instructions	C2_37	0.95	Easy	I2_53	53	Saturn's rings are between 30 and 300 feet thick	0.0	No	LEFT	104.21380000025238	LEFT	943.7055000003056	RIGHT	1032.763999999588	RIGHT	1016.2654000000656	18.899999999999995	0.6	Probable_Lie	LEFT	RIGHT	1	579.137821080245	112	2020-01-20 12:42:02.935003
124	Computer	S200120	0.6666666666666666	2	1	2	1	0.3	1216.6666691	1350.0000027	2350.0000047	1500.000003	Minor	Good_deeds	29	You have sheltered others from disasters	C2_47	0.65	Hard	I1_57	3	It sometimes snows in Singapore	0.0555555555555556	Yes	RIGHT	263.99179999998523	LEFT	694.4358999999167	RIGHT	887.7498999995623	LEFT	772.4995999997191	18.899999999999995	0.3	Probable_Truth	LEFT	LEFT	1	867.2959954917937	113	2020-01-20 12:42:25.406512
43	Self	S200120	0.8333333333333334	2	1	1	2	0.5	1216.6666691	1283.3333359	2216.6666711000003	1500.000003	Minor	Wrong_doings	14	You have held the elevator doors for others	C1_48	0.2	Easy	I2_2	1	Today is Sunday	1.0	No	RIGHT	73.01510000024791	RIGHT	759.7712000001593	RIGHT	781.4823999997316	LEFT	751.8018000000666	19.399999999999995	0.5	Probable_Truth	LEFT	LEFT	1	747.6696000003358	114	2020-01-20 12:42:47.310512
105	Computer	S200120	0.5	2	1	1	2	0.8	1216.6666691	1150.0000023	2216.6666711000003	2216.6666711000003	Major	Wrong_doings	9	You have engaged in drink-driving	C2_18	1.0	Easy	I2_56	17	The hyoid bone is the only jointless bone	0.0555555555555556	Yes	LEFT	96.54060000002572	LEFT	811.4281000002848	LEFT	1633.064899999681	LEFT	1047.6474000001872	19.399999999999995	0.8	Probable_Lie	RIGHT	RIGHT	3	640.2316900328176	115	2020-01-20 12:43:10.902534
48	Self	S200120	0.5	1	2	1	2	0.8	1000.000002	1216.6666691	1650.0000033	2066.6666708	Minor	Wrong_doings	47	You have helped others to pick up their belongings	C2_24	0.05	Easy	I1_32	21	Afghan Hound is the first cloned cat	0.944444444444444	No	RIGHT	655.4984999997941	RIGHT	185.36039999980855	RIGHT	1583.4707000003618	LEFT	1615.4394000000138	20.2	0.8	Probable_Truth	RIGHT	LEFT	2	1208.211399999982	116	2020-01-20 12:43:34.654397
33	Self	S200120	0.8333333333333334	1	2	1	2	0.4	1066.6666688	1350.0000027	1500.000003	2216.6666711000003	Major	Good_deeds	48	You have assisted in a crime	C1_14	0.95	Easy	I2_42	54	Bears have the biggest eyes among mammals	0.666666666666667	No	RIGHT	310.0662000001648	RIGHT	232.14080000025209	LEFT	1106.2353999996049	LEFT	1513.3089000000837	20.599999999999994	0.4	Probable_Lie	LEFT	LEFT	5	734.2115000001286	117	2020-01-20 12:43:57.254506
125	Computer	S200120	0.6666666666666666	2	1	2	1	0.8	1000.000002	1150.0000023	2066.6666708	2066.6666708	Major	Good_deeds	47	You have organized a violent protest	C1_29	0.05	Easy	I1_25	8	It is snowing outside now	0.888888888888889	Yes	RIGHT	616.2939000000733	LEFT	711.1103000002004	LEFT	968.543999999838	LEFT	687.9643000002034	20.599999999999994	0.8	Probable_Truth	LEFT	LEFT	1	770.1268711802517	118	2020-01-20 12:44:19.855689
133	Computer	S200120	0.8333333333333334	1	2	2	1	0.4	1216.6666691	1433.3333362	2216.6666711000003	1650.0000033	Minor	Good_deeds	11	You have borrowed things and never returned	C2_48	1.0	Easy	I1_53	40	There is typically 0.6 grams of mercury in glass thermometer	0.833333333333333	Yes	RIGHT	813.7700000002042	LEFT	272.662599999876	LEFT	1006.228100000044	RIGHT	1838.9882999999827	20.599999999999994	0.4	Probable_Truth	LEFT	LEFT	1	674.5180849747908	119	2020-01-20 12:44:43.542760
7	Self	S200120	0.5	1	2	2	1	0.3	1350.0000027	1150.0000023	2500.000005	1783.3333369	Minor	Good_deeds	45	You have taken months off to volunteer	C1_5	0.0	Easy	I2_13	39	Polish is 20th most spoken language in the World	0.888888888888889	Yes	LEFT	492.78430000003937	RIGHT	192.84509999988583	RIGHT	1240.1146999995944	RIGHT	1601.4620999999352	20.299999999999997	0.3	Probable_Lie	RIGHT	RIGHT	1	821.3041999997586	120	2020-01-20 12:45:07.246349
106	Computer	S200120	0.5	2	1	1	2	0.2	1500.000003	1000.000002	1650.0000033	1783.3333369	Minor	Wrong_doings	37	You have blackmailed others for money	C2_34	1.0	Easy	I1_60	13	Nomophobia is the fear of being without a phone or computer	0.944444444444444	Yes	LEFT	89.20160000025135	LEFT	1174.7678000001542	LEFT	819.8769000000539	RIGHT	1671.2932999998884	20.299999999999997	0.2	Probable_Lie	LEFT	RIGHT	2	592.6644518780547	121	2020-01-20 12:45:30.102267
142	Computer	S200120	0.8333333333333334	2	1	2	1	0.4	1216.6666691	1433.3333362	1933.3333372	1650.0000033	Major	Wrong_doings	48	You have taken part in violent demonstration	C2_35	0.05	Easy	I2_22	36	French is Singapore's official language	1.0	Yes	LEFT	152.35819999998057	LEFT	320.54329999982656	LEFT	711.57680000033	LEFT	1110.9983000001191	20.299999999999997	0.4	Probable_Lie	RIGHT	LEFT	6	954.9896575157557	122	2020-01-20 12:45:52.150428
17	Self	S200120	0.6666666666666666	1	2	1	2	0.2	1500.000003	1283.3333359	2350.0000047	2350.0000047	Minor	Wrong_doings	8	You have bought cocaine	C2_23	0.05	Hard	I2_50	42	Dutch is the 6th Europe's most widely spoken language	0.888888888888889	Yes	RIGHT	305.38609999985056	RIGHT	168.01170000007914	LEFT	906.759200000124	RIGHT	1374.3536000001768	20.499999999999996	0.2	Probable_Truth	LEFT	LEFT	1	754.0806000001794	123	2020-01-20 12:46:15.719022
71	Self	S200120	0.6666666666666666	1	2	2	1	0.8	1350.0000027	1000.000002	2066.6666708	1783.3333369	Major	Wrong_doings	9	You have started a movement to support a cause	C1_36	0.05	Hard	I1_23	11	The Moon orbits around the Earth	0.777777777777778	Yes	RIGHT	270.0250000002597	RIGHT	225.16710000036252	RIGHT	1111.204799999996	RIGHT	1042.592600000262	21.299999999999997	0.8	Probable_Truth	RIGHT	RIGHT	5	650.7761000002574	124	2020-01-20 12:46:37.790278
113	Computer	S200120	0.6666666666666666	1	2	1	2	0.4	1433.3333362	1000.000002	2350.0000047	1783.3333369	Minor	Wrong_doings	8	You have bought cocaine	C2_23	0.05	Hard	I2_50	42	Dutch is the 6th Europe's most widely spoken language	0.888888888888889	Yes	RIGHT	604.3418999997812	LEFT	225.1820999999836	LEFT	698.0266999999003	RIGHT	1303.5053000003245	21.299999999999997	0.4	Probable_Truth	RIGHT	RIGHT	5	963.9648152323434	125	2020-01-20 12:47:00.726510
47	Self	S200120	0.8333333333333334	2	1	2	1	0.6	1500.000003	1066.6666688	1500.000003	2500.000005	Minor	Good_deeds	15	You have cheated on a national exam	C1_15	0.9	Hard	I1_36	41	R. Amundsen discovered the South Pole	0.0	No	RIGHT	104.1029999996681	RIGHT	269.5773000000372	LEFT	1824.4503999999324	RIGHT	917.22209999989	21.899999999999995	0.6	Probable_Lie	LEFT	LEFT	4	938.2140999996408	126	2020-01-20 12:47:23.918046
115	Computer	S200120	0.6666666666666666	1	2	1	2	0.2	1066.6666688	1350.0000027	2216.6666711000003	1500.000003	Major	Good_deeds	23	You have watched an M18 movie when you were underage	C2_46	0.85	Easy	I1_8	58	Beef comes from cows	0.111111111111111	Yes	RIGHT	495.2776999998605	LEFT	168.67169999977705	LEFT	887.143300000389	RIGHT	719.2259000003105	21.899999999999995	0.2	Probable_Truth	LEFT	LEFT	2	917.5794974737828	127	2020-01-20 12:47:45.806934
37	Self	S200120	0.8333333333333334	1	2	2	1	0.8	1433.3333362	1500.000003	1650.0000033	1500.000003	Minor	Good_deeds	11	You have borrowed things and never returned	C2_48	1.0	Easy	I1_53	40	There is typically 0.6 grams of mercury in glass thermometer	0.833333333333333	Yes	LEFT	823.2820999996875	RIGHT	1672.740700000304	LEFT	816.3135999998303	RIGHT	829.9670999999762	21.099999999999994	0.8	Probable_Lie	RIGHT	RIGHT	1	706.3538000002154	128	2020-01-20 12:48:09.311195
30	Self	S200120	0.6666666666666666	2	1	2	1	0.8	1500.000003	1216.6666691	1783.3333369	2216.6666711000003	Major	Wrong_doings	11	You have held the door open for a stranger	C2_11	0.8	Easy	I2_8	39	It takes 500 days to travel from Earth to Mars	0.0555555555555556	No	RIGHT	208.989599999768	RIGHT	249.8586000001524	RIGHT	3695.293100000072	LEFT	1394.2560000000412	21.899999999999995	0.8	Probable_Truth	LEFT	LEFT	1	639.4221000000471	129	2020-01-20 12:48:34.791775
60	Self	S200120	0.5	2	1	2	1	0.4	1216.6666691	1000.000002	1650.0000033	1933.3333372	Major	Good_deeds	43	You have intentionally let others cut in line	C1_12	0.2	Easy	I2_26	38	Cernan was the second last man to walk on the Moon	0.611111111111111	Yes	LEFT	127.37400000014532	RIGHT	775.9152999997241	RIGHT	3943.232900000112	LEFT	2026.5997000001332	21.5	0.4	Probable_Lie	RIGHT	RIGHT	3	987.4855999996726	130	2020-01-20 12:49:01.030885
5	Self	S200120	0.5	1	2	2	1	0.2	1000.000002	1283.3333359	2350.0000047	2350.0000047	Major	Wrong_doings	3	You have coveted things that belong to others	C2_45	0.0	Easy	I1_39	43	"Statue of Liberty is 151 feet tall"	0.944444444444444	Yes	LEFT	795.6458999997267	RIGHT	241.1071000001357	LEFT	728.5057999997662	RIGHT	1508.8130999997702	21.3	0.2	Probable_Lie	RIGHT	RIGHT	1	969.8246000002656	131	2020-01-20 12:49:24.830885
13	Self	S200120	0.5	2	1	2	1	0.1	1283.3333359	1150.0000023	1783.3333369	1500.000003	Major	Good_deeds	18	You have downloaded pirated movies	C1_30	0.7	Hard	I1_48	48	Carnivore refers to meat-eater	0.722222222222222	Yes	RIGHT	112.8576000000976	RIGHT	910.871699999916	LEFT	775.9133999998085	RIGHT	973.0264999998326	21.4	0.1	Probable_Truth	RIGHT	RIGHT	4	950.2434999999424	132	2020-01-20 12:49:46.847792
70	Self	S200120	0.6666666666666666	1	2	2	1	0.6	1433.3333362	1216.6666691	1500.000003	2066.6666708	Minor	Good_deeds	42	You have returned your trays in food courts	C1_39	1.0	Hard	I2_11	4	The Earth turns the closest to the sun in May	0.666666666666667	Yes	RIGHT	269.3881000000147	RIGHT	280.2827000000434	LEFT	1472.7078000000802	LEFT	2665.083699999741	22.0	0.6	Probable_Lie	LEFT	LEFT	3	741.8078000000605	133	2020-01-20 12:50:11.063748
11	Self	S200120	0.5	2	1	1	2	0.8	1433.3333362	1350.0000027	2066.6666708	2216.6666711000003	Minor	Wrong_doings	57	You have helped with household chores	C1_37	0.0	Hard	I1_21	21	A caterpillar has more muscle than a human	0.0	No	LEFT	647.1715000002405	RIGHT	1188.7024000002384	RIGHT	712.9753999997774	RIGHT	983.890099999826	21.2	0.8	Probable_Lie	RIGHT	LEFT	4	935.6751999998778	134	2020-01-20 12:50:35.174155
0	Self	S200120	0.5	1	2	1	2	0.4	1283.3333359	1350.0000027	1500.000003	2500.000005	Major	Wrong_doings	8	You have given up your seat in the MRT	C1_45	1.0	Hard	I1_4	1	Summer is hotter than winter	0.0	No	RIGHT	229.79620000023715	RIGHT	464.32610000010754	RIGHT	663.9070999999603	RIGHT	968.757099999948	21.6	0.4	Probable_Truth	LEFT	RIGHT	6	1080.0241000001731	135	2020-01-20 12:50:57.783734
88	Self	S200120	0.8333333333333334	2	1	1	2	0.7	1216.6666691	1433.3333362	2500.000005	2500.000005	Major	Wrong_doings	31	You have been arrested	C1_28	0.0	Easy	I1_33	2	Malay is one of the races in Singapore	0.0	Yes	RIGHT	433.6834000000636	RIGHT	403.3269000001383	LEFT	3268.906799999968	RIGHT	783.7457000000541	22.3	0.7	Probable_Truth	LEFT	LEFT	1	643.3876999999484	136	2020-01-20 12:51:23.543842
63	Self	S200120	0.5	2	1	2	1	0.2	1433.3333362	1433.3333362	1933.3333372	1500.000003	Minor	Wrong_doings	6	You have signed up as a bone marrow donor	C2_43	0.85	Hard	I1_38	18	Chickens lay eggs	0.0	Yes	LEFT	160.19580000011047	RIGHT	955.2729000001818	RIGHT	808.7636000000202	RIGHT	870.5012999998871	22.1	0.2	Probable_Lie	RIGHT	RIGHT	1	946.2802999996712	137	2020-01-20 12:51:46.159806
44	Self	S200120	0.8333333333333334	2	1	2	1	0.1	1433.3333362	1500.000003	2500.000005	2350.0000047	Major	Wrong_doings	7	You have said thank you when you have received help	C2_33	0.0	Hard	I2_36	22	Africa is the continent with the least rainfall	0.611111111111111	No	RIGHT	409.331000000293	RIGHT	316.8535999998312	RIGHT	2063.183199999912	LEFT	1786.8469000000005	22.2	0.1	Probable_Lie	LEFT	LEFT	3	536.1444999998639	138	2020-01-20 12:52:11.630549
23	Self	S200120	0.6666666666666666	1	2	2	1	0.7	1350.0000027	1350.0000027	2216.6666711000003	1933.3333372	Minor	Good_deeds	27	You have lied to your parents	C2_56	0.65	Easy	I1_19	46	South East Asia is currently free from polio	0.833333333333333	Yes	RIGHT	431.8172999996932	RIGHT	416.3736000000426	RIGHT	903.679000000011	RIGHT	1285.5804000000717	22.9	0.7	Probable_Truth	RIGHT	RIGHT	5	810.3626000001896	139	2020-01-20 12:52:34.903859
4	Self	S200120	0.5	1	2	2	1	0.6	1433.3333362	1000.000002	1933.3333372	1650.0000033	Minor	Wrong_doings	45	You have engaged in arson	C1_53	0.05	Hard	I1_12	13	It is 20th Century now	0.888888888888889	No	RIGHT	282.1632000000136	RIGHT	272.1993999998631	LEFT	968.7756999996964	LEFT	1489.3655999999282	23.5	0.6	Probable_Truth	LEFT	LEFT	3	1255.6417999999212	140	2020-01-20 12:52:57.759221
141	Computer	S200120	0.8333333333333334	2	1	2	1	0.8	1500.000003	1350.0000027	2066.6666708	1500.000003	Major	Good_deeds	33	You have lost everything just to help others	C2_17	0.95	Hard	I1_10	2	A triangle has three sides	0.666666666666667	Yes	RIGHT	256.48640000008527	LEFT	637.3372000002746	RIGHT	1007.904900000085	RIGHT	854.5445999998265	23.5	0.8	Probable_Truth	RIGHT	LEFT	1	693.2385997038846	141	2020-01-20 12:53:20.198111
117	Computer	S200120	0.6666666666666666	1	2	2	1	0.5	1000.000002	1433.3333362	1500.000003	2350.0000047	Minor	Wrong_doings	56	You have participated in a scamming business	C2_1	1.0	Hard	I1_42	12	Singapore is a country	0.0	Yes	RIGHT	572.6206000003913	LEFT	216.28069999997024	LEFT	1095.6998999999996	RIGHT	804.5698999999331	23.5	0.5	Probable_Truth	RIGHT	RIGHT	5	738.0611395792275	142	2020-01-20 12:53:42.470634
107	Computer	S200120	0.5	2	1	1	2	0.1	1066.6666688	1433.3333362	1933.3333372	2500.000005	Minor	Wrong_doings	57	You have helped with household chores	C1_37	0.0	Hard	I1_21	21	A caterpillar has more muscle than a human	0.0	No	LEFT	417.4255000002631	LEFT	1696.5909999998985	RIGHT	1407.303800000136	RIGHT	935.646800000086	23.5	0.1	Probable_Lie	RIGHT	LEFT	5	716.6288698800626	143	2020-01-20 12:54:07.143059
