"Participant"	"Task"	"Stimulus_Side"	"Response"	"RT"	"ITI"	"Previous_Response"	"Previous_RT"	"Stop_Signal"	"Stop_Signal_RT"	"Conflict"	"Cue_Response"	"Cue_Response_RT"	"Trial_Onset"	"Trial_End"	"Trial_Order"	"Duration"
"S200120"	"Conflict_Resolution"	"LEFT"	"LEFT"	656.0532	1300.000003	n/a	n/a	n/a	n/a	FALSE	n/a	n/a	"08:45.2"	"08:46.1"	1	5.42975375
"S200120"	"Conflict_Resolution"	"RIGHT"	"RIGHT"	770.7206	883.3333351	n/a	n/a	n/a	n/a	TRUE	n/a	n/a	"08:47.0"	"08:48.0"	2	5.42975375
"S200120"	"Conflict_Resolution"	"RIGHT"	"RIGHT"	629.264	1183.333336	n/a	n/a	n/a	n/a	FALSE	n/a	n/a	"08:49.2"	"08:50.0"	3	5.42975375
"S200120"	"Conflict_Resolution"	"LEFT"	"LEFT"	674.2683	683.3333347	n/a	n/a	n/a	n/a	TRUE	n/a	n/a	"08:50.7"	"08:51.6"	4	5.42975375
"S200120"	"Conflict_Resolution"	"RIGHT"	"RIGHT"	608.3986	1100.000002	n/a	n/a	n/a	n/a	TRUE	n/a	n/a	"08:52.7"	"08:53.6"	5	5.42975375
"S200120"	"Conflict_Resolution"	"RIGHT"	"RIGHT"	343.9314	1316.666669	n/a	n/a	n/a	n/a	FALSE	n/a	n/a	"08:54.9"	"08:55.4"	6	5.42975375
"S200120"	"Conflict_Resolution"	"LEFT"	"LEFT"	494.5246	950.0000019	n/a	n/a	n/a	n/a	TRUE	n/a	n/a	"08:56.4"	"08:57.1"	7	5.42975375
"S200120"	"Conflict_Resolution"	"RIGHT"	"RIGHT"	496.9793	933.3333352	n/a	n/a	n/a	n/a	FALSE	n/a	n/a	"08:58.1"	"08:58.8"	8	5.42975375
"S200120"	"Conflict_Resolution"	"RIGHT"	"RIGHT"	561.4542	1466.66667	n/a	n/a	n/a	n/a	TRUE	n/a	n/a	"09:00.3"	"09:01.0"	9	5.42975375
"S200120"	"Conflict_Resolution"	"LEFT"	"LEFT"	493.3588	1000.000002	n/a	n/a	n/a	n/a	FALSE	n/a	n/a	"09:02.0"	"09:02.7"	10	5.42975375
"S200120"	"Conflict_Resolution"	"RIGHT"	"RIGHT"	461.6306	583.3333345	n/a	n/a	n/a	n/a	FALSE	n/a	n/a	"09:03.3"	"09:04.0"	11	5.42975375
"S200120"	"Conflict_Resolution"	"RIGHT"	"RIGHT"	412.9996	800.0000016	n/a	n/a	n/a	n/a	FALSE	n/a	n/a	"09:04.8"	"09:05.5"	12	5.42975375
"S200120"	"Conflict_Resolution"	"LEFT"	"LEFT"	452.5476	1216.666669	n/a	n/a	n/a	n/a	TRUE	n/a	n/a	"09:06.7"	"09:07.4"	13	5.42975375
"S200120"	"Conflict_Resolution"	"LEFT"	"LEFT"	506.3569	1100.000002	n/a	n/a	n/a	n/a	FALSE	n/a	n/a	"09:08.5"	"09:09.2"	14	5.42975375
"S200120"	"Conflict_Resolution"	"RIGHT"	"RIGHT"	615.9002	733.3333348	n/a	n/a	n/a	n/a	TRUE	n/a	n/a	"09:09.9"	"09:10.8"	15	5.42975375
"S200120"	"Conflict_Resolution"	"RIGHT"	"LEFT"	425.9348	900.0000018	n/a	n/a	n/a	n/a	TRUE	n/a	n/a	"09:11.7"	"09:12.3"	16	5.42975375
"S200120"	"Conflict_Resolution"	"LEFT"	"LEFT"	692.7952	1000.000002	n/a	n/a	n/a	n/a	TRUE	n/a	n/a	"09:13.3"	"09:14.2"	17	5.42975375
"S200120"	"Conflict_Resolution"	"LEFT"	"LEFT"	412.8393	1016.666669	n/a	n/a	n/a	n/a	FALSE	n/a	n/a	"09:15.3"	"09:15.9"	18	5.42975375
"S200120"	"Conflict_Resolution"	"RIGHT"	"RIGHT"	450.7823	1483.333336	n/a	n/a	n/a	n/a	FALSE	n/a	n/a	"09:17.4"	"09:18.1"	19	5.42975375
"S200120"	"Conflict_Resolution"	"RIGHT"	"RIGHT"	607.1868	533.3333344	n/a	n/a	n/a	n/a	TRUE	n/a	n/a	"09:18.6"	"09:19.4"	20	5.42975375
"S200120"	"Conflict_Resolution"	"LEFT"	"LEFT"	415.7114	516.6666677	n/a	n/a	n/a	n/a	FALSE	n/a	n/a	"09:20.0"	"09:20.6"	21	5.42975375
"S200120"	"Conflict_Resolution"	"LEFT"	"LEFT"	443.0732	850.0000017	n/a	n/a	n/a	n/a	FALSE	n/a	n/a	"09:21.4"	"09:22.1"	22	5.42975375
"S200120"	"Conflict_Resolution"	"RIGHT"	"RIGHT"	328.2863	900.0000018	n/a	n/a	n/a	n/a	FALSE	n/a	n/a	"09:23.0"	"09:23.6"	23	5.42975375
"S200120"	"Conflict_Resolution"	"LEFT"	"LEFT"	405.8703	766.6666682	n/a	n/a	n/a	n/a	FALSE	n/a	n/a	"09:24.3"	"09:25.0"	24	5.42975375
"S200120"	"Conflict_Resolution"	"LEFT"	"LEFT"	645.0829	583.3333345	n/a	n/a	n/a	n/a	TRUE	n/a	n/a	"09:25.6"	"09:26.4"	25	5.42975375
"S200120"	"Conflict_Resolution"	"LEFT"	"RIGHT"	471.0557	1166.666669	n/a	n/a	n/a	n/a	TRUE	n/a	n/a	"09:27.6"	"09:28.3"	26	5.42975375
"S200120"	"Conflict_Resolution"	"LEFT"	"LEFT"	406.7571	1316.666669	n/a	n/a	n/a	n/a	FALSE	n/a	n/a	"09:29.6"	"09:30.2"	27	5.42975375
"S200120"	"Conflict_Resolution"	"LEFT"	"LEFT"	373.2442	1366.666669	n/a	n/a	n/a	n/a	FALSE	n/a	n/a	"09:31.6"	"09:32.2"	28	5.42975375
"S200120"	"Conflict_Resolution"	"LEFT"	"LEFT"	409.4556	733.3333348	n/a	n/a	n/a	n/a	FALSE	n/a	n/a	"09:32.9"	"09:33.6"	29	5.42975375
"S200120"	"Conflict_Resolution"	"RIGHT"	"RIGHT"	427.9084	1216.666669	n/a	n/a	n/a	n/a	FALSE	n/a	n/a	"09:34.8"	"09:35.4"	30	5.42975375
"S200120"	"Conflict_Resolution"	"RIGHT"	"RIGHT"	528.379	700.0000014	n/a	n/a	n/a	n/a	TRUE	n/a	n/a	"09:36.2"	"09:36.9"	31	5.42975375
"S200120"	"Conflict_Resolution"	"RIGHT"	"RIGHT"	422.5672	550.0000011	n/a	n/a	n/a	n/a	FALSE	n/a	n/a	"09:37.5"	"09:38.1"	32	5.42975375
"S200120"	"Conflict_Resolution"	"RIGHT"	"RIGHT"	594.8543	850.0000017	n/a	n/a	n/a	n/a	TRUE	n/a	n/a	"09:39.0"	"09:39.8"	33	5.42975375
"S200120"	"Conflict_Resolution"	"RIGHT"	"LEFT"	419.3038	1283.333336	n/a	n/a	n/a	n/a	TRUE	n/a	n/a	"09:41.1"	"09:41.7"	34	5.42975375
"S200120"	"Conflict_Resolution"	"RIGHT"	"RIGHT"	540.5714	833.333335	n/a	n/a	n/a	n/a	TRUE	n/a	n/a	"09:42.5"	"09:43.3"	35	5.42975375
"S200120"	"Conflict_Resolution"	"RIGHT"	"RIGHT"	381.3636	633.3333346	n/a	n/a	n/a	n/a	FALSE	n/a	n/a	"09:43.9"	"09:44.5"	36	5.42975375
"S200120"	"Conflict_Resolution"	"LEFT"	"LEFT"	391.6523	566.6666678	n/a	n/a	n/a	n/a	FALSE	n/a	n/a	"09:45.1"	"09:45.7"	37	5.42975375
"S200120"	"Conflict_Resolution"	"RIGHT"	"RIGHT"	372.3966	650.0000013	n/a	n/a	n/a	n/a	FALSE	n/a	n/a	"09:46.4"	"09:47.0"	38	5.42975375
"S200120"	"Conflict_Resolution"	"LEFT"	"LEFT"	641.0307	1266.666669	n/a	n/a	n/a	n/a	FALSE	n/a	n/a	"09:48.2"	"09:49.1"	39	5.42975375
"S200120"	"Conflict_Resolution"	"RIGHT"	"RIGHT"	491.6588	1433.333336	n/a	n/a	n/a	n/a	TRUE	n/a	n/a	"09:50.6"	"09:51.3"	40	5.42975375
"S200120"	"Conflict_Resolution"	"RIGHT"	"RIGHT"	410.7149	1433.333336	n/a	n/a	n/a	n/a	FALSE	n/a	n/a	"09:52.7"	"09:53.3"	41	5.42975375
"S200120"	"Conflict_Resolution"	"LEFT"	"LEFT"	570.8553	1466.66667	n/a	n/a	n/a	n/a	TRUE	n/a	n/a	"09:54.8"	"09:55.6"	42	5.42975375
"S200120"	"Conflict_Resolution"	"LEFT"	"LEFT"	590.0811	616.6666679	n/a	n/a	n/a	n/a	TRUE	n/a	n/a	"09:56.2"	"09:57.0"	43	5.42975375
"S200120"	"Conflict_Resolution"	"LEFT"	"LEFT"	401.0368	1350.000003	n/a	n/a	n/a	n/a	FALSE	n/a	n/a	"09:58.4"	"09:59.0"	44	5.42975375
"S200120"	"Conflict_Resolution"	"LEFT"	"LEFT"	366.2071	950.0000019	n/a	n/a	n/a	n/a	FALSE	n/a	n/a	"10:00.0"	"10:00.5"	45	5.42975375
"S200120"	"Conflict_Resolution"	"RIGHT"	"RIGHT"	541.6677	600.0000012	n/a	n/a	n/a	n/a	TRUE	n/a	n/a	"10:01.2"	"10:01.9"	46	5.42975375
"S200120"	"Conflict_Resolution"	"LEFT"	"LEFT"	436.4663	1400.000003	n/a	n/a	n/a	n/a	FALSE	n/a	n/a	"10:03.3"	"10:04.0"	47	5.42975375
"S200120"	"Conflict_Resolution"	"LEFT"	"LEFT"	356.4224	633.3333346	n/a	n/a	n/a	n/a	FALSE	n/a	n/a	"10:04.6"	"10:05.2"	48	5.42975375
"S200120"	"Conflict_Resolution"	"RIGHT"	"RIGHT"	384.0836	733.3333348	n/a	n/a	n/a	n/a	FALSE	n/a	n/a	"10:05.9"	"10:06.5"	49	5.42975375
"S200120"	"Conflict_Resolution"	"RIGHT"	"RIGHT"	570.3803	1266.666669	n/a	n/a	n/a	n/a	TRUE	n/a	n/a	"10:07.8"	"10:08.6"	50	5.42975375
"S200120"	"Conflict_Resolution"	"RIGHT"	"RIGHT"	451.9268	1416.66667	n/a	n/a	n/a	n/a	FALSE	n/a	n/a	"10:10.0"	"10:10.7"	51	5.42975375
"S200120"	"Conflict_Resolution"	"LEFT"	"RIGHT"	368.687	900.0000018	n/a	n/a	n/a	n/a	TRUE	n/a	n/a	"10:11.6"	"10:12.2"	52	5.42975375
"S200120"	"Conflict_Resolution"	"RIGHT"	"RIGHT"	390.7258	1000.000002	n/a	n/a	n/a	n/a	FALSE	n/a	n/a	"10:13.2"	"10:13.8"	53	5.42975375
"S200120"	"Conflict_Resolution"	"RIGHT"	"RIGHT"	350.6002	700.0000014	n/a	n/a	n/a	n/a	FALSE	n/a	n/a	"10:14.5"	"10:15.1"	54	5.42975375
"S200120"	"Conflict_Resolution"	"RIGHT"	"RIGHT"	387.8944	833.333335	n/a	n/a	n/a	n/a	FALSE	n/a	n/a	"10:15.9"	"10:16.5"	55	5.42975375
"S200120"	"Conflict_Resolution"	"RIGHT"	"RIGHT"	434.991	1050.000002	n/a	n/a	n/a	n/a	FALSE	n/a	n/a	"10:17.6"	"10:18.2"	56	5.42975375
"S200120"	"Conflict_Resolution"	"LEFT"	"LEFT"	511.757	516.6666677	n/a	n/a	n/a	n/a	TRUE	n/a	n/a	"10:18.8"	"10:19.5"	57	5.42975375
"S200120"	"Conflict_Resolution"	"LEFT"	"LEFT"	577.1389	866.6666684	n/a	n/a	n/a	n/a	TRUE	n/a	n/a	"10:20.4"	"10:21.2"	58	5.42975375
"S200120"	"Conflict_Resolution"	"LEFT"	"LEFT"	486.5014	1150.000002	n/a	n/a	n/a	n/a	FALSE	n/a	n/a	"10:22.3"	"10:23.0"	59	5.42975375
"S200120"	"Conflict_Resolution"	"RIGHT"	"RIGHT"	505.906	1266.666669	n/a	n/a	n/a	n/a	FALSE	n/a	n/a	"10:24.3"	"10:25.0"	60	5.42975375
"S200120"	"Conflict_Resolution"	"RIGHT"	"RIGHT"	454.6931	1083.333336	n/a	n/a	n/a	n/a	FALSE	n/a	n/a	"10:26.1"	"10:26.8"	61	5.42975375
"S200120"	"Conflict_Resolution"	"LEFT"	"LEFT"	627.5567	1216.666669	n/a	n/a	n/a	n/a	FALSE	n/a	n/a	"10:28.0"	"10:28.9"	62	5.42975375
"S200120"	"Conflict_Resolution"	"LEFT"	"LEFT"	400.0121	916.6666685	n/a	n/a	n/a	n/a	FALSE	n/a	n/a	"10:29.8"	"10:30.4"	63	5.42975375
"S200120"	"Conflict_Resolution"	"RIGHT"	"RIGHT"	352.7211	533.3333344	n/a	n/a	n/a	n/a	FALSE	n/a	n/a	"10:31.0"	"10:31.5"	64	5.42975375
"S200120"	"Conflict_Resolution"	"RIGHT"	"LEFT"	387.2758	1233.333336	n/a	n/a	n/a	n/a	TRUE	n/a	n/a	"10:32.8"	"10:33.4"	65	5.42975375
"S200120"	"Conflict_Resolution"	"LEFT"	"LEFT"	583.8053	916.6666685	n/a	n/a	n/a	n/a	TRUE	n/a	n/a	"10:34.3"	"10:35.1"	66	5.42975375
"S200120"	"Conflict_Resolution"	"RIGHT"	"RIGHT"	575.5043	1366.666669	n/a	n/a	n/a	n/a	TRUE	n/a	n/a	"10:36.5"	"10:37.3"	67	5.42975375
"S200120"	"Conflict_Resolution"	"RIGHT"	"RIGHT"	559.0003	1133.333336	n/a	n/a	n/a	n/a	TRUE	n/a	n/a	"10:38.4"	"10:39.2"	68	5.42975375
"S200120"	"Conflict_Resolution"	"LEFT"	"LEFT"	532.4114	1250.000003	n/a	n/a	n/a	n/a	TRUE	n/a	n/a	"10:40.5"	"10:41.2"	69	5.42975375
"S200120"	"Conflict_Resolution"	"LEFT"	"LEFT"	482.998	1200.000002	n/a	n/a	n/a	n/a	TRUE	n/a	n/a	"10:42.4"	"10:43.1"	70	5.42975375
"S200120"	"Conflict_Resolution"	"LEFT"	"LEFT"	477.4549	816.6666683	n/a	n/a	n/a	n/a	FALSE	n/a	n/a	"10:43.9"	"10:44.6"	71	5.42975375
"S200120"	"Conflict_Resolution"	"RIGHT"	"RIGHT"	457.3116	1283.333336	n/a	n/a	n/a	n/a	FALSE	n/a	n/a	"10:45.9"	"10:46.6"	72	5.42975375
"S200120"	"Conflict_Resolution"	"RIGHT"	"RIGHT"	463.7404	550.0000011	n/a	n/a	n/a	n/a	TRUE	n/a	n/a	"10:47.2"	"10:47.8"	73	5.42975375
"S200120"	"Conflict_Resolution"	"RIGHT"	"RIGHT"	677.6961	1000.000002	n/a	n/a	n/a	n/a	TRUE	n/a	n/a	"10:48.9"	"10:49.7"	74	5.42975375
"S200120"	"Conflict_Resolution"	"RIGHT"	"RIGHT"	438.8843	1150.000002	n/a	n/a	n/a	n/a	FALSE	n/a	n/a	"10:50.9"	"10:51.6"	75	5.42975375
"S200120"	"Conflict_Resolution"	"LEFT"	"LEFT"	545.8226	666.666668	n/a	n/a	n/a	n/a	TRUE	n/a	n/a	"10:52.2"	"10:53.0"	76	5.42975375
"S200120"	"Conflict_Resolution"	"LEFT"	"LEFT"	419.1332	616.6666679	n/a	n/a	n/a	n/a	FALSE	n/a	n/a	"10:53.6"	"10:54.3"	77	5.42975375
"S200120"	"Conflict_Resolution"	"LEFT"	"LEFT"	332.6867	583.3333345	n/a	n/a	n/a	n/a	FALSE	n/a	n/a	"10:54.9"	"10:55.4"	78	5.42975375
"S200120"	"Conflict_Resolution"	"RIGHT"	"RIGHT"	382.7689	783.3333349	n/a	n/a	n/a	n/a	FALSE	n/a	n/a	"10:56.2"	"10:56.8"	79	5.42975375
"S200120"	"Conflict_Resolution"	"RIGHT"	"RIGHT"	655.8029	1316.666669	n/a	n/a	n/a	n/a	TRUE	n/a	n/a	"10:58.1"	"10:59.0"	80	5.42975375
"S200120"	"Conflict_Resolution"	"RIGHT"	"LEFT"	417.6447	1050.000002	n/a	n/a	n/a	n/a	TRUE	n/a	n/a	"11:00.1"	"11:00.7"	81	5.42975375
"S200120"	"Conflict_Resolution"	"RIGHT"	"RIGHT"	595.9003	1216.666669	n/a	n/a	n/a	n/a	TRUE	n/a	n/a	"11:01.9"	"11:02.7"	82	5.42975375
"S200120"	"Conflict_Resolution"	"LEFT"	"LEFT"	682.909	1016.666669	n/a	n/a	n/a	n/a	TRUE	n/a	n/a	"11:03.8"	"11:04.7"	83	5.42975375
"S200120"	"Conflict_Resolution"	"RIGHT"	"RIGHT"	419.7575	1233.333336	n/a	n/a	n/a	n/a	FALSE	n/a	n/a	"11:05.9"	"11:06.5"	84	5.42975375
"S200120"	"Conflict_Resolution"	"LEFT"	"LEFT"	569.0331	1066.666669	n/a	n/a	n/a	n/a	TRUE	n/a	n/a	"11:07.6"	"11:08.4"	85	5.42975375
"S200120"	"Conflict_Resolution"	"RIGHT"	"RIGHT"	445.9995	950.0000019	n/a	n/a	n/a	n/a	TRUE	n/a	n/a	"11:09.4"	"11:10.0"	86	5.42975375
"S200120"	"Conflict_Resolution"	"RIGHT"	"RIGHT"	424.8964	500.000001	n/a	n/a	n/a	n/a	FALSE	n/a	n/a	"11:10.6"	"11:11.2"	87	5.42975375
"S200120"	"Conflict_Resolution"	"RIGHT"	"RIGHT"	708.5491	1033.333335	n/a	n/a	n/a	n/a	TRUE	n/a	n/a	"11:12.2"	"11:13.2"	88	5.42975375
"S200120"	"Conflict_Resolution"	"LEFT"	"LEFT"	483.2773	1466.66667	n/a	n/a	n/a	n/a	FALSE	n/a	n/a	"11:14.6"	"11:15.3"	89	5.42975375
"S200120"	"Conflict_Resolution"	"LEFT"	"LEFT"	461.6076	783.3333349	n/a	n/a	n/a	n/a	TRUE	n/a	n/a	"11:16.1"	"11:16.8"	90	5.42975375
"S200120"	"Conflict_Resolution"	"RIGHT"	"RIGHT"	649.024	850.0000017	n/a	n/a	n/a	n/a	FALSE	n/a	n/a	"11:17.7"	"11:18.5"	91	5.42975375
"S200120"	"Conflict_Resolution"	"LEFT"	"LEFT"	576.6348	1316.666669	n/a	n/a	n/a	n/a	TRUE	n/a	n/a	"11:19.9"	"11:20.6"	92	5.42975375
"S200120"	"Conflict_Resolution"	"RIGHT"	"RIGHT"	474.481	683.3333347	n/a	n/a	n/a	n/a	FALSE	n/a	n/a	"11:21.4"	"11:22.0"	93	5.42975375
"S200120"	"Conflict_Resolution"	"LEFT"	"LEFT"	1008.8677	1300.000003	n/a	n/a	n/a	n/a	TRUE	n/a	n/a	"11:23.4"	"11:24.6"	94	5.42975375
"S200120"	"Conflict_Resolution"	"RIGHT"	"RIGHT"	500.9852	1416.66667	n/a	n/a	n/a	n/a	TRUE	n/a	n/a	"11:26.0"	"11:26.7"	95	5.42975375
"S200120"	"Conflict_Resolution"	"RIGHT"	"RIGHT"	485.7402	633.3333346	n/a	n/a	n/a	n/a	TRUE	n/a	n/a	"11:27.4"	"11:28.1"	96	5.42975375
"S200120"	"Conflict_Resolution"	"RIGHT"	"RIGHT"	508.9555	983.3333353	n/a	n/a	n/a	n/a	TRUE	n/a	n/a	"11:29.1"	"11:29.8"	97	5.42975375
"S200120"	"Conflict_Resolution"	"LEFT"	"LEFT"	483.6996	1266.666669	n/a	n/a	n/a	n/a	TRUE	n/a	n/a	"11:31.1"	"11:31.8"	98	5.42975375
"S200120"	"Conflict_Resolution"	"LEFT"	"RIGHT"	408.2665	716.6666681	n/a	n/a	n/a	n/a	TRUE	n/a	n/a	"11:32.5"	"11:33.1"	99	5.42975375
"S200120"	"Conflict_Resolution"	"LEFT"	"RIGHT"	366.2097	816.6666683	n/a	n/a	n/a	n/a	TRUE	n/a	n/a	"11:33.9"	"11:34.5"	100	5.42975375
"S200120"	"Conflict_Resolution"	"LEFT"	"LEFT"	462.648	1350.000003	n/a	n/a	n/a	n/a	TRUE	n/a	n/a	"11:35.9"	"11:36.6"	101	5.42975375
"S200120"	"Conflict_Resolution"	"LEFT"	"LEFT"	565.018	633.3333346	n/a	n/a	n/a	n/a	TRUE	n/a	n/a	"11:37.2"	"11:38.0"	102	5.42975375
"S200120"	"Conflict_Resolution"	"RIGHT"	"RIGHT"	404.865	983.3333353	n/a	n/a	n/a	n/a	FALSE	n/a	n/a	"11:39.0"	"11:39.6"	103	5.42975375
"S200120"	"Conflict_Resolution"	"LEFT"	"LEFT"	491.3176	850.0000017	n/a	n/a	n/a	n/a	TRUE	n/a	n/a	"11:40.5"	"11:41.2"	104	5.42975375
"S200120"	"Conflict_Resolution"	"LEFT"	"LEFT"	358.2696	966.6666686	n/a	n/a	n/a	n/a	FALSE	n/a	n/a	"11:42.1"	"11:42.7"	105	5.42975375
"S200120"	"Conflict_Resolution"	"LEFT"	"LEFT"	377.039	900.0000018	n/a	n/a	n/a	n/a	FALSE	n/a	n/a	"11:43.6"	"11:44.2"	106	5.42975375
"S200120"	"Conflict_Resolution"	"LEFT"	"LEFT"	398.141	683.3333347	n/a	n/a	n/a	n/a	FALSE	n/a	n/a	"11:44.9"	"11:45.5"	107	5.42975375
"S200120"	"Conflict_Resolution"	"RIGHT"	"RIGHT"	395.7014	750.0000015	n/a	n/a	n/a	n/a	FALSE	n/a	n/a	"11:46.3"	"11:46.9"	108	5.42975375
"S200120"	"Conflict_Resolution"	"LEFT"	"LEFT"	386.2278	1050.000002	n/a	n/a	n/a	n/a	FALSE	n/a	n/a	"11:48.0"	"11:48.6"	109	5.42975375
"S200120"	"Conflict_Resolution"	"RIGHT"	"RIGHT"	600.3554	1100.000002	n/a	n/a	n/a	n/a	FALSE	n/a	n/a	"11:49.7"	"11:50.5"	110	5.42975375
"S200120"	"Conflict_Resolution"	"LEFT"	"LEFT"	636.9619	1416.66667	n/a	n/a	n/a	n/a	TRUE	n/a	n/a	"11:51.9"	"11:52.8"	111	5.42975375
"S200120"	"Conflict_Resolution"	"LEFT"	"LEFT"	575.7826	533.3333344	n/a	n/a	n/a	n/a	TRUE	n/a	n/a	"11:53.3"	"11:54.1"	112	5.42975375
"S200120"	"Conflict_Resolution"	"LEFT"	"LEFT"	396.8165	966.6666686	n/a	n/a	n/a	n/a	TRUE	n/a	n/a	"11:55.1"	"11:55.7"	113	5.42975375
"S200120"	"Conflict_Resolution"	"LEFT"	"LEFT"	440.0779	733.3333348	n/a	n/a	n/a	n/a	TRUE	n/a	n/a	"11:56.5"	"11:57.1"	114	5.42975375
"S200120"	"Conflict_Resolution"	"RIGHT"	"RIGHT"	419.7802	1033.333335	n/a	n/a	n/a	n/a	FALSE	n/a	n/a	"11:58.2"	"11:58.8"	115	5.42975375
"S200120"	"Conflict_Resolution"	"LEFT"	"LEFT"	466.1066	1066.666669	n/a	n/a	n/a	n/a	FALSE	n/a	n/a	"11:59.9"	"12:00.5"	116	5.42975375
"S200120"	"Conflict_Resolution"	"LEFT"	"LEFT"	448.2172	533.3333344	n/a	n/a	n/a	n/a	FALSE	n/a	n/a	"12:01.1"	"12:01.8"	117	5.42975375
"S200120"	"Conflict_Resolution"	"RIGHT"	"RIGHT"	630.2883	933.3333352	n/a	n/a	n/a	n/a	TRUE	n/a	n/a	"12:02.7"	"12:03.5"	118	5.42975375
"S200120"	"Conflict_Resolution"	"RIGHT"	"RIGHT"	417.1375	1466.66667	n/a	n/a	n/a	n/a	FALSE	n/a	n/a	"12:05.0"	"12:05.7"	119	5.42975375
"S200120"	"Conflict_Resolution"	"RIGHT"	"RIGHT"	665.7579	500.000001	n/a	n/a	n/a	n/a	TRUE	n/a	n/a	"12:06.2"	"12:07.1"	120	5.42975375
"S200120"	"Conflict_Resolution"	"RIGHT"	"RIGHT"	509.384	800.0000016	n/a	n/a	n/a	n/a	TRUE	n/a	n/a	"12:07.9"	"12:08.6"	121	5.42975375
"S200120"	"Conflict_Resolution"	"LEFT"	"LEFT"	552.4463	716.6666681	n/a	n/a	n/a	n/a	FALSE	n/a	n/a	"12:09.3"	"12:10.1"	122	5.42975375
"S200120"	"Conflict_Resolution"	"RIGHT"	"RIGHT"	641.9898	650.0000013	n/a	n/a	n/a	n/a	TRUE	n/a	n/a	"12:10.8"	"12:11.6"	123	5.42975375
"S200120"	"Conflict_Resolution"	"LEFT"	"LEFT"	384.8732	1116.666669	n/a	n/a	n/a	n/a	FALSE	n/a	n/a	"12:12.7"	"12:13.3"	124	5.42975375
"S200120"	"Conflict_Resolution"	"LEFT"	"RIGHT"	479.8797	1500.000003	n/a	n/a	n/a	n/a	TRUE	n/a	n/a	"12:14.9"	"12:15.5"	125	5.42975375
"S200120"	"Conflict_Resolution"	"RIGHT"	"RIGHT"	461.4055	600.0000012	n/a	n/a	n/a	n/a	FALSE	n/a	n/a	"12:16.2"	"12:16.8"	126	5.42975375
"S200120"	"Conflict_Resolution"	"RIGHT"	"RIGHT"	320.8846	883.3333351	n/a	n/a	n/a	n/a	FALSE	n/a	n/a	"12:17.7"	"12:18.3"	127	5.42975375
"S200120"	"Conflict_Resolution"	"RIGHT"	"RIGHT"	397.5838	1333.333336	n/a	n/a	n/a	n/a	FALSE	n/a	n/a	"12:19.6"	"12:20.2"	128	5.42975375
"S200120"	"Conflict_Resolution"	"RIGHT"	"RIGHT"	398.7953	950.0000019	n/a	n/a	n/a	n/a	FALSE	n/a	n/a	"12:21.2"	"12:21.8"	129	5.42975375
"S200120"	"Conflict_Resolution"	"LEFT"	"LEFT"	490.4776	1100.000002	n/a	n/a	n/a	n/a	TRUE	n/a	n/a	"12:22.9"	"12:23.6"	130	5.42975375
"S200120"	"Conflict_Resolution"	"LEFT"	"LEFT"	443.027	1450.000003	n/a	n/a	n/a	n/a	FALSE	n/a	n/a	"12:25.1"	"12:25.7"	131	5.42975375
"S200120"	"Conflict_Resolution"	"RIGHT"	"RIGHT"	605.7136	1383.333336	n/a	n/a	n/a	n/a	TRUE	n/a	n/a	"12:27.1"	"12:27.9"	132	5.42975375
"S200120"	"Conflict_Resolution"	"RIGHT"	"RIGHT"	398.7758	1366.666669	n/a	n/a	n/a	n/a	FALSE	n/a	n/a	"12:29.3"	"12:29.9"	133	5.42975375
"S200120"	"Conflict_Resolution"	"LEFT"	"LEFT"	534.9732	766.6666682	n/a	n/a	n/a	n/a	TRUE	n/a	n/a	"12:30.7"	"12:31.5"	134	5.42975375
"S200120"	"Conflict_Resolution"	"LEFT"	"LEFT"	441.2046	1500.000003	n/a	n/a	n/a	n/a	FALSE	n/a	n/a	"12:33.0"	"12:33.6"	135	5.42975375
"S200120"	"Conflict_Resolution"	"LEFT"	"LEFT"	522.8478	1450.000003	n/a	n/a	n/a	n/a	TRUE	n/a	n/a	"12:35.1"	"12:35.8"	136	5.42975375
"S200120"	"Conflict_Resolution"	"LEFT"	"LEFT"	402.6362	666.666668	n/a	n/a	n/a	n/a	FALSE	n/a	n/a	"12:36.5"	"12:37.1"	137	5.42975375
"S200120"	"Conflict_Resolution"	"RIGHT"	"LEFT"	351.0565	583.3333345	n/a	n/a	n/a	n/a	TRUE	n/a	n/a	"12:37.7"	"12:38.3"	138	5.42975375
"S200120"	"Conflict_Resolution"	"LEFT"	"LEFT"	519.733	1150.000002	n/a	n/a	n/a	n/a	TRUE	n/a	n/a	"12:39.5"	"12:40.2"	139	5.42975375
"S200120"	"Conflict_Resolution"	"LEFT"	"LEFT"	556.245	1400.000003	n/a	n/a	n/a	n/a	TRUE	n/a	n/a	"12:41.6"	"12:42.4"	140	5.42975375
"S200120"	"Conflict_Resolution"	"LEFT"	"LEFT"	401.95	866.6666684	n/a	n/a	n/a	n/a	FALSE	n/a	n/a	"12:43.3"	"12:43.9"	141	5.42975375
"S200120"	"Conflict_Resolution"	"RIGHT"	"RIGHT"	528.4158	1083.333336	n/a	n/a	n/a	n/a	TRUE	n/a	n/a	"12:45.0"	"12:45.7"	142	5.42975375
"S200120"	"Conflict_Resolution"	"RIGHT"	"RIGHT"	590.566	750.0000015	n/a	n/a	n/a	n/a	TRUE	n/a	n/a	"12:46.5"	"12:47.3"	143	5.42975375
"S200120"	"Conflict_Resolution"	"RIGHT"	"RIGHT"	521.3881	683.3333347	n/a	n/a	n/a	n/a	TRUE	n/a	n/a	"12:48.0"	"12:48.7"	144	5.42975375
"S200120"	"Conflict_Resolution"	"RIGHT"	"RIGHT"	517.4852	783.3333349	n/a	n/a	n/a	n/a	TRUE	n/a	n/a	"12:49.5"	"12:50.2"	145	5.42975375
"S200120"	"Conflict_Resolution"	"LEFT"	"LEFT"	560.1706	1116.666669	n/a	n/a	n/a	n/a	TRUE	n/a	n/a	"12:51.4"	"12:52.1"	146	5.42975375
"S200120"	"Conflict_Resolution"	"LEFT"	"LEFT"	461.1725	1200.000002	n/a	n/a	n/a	n/a	FALSE	n/a	n/a	"12:53.4"	"12:54.0"	147	5.42975375
"S200120"	"Conflict_Resolution"	"LEFT"	"LEFT"	460.8232	1416.66667	n/a	n/a	n/a	n/a	FALSE	n/a	n/a	"12:55.5"	"12:56.1"	148	5.42975375
"S200120"	"Conflict_Resolution"	"RIGHT"	"RIGHT"	406.3603	1383.333336	n/a	n/a	n/a	n/a	FALSE	n/a	n/a	"12:57.5"	"12:58.1"	149	5.42975375
"S200120"	"Conflict_Resolution"	"RIGHT"	"RIGHT"	522.1813	1483.333336	n/a	n/a	n/a	n/a	TRUE	n/a	n/a	"12:59.6"	"13:00.4"	150	5.42975375
"S200120"	"Conflict_Resolution"	"RIGHT"	"RIGHT"	657.1285	1133.333336	n/a	n/a	n/a	n/a	FALSE	n/a	n/a	"13:01.5"	"13:02.4"	151	5.42975375
"S200120"	"Conflict_Resolution"	"RIGHT"	"RIGHT"	533.5206	1183.333336	n/a	n/a	n/a	n/a	TRUE	n/a	n/a	"13:03.6"	"13:04.3"	152	5.42975375
"S200120"	"Conflict_Resolution"	"LEFT"	"RIGHT"	370.9615	1050.000002	n/a	n/a	n/a	n/a	TRUE	n/a	n/a	"13:05.4"	"13:06.0"	153	5.42975375
"S200120"	"Conflict_Resolution"	"LEFT"	"LEFT"	398.7463	1166.666669	n/a	n/a	n/a	n/a	FALSE	n/a	n/a	"13:07.2"	"13:07.8"	154	5.42975375
"S200120"	"Conflict_Resolution"	"LEFT"	"LEFT"	451.1528	1250.000003	n/a	n/a	n/a	n/a	FALSE	n/a	n/a	"13:09.0"	"13:09.7"	155	5.42975375
"S200120"	"Conflict_Resolution"	"LEFT"	"LEFT"	614.6434	566.6666678	n/a	n/a	n/a	n/a	TRUE	n/a	n/a	"13:10.3"	"13:11.1"	156	5.42975375
"S200120"	"Conflict_Resolution"	"RIGHT"	"RIGHT"	557.7051	1150.000002	n/a	n/a	n/a	n/a	TRUE	n/a	n/a	"13:12.3"	"13:13.0"	157	5.42975375
"S200120"	"Conflict_Resolution"	"LEFT"	"LEFT"	526.3759	783.3333349	n/a	n/a	n/a	n/a	FALSE	n/a	n/a	"13:13.9"	"13:14.6"	158	5.42975375
"S200120"	"Conflict_Resolution"	"LEFT"	"LEFT"	668.6856	1366.666669	n/a	n/a	n/a	n/a	TRUE	n/a	n/a	"13:16.0"	"13:16.8"	159	5.42975375
"S200120"	"Conflict_Resolution"	"RIGHT"	"RIGHT"	590.8335	1333.333336	n/a	n/a	n/a	n/a	TRUE	n/a	n/a	"13:18.2"	"13:19.0"	160	5.42975375
"S200120"	"Processing_Speed"	"RIGHT"	"DOWN"	439.827899999983	1466.6666696	""	n/a	n/a	n/a	n/a	n/a	n/a	"2020-01-20 12:57:59.705837"	"2020-01-20 12:58:00.355090"	1	2.02277463333333
"S200120"	"Processing_Speed"	"LEFT"	"DOWN"	358.3687	1183.3333357	""	n/a	n/a	n/a	n/a	n/a	n/a	"2020-01-20 12:58:01.546687"	"2020-01-20 12:58:02.113722"	2	2.02277463333333
"S200120"	"Processing_Speed"	"LEFT"	"DOWN"	339.405200000016	700.0000014	""	n/a	n/a	n/a	n/a	n/a	n/a	"2020-01-20 12:58:02.821845"	"2020-01-20 12:58:03.368405"	3	2.02277463333333
"S200120"	"Processing_Speed"	"RIGHT"	"DOWN"	301.992999999982	1266.6666692	""	n/a	n/a	n/a	n/a	n/a	n/a	"2020-01-20 12:58:04.643693"	"2020-01-20 12:58:05.152332"	4	2.02277463333333
"S200120"	"Processing_Speed"	"RIGHT"	"DOWN"	322.156400000011	1150.0000023	""	n/a	n/a	n/a	n/a	n/a	n/a	"2020-01-20 12:58:06.310904"	"2020-01-20 12:58:06.841392"	5	2.02277463333333
"S200120"	"Processing_Speed"	"LEFT"	"DOWN"	430.332700000008	816.6666683	""	n/a	n/a	n/a	n/a	n/a	n/a	"2020-01-20 12:58:07.667427"	"2020-01-20 12:58:08.305310"	6	2.02277463333333
"S200120"	"Processing_Speed"	"LEFT"	"DOWN"	337.918300000013	533.3333344	""	n/a	n/a	n/a	n/a	n/a	n/a	"2020-01-20 12:58:08.848039"	"2020-01-20 12:58:09.393619"	7	2.02277463333333
"S200120"	"Processing_Speed"	"RIGHT"	"DOWN"	269.613099999987	1050.0000021	""	n/a	n/a	n/a	n/a	n/a	n/a	"2020-01-20 12:58:10.451710"	"2020-01-20 12:58:10.930708"	8	2.02277463333333
"S200120"	"Processing_Speed"	"LEFT"	"DOWN"	323.346100000009	666.666668	""	n/a	n/a	n/a	n/a	n/a	n/a	"2020-01-20 12:58:11.605914"	"2020-01-20 12:58:12.137598"	9	2.02277463333333
"S200120"	"Processing_Speed"	"RIGHT"	"DOWN"	281.346099999979	950.0000019	""	n/a	n/a	n/a	n/a	n/a	n/a	"2020-01-20 12:58:13.096027"	"2020-01-20 12:58:13.585519"	10	2.02277463333333
"S200120"	"Processing_Speed"	"RIGHT"	"DOWN"	302.093200000002	1433.3333362	""	n/a	n/a	n/a	n/a	n/a	n/a	"2020-01-20 12:58:15.027486"	"2020-01-20 12:58:15.537507"	11	2.02277463333333
"S200120"	"Processing_Speed"	"LEFT"	"DOWN"	439.851099999998	733.3333348	""	n/a	n/a	n/a	n/a	n/a	n/a	"2020-01-20 12:58:16.281834"	"2020-01-20 12:58:16.929045"	12	2.02277463333333
"S200120"	"Processing_Speed"	"RIGHT"	"DOWN"	291.176900000011	500.000001	""	n/a	n/a	n/a	n/a	n/a	n/a	"2020-01-20 12:58:17.438244"	"2020-01-20 12:58:17.937883"	13	2.02277463333333
"S200120"	"Processing_Speed"	"LEFT"	"DOWN"	228.960900000004	850.0000017	""	n/a	n/a	n/a	n/a	n/a	n/a	"2020-01-20 12:58:18.796363"	"2020-01-20 12:58:19.233886"	14	2.02277463333333
"S200120"	"Processing_Speed"	"RIGHT"	"DOWN"	272.478699999994	1366.6666694	""	n/a	n/a	n/a	n/a	n/a	n/a	"2020-01-20 12:58:20.609202"	"2020-01-20 12:58:21.089447"	15	2.02277463333333
"S200120"	"Processing_Speed"	"LEFT"	"DOWN"	300.109800000001	500.000001	""	n/a	n/a	n/a	n/a	n/a	n/a	"2020-01-20 12:58:21.597657"	"2020-01-20 12:58:22.105484"	16	2.02277463333333
"S200120"	"Processing_Speed"	"LEFT"	"DOWN"	330.784999999992	1116.6666689	""	n/a	n/a	n/a	n/a	n/a	n/a	"2020-01-20 12:58:23.230937"	"2020-01-20 12:58:23.771772"	17	2.02277463333333
"S200120"	"Processing_Speed"	"RIGHT"	"DOWN"	296.077999999994	733.3333348	""	n/a	n/a	n/a	n/a	n/a	n/a	"2020-01-20 12:58:24.513990"	"2020-01-20 12:58:25.017592"	18	2.02277463333333
"S200120"	"Processing_Speed"	"LEFT"	"DOWN"	264.265599999987	983.3333353	""	n/a	n/a	n/a	n/a	n/a	n/a	"2020-01-20 12:58:26.009130"	"2020-01-20 12:58:26.481475"	19	2.02277463333333
"S200120"	"Processing_Speed"	"RIGHT"	"DOWN"	331.118400000008	1500.000003	""	n/a	n/a	n/a	n/a	n/a	n/a	"2020-01-20 12:58:27.990563"	"2020-01-20 12:58:28.529391"	20	2.02277463333333
"S200120"	"Processing_Speed"	"RIGHT"	"DOWN"	359.247799999991	600.0000012	""	n/a	n/a	n/a	n/a	n/a	n/a	"2020-01-20 12:58:29.138392"	"2020-01-20 12:58:29.705484"	21	2.02277463333333
"S200120"	"Processing_Speed"	"LEFT"	"DOWN"	274.150700000007	1333.333336	""	n/a	n/a	n/a	n/a	n/a	n/a	"2020-01-20 12:58:31.047323"	"2020-01-20 12:58:31.529681"	22	2.02277463333333
"S200120"	"Processing_Speed"	"RIGHT"	"DOWN"	302.157300000005	1216.6666691	""	n/a	n/a	n/a	n/a	n/a	n/a	"2020-01-20 12:58:32.755631"	"2020-01-20 12:58:33.265275"	23	2.02277463333333
"S200120"	"Processing_Speed"	"RIGHT"	"DOWN"	280.532399999998	783.3333349	""	n/a	n/a	n/a	n/a	n/a	n/a	"2020-01-20 12:58:34.057362"	"2020-01-20 12:58:34.545331"	24	2.02277463333333
"S200120"	"Processing_Speed"	"LEFT"	"DOWN"	273.652499999997	950.0000019	""	n/a	n/a	n/a	n/a	n/a	n/a	"2020-01-20 12:58:35.504153"	"2020-01-20 12:58:35.986722"	25	2.02277463333333
"S200120"	"Processing_Speed"	"LEFT"	"DOWN"	267.803799999996	1050.0000021	""	n/a	n/a	n/a	n/a	n/a	n/a	"2020-01-20 12:58:37.045528"	"2020-01-20 12:58:37.520514"	26	2.02277463333333
"S200120"	"Processing_Speed"	"LEFT"	"DOWN"	291.784500000006	916.6666685	""	n/a	n/a	n/a	n/a	n/a	n/a	"2020-01-20 12:58:38.445263"	"2020-01-20 12:58:38.946127"	27	2.02277463333333
"S200120"	"Processing_Speed"	"RIGHT"	"DOWN"	274.819699999995	700.0000014	""	n/a	n/a	n/a	n/a	n/a	n/a	"2020-01-20 12:58:39.654843"	"2020-01-20 12:58:40.137174"	28	2.02277463333333
"S200120"	"Processing_Speed"	"RIGHT"	"DOWN"	320.885599999997	566.6666678	""	n/a	n/a	n/a	n/a	n/a	n/a	"2020-01-20 12:58:40.712360"	"2020-01-20 12:58:41.240427"	29	2.02277463333333
"S200120"	"Processing_Speed"	"LEFT"	"DOWN"	284.22119999999	1500.000003	""	n/a	n/a	n/a	n/a	n/a	n/a	"2020-01-20 12:58:42.748803"	"2020-01-20 12:58:43.242480"	30	2.02277463333333
"S200120"	"Processing_Speed"	"LEFT"	"DOWN"	295.379300000008	783.3333349	""	n/a	n/a	n/a	n/a	n/a	n/a	"2020-01-20 12:58:44.034508"	"2020-01-20 12:58:44.537270"	31	2.02277463333333
"S200120"	"Processing_Speed"	"RIGHT"	"DOWN"	291.356699999994	1083.3333355	""	n/a	n/a	n/a	n/a	n/a	n/a	"2020-01-20 12:58:45.630620"	"2020-01-20 12:58:46.129481"	32	2.02277463333333
"S200120"	"Processing_Speed"	"LEFT"	"DOWN"	246.908200000007	1216.6666691	""	n/a	n/a	n/a	n/a	n/a	n/a	"2020-01-20 12:58:47.354954"	"2020-01-20 12:58:47.809468"	33	2.02277463333333
"S200120"	"Processing_Speed"	"LEFT"	"DOWN"	381.206999999989	1433.3333362	""	n/a	n/a	n/a	n/a	n/a	n/a	"2020-01-20 12:58:49.252367"	"2020-01-20 12:58:49.841787"	34	2.02277463333333
"S200120"	"Processing_Speed"	"LEFT"	"DOWN"	351.127700000006	600.0000012	""	n/a	n/a	n/a	n/a	n/a	n/a	"2020-01-20 12:58:50.450732"	"2020-01-20 12:58:51.009717"	35	2.02277463333333
"S200120"	"Processing_Speed"	"RIGHT"	"DOWN"	275.518600000026	883.3333351	""	n/a	n/a	n/a	n/a	n/a	n/a	"2020-01-20 12:58:51.902192"	"2020-01-20 12:58:52.386366"	36	2.02277463333333
"S200120"	"Processing_Speed"	"LEFT"	"DOWN"	284.339200000005	1466.6666696	""	n/a	n/a	n/a	n/a	n/a	n/a	"2020-01-20 12:58:53.861635"	"2020-01-20 12:58:54.353446"	37	2.02277463333333
"S200120"	"Processing_Speed"	"LEFT"	"DOWN"	324.935599999975	1266.6666692	""	n/a	n/a	n/a	n/a	n/a	n/a	"2020-01-20 12:58:55.628349"	"2020-01-20 12:58:56.160989"	38	2.02277463333333
"S200120"	"Processing_Speed"	"RIGHT"	"DOWN"	318.710699999997	633.3333346	""	n/a	n/a	n/a	n/a	n/a	n/a	"2020-01-20 12:58:56.803470"	"2020-01-20 12:58:57.329689"	39	2.02277463333333
"S200120"	"Processing_Speed"	"LEFT"	"DOWN"	292.275600000011	1083.3333355	""	n/a	n/a	n/a	n/a	n/a	n/a	"2020-01-20 12:58:58.421622"	"2020-01-20 12:58:58.921960"	40	2.02277463333333
"S200120"	"Processing_Speed"	"RIGHT"	"DOWN"	285.771699999998	1016.6666687	""	n/a	n/a	n/a	n/a	n/a	n/a	"2020-01-20 12:58:59.948029"	"2020-01-20 12:59:00.442141"	41	2.02277463333333
"S200120"	"Processing_Speed"	"LEFT"	"DOWN"	286.165799999992	1016.6666687	""	n/a	n/a	n/a	n/a	n/a	n/a	"2020-01-20 12:59:01.467588"	"2020-01-20 12:59:01.962148"	42	2.02277463333333
"S200120"	"Processing_Speed"	"RIGHT"	"DOWN"	322.126800000007	916.6666685	""	n/a	n/a	n/a	n/a	n/a	n/a	"2020-01-20 12:59:02.887896"	"2020-01-20 12:59:03.417469"	43	2.02277463333333
"S200120"	"Processing_Speed"	"LEFT"	"DOWN"	304.668000000021	1366.6666694	""	n/a	n/a	n/a	n/a	n/a	n/a	"2020-01-20 12:59:04.793295"	"2020-01-20 12:59:05.305941"	44	2.02277463333333
"S200120"	"Processing_Speed"	"LEFT"	"DOWN"	371.5732	883.3333351	""	n/a	n/a	n/a	n/a	n/a	n/a	"2020-01-20 12:59:06.197913"	"2020-01-20 12:59:06.777638"	45	2.02277463333333
"S200120"	"Processing_Speed"	"LEFT"	"DOWN"	351.318099999986	1400.0000028	"DOWN"	-452.408	n/a	n/a	n/a	n/a	n/a	"2020-01-20 12:59:08.186089"	"2020-01-20 12:59:08.744334"	46	2.02277463333333
"S200120"	"Processing_Speed"	"LEFT"	"DOWN"	343.314300000003	633.3333346	""	n/a	n/a	n/a	n/a	n/a	n/a	"2020-01-20 12:59:09.386618"	"2020-01-20 12:59:09.937650"	47	2.02277463333333
"S200120"	"Processing_Speed"	"RIGHT"	"DOWN"	300.875099999985	850.0000017	""	n/a	n/a	n/a	n/a	n/a	n/a	"2020-01-20 12:59:10.796597"	"2020-01-20 12:59:11.305561"	48	2.02277463333333
"S200120"	"Processing_Speed"	"RIGHT"	"DOWN"	376.1729	1183.3333357	""	n/a	n/a	n/a	n/a	n/a	n/a	"2020-01-20 12:59:12.497747"	"2020-01-20 12:59:13.081861"	49	2.02277463333333
"S200120"	"Processing_Speed"	"LEFT"	"DOWN"	266.132800000008	1300.0000026	""	n/a	n/a	n/a	n/a	n/a	n/a	"2020-01-20 12:59:14.391681"	"2020-01-20 12:59:14.865421"	50	2.02277463333333
"S200120"	"Processing_Speed"	"LEFT"	"DOWN"	336.688900000013	1150.0000023	""	n/a	n/a	n/a	n/a	n/a	n/a	"2020-01-20 12:59:16.025318"	"2020-01-20 12:59:16.569724"	51	2.02277463333333
"S200120"	"Processing_Speed"	"RIGHT"	"DOWN"	322.013400000003	1333.333336	""	n/a	n/a	n/a	n/a	n/a	n/a	"2020-01-20 12:59:17.912001"	"2020-01-20 12:59:18.442465"	52	2.02277463333333
"S200120"	"Processing_Speed"	"RIGHT"	"DOWN"	393.080200000014	533.3333344	""	n/a	n/a	n/a	n/a	n/a	n/a	"2020-01-20 12:59:18.984254"	"2020-01-20 12:59:19.585237"	53	2.02277463333333
"S200120"	"Processing_Speed"	"RIGHT"	"DOWN"	374.136000000021	1400.0000028	""	n/a	n/a	n/a	n/a	n/a	n/a	"2020-01-20 12:59:20.995821"	"2020-01-20 12:59:21.577331"	54	2.02277463333333
"S200120"	"Processing_Speed"	"LEFT"	"DOWN"	345.193999999992	566.6666678	""	n/a	n/a	n/a	n/a	n/a	n/a	"2020-01-20 12:59:22.152843"	"2020-01-20 12:59:22.705508"	55	2.02277463333333
"S200120"	"Processing_Speed"	"RIGHT"	"DOWN"	387.179299999985	1300.0000026	""	n/a	n/a	n/a	n/a	n/a	n/a	"2020-01-20 12:59:24.014696"	"2020-01-20 12:59:24.609389"	56	2.02277463333333
"S200120"	"Processing_Speed"	"RIGHT"	"DOWN"	340.676200000019	666.666668	""	n/a	n/a	n/a	n/a	n/a	n/a	"2020-01-20 12:59:25.284965"	"2020-01-20 12:59:25.835407"	57	2.02277463333333
"S200120"	"Processing_Speed"	"RIGHT"	"DOWN"	437.117999999998	816.6666683	""	n/a	n/a	n/a	n/a	n/a	n/a	"2020-01-20 12:59:26.660161"	"2020-01-20 12:59:27.305686"	58	2.02277463333333
"S200120"	"Processing_Speed"	"RIGHT"	"DOWN"	279.770799999994	983.3333353	""	n/a	n/a	n/a	n/a	n/a	n/a	"2020-01-20 12:59:28.297790"	"2020-01-20 12:59:28.786851"	59	2.02277463333333
"S200120"	"Processing_Speed"	"RIGHT"	"DOWN"	345.708200000047	1116.6666689	""	n/a	n/a	n/a	n/a	n/a	n/a	"2020-01-20 12:59:29.911664"	"2020-01-20 12:59:30.465620"	60	2.02277463333333
"S200120"	"Response_Inhibition"	"RIGHT"	"Time_Max_Exceeded"	1500.05250010003	550.0000011	""	n/a	n/a	n/a	n/a	n/a	n/a	"2020-01-20 13:02:38.989259"	"2020-01-20 13:02:40.493015"	1	5.73445925
"S200120"	"Response_Inhibition"	"LEFT"	"Time_Max_Exceeded"	1500.08309999998	550.0000011	""	n/a	n/a	n/a	n/a	n/a	n/a	"2020-01-20 13:02:41.051119"	"2020-01-20 13:02:42.551952"	2	5.73445925
"S200120"	"Response_Inhibition"	"LEFT"	"LEFT"	416.703299999995	616.6666679	""	n/a	n/a	n/a	n/a	n/a	n/a	"2020-01-20 13:02:43.177478"	"2020-01-20 13:02:43.801449"	3	5.73445925
"S200120"	"Response_Inhibition"	"LEFT"	"LEFT"	508.568200000013	1050.0000021	""	n/a	n/a	n/a	n/a	n/a	n/a	"2020-01-20 13:02:44.861699"	"2020-01-20 13:02:45.577406"	4	5.73445925
"S200120"	"Response_Inhibition"	"RIGHT"	"RIGHT"	356.565867300036	600.0000012	""	n/a	n/a	n/a	n/a	n/a	n/a	"2020-01-20 13:02:46.186096"	"2020-01-20 13:02:46.754557"	5	5.73445925
"S200120"	"Response_Inhibition"	"LEFT"	"LEFT"	744.813700000009	1150.0000023	""	n/a	n/a	n/a	n/a	n/a	n/a	"2020-01-20 13:02:47.913083"	"2020-01-20 13:02:48.866873"	6	5.73445925
"S200120"	"Response_Inhibition"	"RIGHT"	"RIGHT"	441.980300000012	516.6666677	""	n/a	n/a	n/a	n/a	n/a	n/a	"2020-01-20 13:02:49.391644"	"2020-01-20 13:02:50.041786"	7	5.73445925
"S200120"	"Response_Inhibition"	"RIGHT"	"RIGHT"	398.41389999998	1416.6666695	""	n/a	n/a	n/a	n/a	n/a	n/a	"2020-01-20 13:02:51.467204"	"2020-01-20 13:02:52.073627"	8	5.73445925
"S200120"	"Response_Inhibition"	"LEFT"	"LEFT"	429.649100000006	650.0000013	""	n/a	n/a	n/a	n/a	n/a	n/a	"2020-01-20 13:02:52.732037"	"2020-01-20 13:02:53.370580"	9	5.73445925
"S200120"	"Response_Inhibition"	"LEFT"	"LEFT"	382.042099999978	1016.6666687	""	n/a	n/a	n/a	n/a	n/a	n/a	"2020-01-20 13:02:54.395417"	"2020-01-20 13:02:54.985017"	10	5.73445925
"S200120"	"Response_Inhibition"	"RIGHT"	"Time_Max_Exceeded"	1500.11016680001	1183.3333357	""	n/a	n/a	n/a	n/a	n/a	n/a	"2020-01-20 13:02:56.177289"	"2020-01-20 13:02:57.680503"	11	5.73445925
"S200120"	"Response_Inhibition"	"LEFT"	"Time_Max_Exceeded"	1500.05876699997	983.3333353	""	n/a	n/a	n/a	n/a	n/a	n/a	"2020-01-20 13:02:58.673489"	"2020-01-20 13:03:00.176863"	12	5.73445925
"S200120"	"Response_Inhibition"	"LEFT"	"LEFT"	655.535299999997	600.0000012	""	n/a	n/a	n/a	n/a	n/a	n/a	"2020-01-20 13:03:00.786093"	"2020-01-20 13:03:01.650148"	13	5.73445925
"S200120"	"Response_Inhibition"	"RIGHT"	"RIGHT"	432.814800000017	966.6666686	""	n/a	n/a	n/a	n/a	n/a	n/a	"2020-01-20 13:03:02.625501"	"2020-01-20 13:03:03.265719"	14	5.73445925
"S200120"	"Response_Inhibition"	"LEFT"	"LEFT"	460.57780000001	683.3333347	""	n/a	n/a	n/a	n/a	n/a	n/a	"2020-01-20 13:03:03.957059"	"2020-01-20 13:03:04.625740"	15	5.73445925
"S200120"	"Response_Inhibition"	"RIGHT"	"RIGHT"	341.019899999992	666.666668	""	n/a	n/a	n/a	n/a	n/a	n/a	"2020-01-20 13:03:05.300725"	"2020-01-20 13:03:05.849070"	16	5.73445925
"S200120"	"Response_Inhibition"	"LEFT"	"Time_Max_Exceeded"	1500.05560009998	516.6666677	""	n/a	n/a	n/a	n/a	n/a	n/a	"2020-01-20 13:03:06.374466"	"2020-01-20 13:03:07.877749"	17	5.73445925
"S200120"	"Response_Inhibition"	"LEFT"	"LEFT"	601.946499999997	833.333335	""	n/a	n/a	n/a	n/a	n/a	n/a	"2020-01-20 13:03:08.720087"	"2020-01-20 13:03:09.530595"	18	5.73445925
"S200120"	"Response_Inhibition"	"RIGHT"	"Time_Max_Exceeded"	1500.05956670001	1300.0000026	""	n/a	n/a	n/a	n/a	n/a	n/a	"2020-01-20 13:03:10.839316"	"2020-01-20 13:03:12.342583"	19	5.73445925
"S200120"	"Response_Inhibition"	"LEFT"	"LEFT"	533.255899999972	716.6666681	""	n/a	n/a	n/a	n/a	n/a	n/a	"2020-01-20 13:03:13.068712"	"2020-01-20 13:03:13.809736"	20	5.73445925
"S200120"	"Response_Inhibition"	"RIGHT"	"RIGHT"	316.365200000007	1083.3333355	""	n/a	n/a	n/a	n/a	n/a	n/a	"2020-01-20 13:03:14.901516"	"2020-01-20 13:03:15.426653"	21	5.73445925
"S200120"	"Response_Inhibition"	"LEFT"	"LEFT"	328.618500000005	533.3333344	""	n/a	n/a	n/a	n/a	n/a	n/a	"2020-01-20 13:03:15.969649"	"2020-01-20 13:03:16.506021"	22	5.73445925
"S200120"	"Response_Inhibition"	"RIGHT"	"RIGHT"	334.202699999992	633.3333346	""	n/a	n/a	n/a	n/a	n/a	n/a	"2020-01-20 13:03:17.147565"	"2020-01-20 13:03:17.689438"	23	5.73445925
"S200120"	"Response_Inhibition"	"RIGHT"	"RIGHT"	342.654400000015	633.3333346	""	n/a	n/a	n/a	n/a	n/a	n/a	"2020-01-20 13:03:18.331407"	"2020-01-20 13:03:18.881054"	24	5.73445925
"S200120"	"Response_Inhibition"	"RIGHT"	"RIGHT"	571.632199999954	1100.0000022	""	n/a	n/a	n/a	n/a	n/a	n/a	"2020-01-20 13:03:19.990086"	"2020-01-20 13:03:20.769958"	25	5.73445925
"S200120"	"Response_Inhibition"	"RIGHT"	"RIGHT"	364.032867199954	1000.000002	""	n/a	n/a	n/a	n/a	n/a	n/a	"2020-01-20 13:03:21.778497"	"2020-01-20 13:03:22.354525"	26	5.73445925
"S200120"	"Response_Inhibition"	"RIGHT"	"RIGHT"	316.497000000027	850.0000017	""	n/a	n/a	n/a	n/a	n/a	n/a	"2020-01-20 13:03:23.212896"	"2020-01-20 13:03:23.737254"	27	5.73445925
"S200120"	"Response_Inhibition"	"LEFT"	"LEFT"	444.895700000018	883.3333351	""	n/a	n/a	n/a	n/a	n/a	n/a	"2020-01-20 13:03:24.628873"	"2020-01-20 13:03:25.282176"	28	5.73445925
"S200120"	"Response_Inhibition"	"LEFT"	"LEFT"	602.114700000016	1316.6666693	""	n/a	n/a	n/a	n/a	n/a	n/a	"2020-01-20 13:03:26.607833"	"2020-01-20 13:03:27.417591"	29	5.73445925
"S200120"	"Response_Inhibition"	"RIGHT"	"RIGHT"	634.635300000014	533.3333344	""	n/a	n/a	n/a	n/a	n/a	n/a	"2020-01-20 13:03:27.959413"	"2020-01-20 13:03:28.801926"	30	5.73445925
"S200120"	"Response_Inhibition"	"LEFT"	"LEFT"	621.992500000033	1416.6666695	""	n/a	n/a	n/a	n/a	n/a	n/a	"2020-01-20 13:03:30.227983"	"2020-01-20 13:03:31.058749"	31	5.73445925
"S200120"	"Response_Inhibition"	"LEFT"	"LEFT"	576.819499999999	1150.0000023	""	n/a	n/a	n/a	n/a	n/a	n/a	"2020-01-20 13:03:32.217317"	"2020-01-20 13:03:33.001702"	32	5.73445925
"S200120"	"Response_Inhibition"	"LEFT"	"LEFT"	438.335199999983	1233.3333358	""	n/a	n/a	n/a	n/a	n/a	n/a	"2020-01-20 13:03:34.243921"	"2020-01-20 13:03:34.890340"	33	5.73445925
"S200120"	"Response_Inhibition"	"LEFT"	"Time_Max_Exceeded"	1500.04716689999	633.3333346	""	n/a	n/a	n/a	n/a	n/a	n/a	"2020-01-20 13:03:35.531583"	"2020-01-20 13:03:37.035452"	34	5.73445925
"S200120"	"Response_Inhibition"	"LEFT"	"LEFT"	401.604200000008	683.3333347	""	n/a	n/a	n/a	n/a	n/a	n/a	"2020-01-20 13:03:37.728016"	"2020-01-20 13:03:38.339532"	35	5.73445925
"S200120"	"Response_Inhibition"	"RIGHT"	"RIGHT"	561.909000000014	1100.0000022	""	n/a	n/a	n/a	n/a	n/a	n/a	"2020-01-20 13:03:39.447573"	"2020-01-20 13:03:40.217161"	36	5.73445925
"S200120"	"Response_Inhibition"	"LEFT"	"LEFT"	465.122400000041	1383.3333361	""	n/a	n/a	n/a	n/a	n/a	n/a	"2020-01-20 13:03:41.608863"	"2020-01-20 13:03:42.281409"	37	5.73445925
"S200120"	"Response_Inhibition"	"LEFT"	"LEFT"	360.773199999926	783.3333349	""	n/a	n/a	n/a	n/a	n/a	n/a	"2020-01-20 13:03:43.072896"	"2020-01-20 13:03:43.641667"	38	5.73445925
"S200120"	"Response_Inhibition"	"LEFT"	"LEFT"	318.573799999967	633.3333346	""	n/a	n/a	n/a	n/a	n/a	n/a	"2020-01-20 13:03:44.283095"	"2020-01-20 13:03:44.809935"	39	5.73445925
"S200120"	"Response_Inhibition"	"RIGHT"	"RIGHT"	358.268399999929	1216.6666691	""	n/a	n/a	n/a	n/a	n/a	n/a	"2020-01-20 13:03:46.035976"	"2020-01-20 13:03:46.601215"	40	5.73445925
"S200120"	"Response_Inhibition"	"RIGHT"	"RIGHT"	524.780400000054	1466.6666696	""	n/a	n/a	n/a	n/a	n/a	n/a	"2020-01-20 13:03:48.077283"	"2020-01-20 13:03:48.810052"	41	5.73445925
"S200120"	"Response_Inhibition"	"LEFT"	"LEFT"	401.467100399945	666.666668	""	n/a	n/a	n/a	n/a	n/a	n/a	"2020-01-20 13:03:49.484852"	"2020-01-20 13:03:50.097867"	42	5.73445925
"S200120"	"Response_Inhibition"	"RIGHT"	"RIGHT"	335.707400000047	1000.000002	""	n/a	n/a	n/a	n/a	n/a	n/a	"2020-01-20 13:03:51.106037"	"2020-01-20 13:03:51.649245"	43	5.73445925
"S200120"	"Response_Inhibition"	"RIGHT"	"RIGHT"	386.464100000012	1150.0000023	""	n/a	n/a	n/a	n/a	n/a	n/a	"2020-01-20 13:03:52.807108"	"2020-01-20 13:03:53.401180"	44	5.73445925
"S200120"	"Response_Inhibition"	"LEFT"	"LEFT"	428.689233600004	1350.0000027	""	n/a	n/a	n/a	n/a	n/a	n/a	"2020-01-20 13:03:54.761922"	"2020-01-20 13:03:55.401696"	45	5.73445925
"S200120"	"Response_Inhibition"	"LEFT"	"Time_Max_Exceeded"	1500.04806730003	583.3333345	""	n/a	n/a	n/a	n/a	n/a	n/a	"2020-01-20 13:03:55.993767"	"2020-01-20 13:03:57.496854"	46	5.73445925
"S200120"	"Response_Inhibition"	"RIGHT"	"Time_Max_Exceeded"	1500.05500060002	700.0000014	""	n/a	n/a	n/a	n/a	n/a	n/a	"2020-01-20 13:03:58.206147"	"2020-01-20 13:03:59.708964"	47	5.73445925
"S200120"	"Response_Inhibition"	"RIGHT"	"RIGHT"	639.237299999991	1316.6666693	""	n/a	n/a	n/a	n/a	n/a	n/a	"2020-01-20 13:04:01.035014"	"2020-01-20 13:04:01.881998"	48	5.73445925
"S200120"	"Response_Inhibition"	"LEFT"	"Time_Max_Exceeded"	1500.04516699998	1050.0000021	""	n/a	n/a	n/a	n/a	n/a	n/a	"2020-01-20 13:04:02.940381"	"2020-01-20 13:04:04.444107"	49	5.73445925
"S200120"	"Response_Inhibition"	"LEFT"	"LEFT"	493.369799999982	1400.0000028	""	n/a	n/a	n/a	n/a	n/a	n/a	"2020-01-20 13:04:05.852724"	"2020-01-20 13:04:06.553918"	50	5.73445925
"S200120"	"Response_Inhibition"	"RIGHT"	"RIGHT"	387.372100500107	1416.6666695	""	n/a	n/a	n/a	n/a	n/a	n/a	"2020-01-20 13:04:07.979620"	"2020-01-20 13:04:08.577175"	51	5.73445925
"S200120"	"Response_Inhibition"	"LEFT"	"LEFT"	477.037999999993	1483.3333363	""	n/a	n/a	n/a	n/a	n/a	n/a	"2020-01-20 13:04:10.068576"	"2020-01-20 13:04:10.753579"	52	5.73445925
"S200120"	"Response_Inhibition"	"LEFT"	"LEFT"	368.786999999998	766.6666682	""	n/a	n/a	n/a	n/a	n/a	n/a	"2020-01-20 13:04:11.528696"	"2020-01-20 13:04:12.105166"	53	5.73445925
"S200120"	"Response_Inhibition"	"LEFT"	"LEFT"	492.847667199997	800.0000016	""	n/a	n/a	n/a	n/a	n/a	n/a	"2020-01-20 13:04:12.913191"	"2020-01-20 13:04:13.618448"	54	5.73445925
"S200120"	"Response_Inhibition"	"RIGHT"	"RIGHT"	707.751199999961	883.3333351	""	n/a	n/a	n/a	n/a	n/a	n/a	"2020-01-20 13:04:14.510321"	"2020-01-20 13:04:15.425921"	55	5.73445925
"S200120"	"Response_Inhibition"	"RIGHT"	"RIGHT"	348.082599999998	1283.3333359	""	n/a	n/a	n/a	n/a	n/a	n/a	"2020-01-20 13:04:16.717590"	"2020-01-20 13:04:17.273756"	56	5.73445925
"S200120"	"Response_Inhibition"	"LEFT"	"LEFT"	763.787800000046	1500.000003	""	n/a	n/a	n/a	n/a	n/a	n/a	"2020-01-20 13:04:18.781900"	"2020-01-20 13:04:19.753878"	57	5.73445925
"S200120"	"Response_Inhibition"	"RIGHT"	"RIGHT"	571.357799999987	1433.3333362	""	n/a	n/a	n/a	n/a	n/a	n/a	"2020-01-20 13:04:21.198248"	"2020-01-20 13:04:21.978910"	58	5.73445925
"S200120"	"Response_Inhibition"	"LEFT"	"LEFT"	856.789300000059	750.0000015	""	n/a	n/a	n/a	n/a	n/a	n/a	"2020-01-20 13:04:22.737085"	"2020-01-20 13:04:23.801038"	59	5.73445925
"S200120"	"Response_Inhibition"	"RIGHT"	"RIGHT"	702.093500000046	950.0000019	""	n/a	n/a	n/a	n/a	n/a	n/a	"2020-01-20 13:04:24.764093"	"2020-01-20 13:04:25.673688"	60	5.73445925
"S200120"	"Response_Inhibition"	"RIGHT"	"RIGHT"	389.147099999946	1266.6666692	""	n/a	n/a	n/a	n/a	n/a	n/a	"2020-01-20 13:04:26.948710"	"2020-01-20 13:04:27.545712"	61	5.73445925
"S200120"	"Response_Inhibition"	"LEFT"	"LEFT"	603.854899999988	1283.3333359	""	n/a	n/a	n/a	n/a	n/a	n/a	"2020-01-20 13:04:28.838438"	"2020-01-20 13:04:29.649499"	62	5.73445925
"S200120"	"Response_Inhibition"	"RIGHT"	"RIGHT"	576.568599999973	583.3333345	""	n/a	n/a	n/a	n/a	n/a	n/a	"2020-01-20 13:04:30.241968"	"2020-01-20 13:04:31.026641"	63	5.73445925
"S200120"	"Response_Inhibition"	"RIGHT"	"Time_Max_Exceeded"	1500.05373380005	750.0000015	""	n/a	n/a	n/a	n/a	n/a	n/a	"2020-01-20 13:04:31.784627"	"2020-01-20 13:04:33.288619"	64	5.73445925
"S200120"	"Response_Inhibition"	"RIGHT"	"RIGHT"	644.127799999978	1116.6666689	""	n/a	n/a	n/a	n/a	n/a	n/a	"2020-01-20 13:04:34.413883"	"2020-01-20 13:04:35.266670"	65	5.73445925
"S200120"	"Response_Inhibition"	"RIGHT"	"RIGHT"	895.764599999893	1383.3333361	""	n/a	n/a	n/a	n/a	n/a	n/a	"2020-01-20 13:04:36.658555"	"2020-01-20 13:04:37.761402"	66	5.73445925
"S200120"	"Response_Inhibition"	"LEFT"	"LEFT"	642.127100000039	533.3333344	""	n/a	n/a	n/a	n/a	n/a	n/a	"2020-01-20 13:04:38.303507"	"2020-01-20 13:04:39.154330"	67	5.73445925
"S200120"	"Response_Inhibition"	"LEFT"	"Time_Max_Exceeded"	1500.05343379993	816.6666683	""	n/a	n/a	n/a	n/a	n/a	n/a	"2020-01-20 13:04:39.979687"	"2020-01-20 13:04:41.483103"	68	5.73445925
"S200120"	"Response_Inhibition"	"LEFT"	"Time_Max_Exceeded"	1500.06543369997	1250.0000025	""	n/a	n/a	n/a	n/a	n/a	n/a	"2020-01-20 13:04:42.742127"	"2020-01-20 13:04:44.246084"	69	5.73445925
"S200120"	"Response_Inhibition"	"RIGHT"	"RIGHT"	548.021400599971	900.0000018	""	n/a	n/a	n/a	n/a	n/a	n/a	"2020-01-20 13:04:45.154765"	"2020-01-20 13:04:45.913491"	70	5.73445925
"S200120"	"Response_Inhibition"	"LEFT"	"Time_Max_Exceeded"	1500.05826680005	1133.3333356	""	n/a	n/a	n/a	n/a	n/a	n/a	"2020-01-20 13:04:47.055110"	"2020-01-20 13:04:48.558321"	71	5.73445925
"S200120"	"Response_Inhibition"	"LEFT"	"LEFT"	705.441499999893	1033.3333354	""	n/a	n/a	n/a	n/a	n/a	n/a	"2020-01-20 13:04:49.600791"	"2020-01-20 13:04:50.513444"	72	5.73445925
"S200120"	"Response_Inhibition"	"RIGHT"	"Time_Max_Exceeded"	1500.0485004	683.3333347	""	n/a	n/a	n/a	n/a	n/a	n/a	"2020-01-20 13:04:51.205461"	"2020-01-20 13:04:52.708095"	73	5.73445925
"S200120"	"Response_Inhibition"	"RIGHT"	"RIGHT"	728.300900000022	900.0000018	""	n/a	n/a	n/a	n/a	n/a	n/a	"2020-01-20 13:04:53.617943"	"2020-01-20 13:04:54.553338"	74	5.73445925
"S200120"	"Response_Inhibition"	"LEFT"	"LEFT"	973.576499999922	1066.6666688	""	n/a	n/a	n/a	n/a	n/a	n/a	"2020-01-20 13:04:55.628290"	"2020-01-20 13:04:56.810335"	75	5.73445925
"S200120"	"Response_Inhibition"	"LEFT"	"Time_Max_Exceeded"	1500.0580336999	733.3333348	""	n/a	n/a	n/a	n/a	n/a	n/a	"2020-01-20 13:04:57.553905"	"2020-01-20 13:04:59.056967"	76	5.73445925
"S200120"	"Response_Inhibition"	"LEFT"	"LEFT"	858.615399999962	1116.6666689	""	n/a	n/a	n/a	n/a	n/a	n/a	"2020-01-20 13:05:00.183233"	"2020-01-20 13:05:01.250735"	77	5.73445925
"S200120"	"Response_Inhibition"	"RIGHT"	"Time_Max_Exceeded"	1500.06110050004	1483.3333363	""	n/a	n/a	n/a	n/a	n/a	n/a	"2020-01-20 13:05:02.742969"	"2020-01-20 13:05:04.246382"	78	5.73445925
"S200120"	"Response_Inhibition"	"RIGHT"	"RIGHT"	738.351200000011	1016.6666687	""	n/a	n/a	n/a	n/a	n/a	n/a	"2020-01-20 13:05:05.272173"	"2020-01-20 13:05:06.217006"	79	5.73445925
"S200120"	"Response_Inhibition"	"RIGHT"	"RIGHT"	952.504799999929	1200.0000024	""	n/a	n/a	n/a	n/a	n/a	n/a	"2020-01-20 13:05:07.425436"	"2020-01-20 13:05:08.586146"	80	5.73445925
"S200120"	"Response_Inhibition"	"RIGHT"	"RIGHT"	750.535099999979	1216.6666691	""	n/a	n/a	n/a	n/a	n/a	n/a	"2020-01-20 13:05:09.811722"	"2020-01-20 13:05:10.770651"	81	5.73445925
"S200120"	"Response_Inhibition"	"RIGHT"	"RIGHT"	466.337399999929	1316.6666693	""	n/a	n/a	n/a	n/a	n/a	n/a	"2020-01-20 13:05:12.095741"	"2020-01-20 13:05:12.770600"	82	5.73445925
"S200120"	"Response_Inhibition"	"RIGHT"	"RIGHT"	426.006833900001	850.0000017	""	n/a	n/a	n/a	n/a	n/a	n/a	"2020-01-20 13:05:13.628761"	"2020-01-20 13:05:14.267611"	83	5.73445925
"S200120"	"Response_Inhibition"	"RIGHT"	"RIGHT"	678.1972	1400.0000028	"RIGHT"	-1325.83	n/a	n/a	n/a	n/a	n/a	"2020-01-20 13:05:15.675800"	"2020-01-20 13:05:16.561587"	84	5.73445925
"S200120"	"Response_Inhibition"	"LEFT"	"LEFT"	888.661200000001	783.3333349	""	n/a	n/a	n/a	n/a	n/a	n/a	"2020-01-20 13:05:17.353529"	"2020-01-20 13:05:18.449732"	85	5.73445925
"S200120"	"Response_Inhibition"	"RIGHT"	"RIGHT"	389.822999999978	1050.0000021	""	n/a	n/a	n/a	n/a	n/a	n/a	"2020-01-20 13:05:19.508126"	"2020-01-20 13:05:20.106117"	86	5.73445925
"S200120"	"Response_Inhibition"	"LEFT"	"LEFT"	763.895899999966	1266.6666692	""	n/a	n/a	n/a	n/a	n/a	n/a	"2020-01-20 13:05:21.381975"	"2020-01-20 13:05:22.353398"	87	5.73445925
"S200120"	"Response_Inhibition"	"RIGHT"	"RIGHT"	748.447100000021	1500.000003	""	n/a	n/a	n/a	n/a	n/a	n/a	"2020-01-20 13:05:23.861726"	"2020-01-20 13:05:24.818585"	88	5.73445925
"S200120"	"Response_Inhibition"	"RIGHT"	"RIGHT"	357.353900000021	1233.3333358	""	n/a	n/a	n/a	n/a	n/a	n/a	"2020-01-20 13:05:26.060806"	"2020-01-20 13:05:26.625094"	89	5.73445925
"S200120"	"Response_Inhibition"	"LEFT"	"Time_Max_Exceeded"	1500.05786679996	950.0000019	""	n/a	n/a	n/a	n/a	n/a	n/a	"2020-01-20 13:05:27.583144"	"2020-01-20 13:05:29.087048"	90	5.73445925
"S200120"	"Response_Inhibition"	"RIGHT"	"RIGHT"	820.953800000098	1333.333336	""	n/a	n/a	n/a	n/a	n/a	n/a	"2020-01-20 13:05:30.429354"	"2020-01-20 13:05:31.458960"	91	5.73445925
"S200120"	"Response_Inhibition"	"RIGHT"	"RIGHT"	573.290499999985	833.333335	""	n/a	n/a	n/a	n/a	n/a	n/a	"2020-01-20 13:05:32.300424"	"2020-01-20 13:05:33.081912"	92	5.73445925
"S200120"	"Response_Inhibition"	"RIGHT"	"RIGHT"	714.304900000002	933.3333352	""	n/a	n/a	n/a	n/a	n/a	n/a	"2020-01-20 13:05:34.024255"	"2020-01-20 13:05:34.945790"	93	5.73445925
"S200120"	"Response_Inhibition"	"LEFT"	"LEFT"	565.675300000066	850.0000017	""	n/a	n/a	n/a	n/a	n/a	n/a	"2020-01-20 13:05:35.804088"	"2020-01-20 13:05:36.578372"	94	5.73445925
"S200120"	"Response_Inhibition"	"LEFT"	"LEFT"	480.027133800003	1100.0000022	""	n/a	n/a	n/a	n/a	n/a	n/a	"2020-01-20 13:05:37.686621"	"2020-01-20 13:05:38.378761"	95	5.73445925
"S200120"	"Response_Inhibition"	"RIGHT"	"Time_Max_Exceeded"	1500.04660039997	1266.6666692	""	n/a	n/a	n/a	n/a	n/a	n/a	"2020-01-20 13:05:39.654016"	"2020-01-20 13:05:41.156780"	96	5.73445925
"S200120"	"Response_Inhibition"	"RIGHT"	"Time_Max_Exceeded"	1500.04700049999	1133.3333356	""	n/a	n/a	n/a	n/a	n/a	n/a	"2020-01-20 13:05:42.299315"	"2020-01-20 13:05:43.802358"	97	5.73445925
"S200120"	"Response_Inhibition"	"LEFT"	"Time_Max_Exceeded"	1500.05263369993	1416.6666695	""	n/a	n/a	n/a	n/a	n/a	n/a	"2020-01-20 13:05:45.228812"	"2020-01-20 13:05:46.731928"	98	5.73445925
"S200120"	"Response_Inhibition"	"RIGHT"	"RIGHT"	710.238499999946	566.6666678	""	n/a	n/a	n/a	n/a	n/a	n/a	"2020-01-20 13:05:47.308025"	"2020-01-20 13:05:48.226561"	99	5.73445925
"S200120"	"Response_Inhibition"	"RIGHT"	"RIGHT"	532.812400000012	1450.0000029	""	n/a	n/a	n/a	n/a	n/a	n/a	"2020-01-20 13:05:49.685448"	"2020-01-20 13:05:50.426467"	100	5.73445925
"S200120"	"Response_Inhibition"	"RIGHT"	"Time_Max_Exceeded"	1500.05749999991	783.3333349	""	n/a	n/a	n/a	n/a	n/a	n/a	"2020-01-20 13:05:51.218068"	"2020-01-20 13:05:52.717989"	101	5.73445925
"S200120"	"Response_Inhibition"	"RIGHT"	"Time_Max_Exceeded"	1500.05443350002	1066.6666688	""	n/a	n/a	n/a	n/a	n/a	n/a	"2020-01-20 13:05:53.793693"	"2020-01-20 13:05:55.297332"	102	5.73445925
"S200120"	"Response_Inhibition"	"LEFT"	"Time_Max_Exceeded"	1500.0583003	900.0000018	""	n/a	n/a	n/a	n/a	n/a	n/a	"2020-01-20 13:05:56.207273"	"2020-01-20 13:05:57.710000"	103	5.73445925
"S200120"	"Response_Inhibition"	"RIGHT"	"RIGHT"	886.520300000029	500.000001	""	n/a	n/a	n/a	n/a	n/a	n/a	"2020-01-20 13:05:58.219626"	"2020-01-20 13:05:59.313835"	104	5.73445925
"S200120"	"Response_Inhibition"	"LEFT"	"Time_Max_Exceeded"	1500.05183359993	1300.0000026	""	n/a	n/a	n/a	n/a	n/a	n/a	"2020-01-20 13:06:00.622970"	"2020-01-20 13:06:02.125809"	105	5.73445925
"S200120"	"Response_Inhibition"	"LEFT"	"LEFT"	623.623300000077	1100.0000022	""	n/a	n/a	n/a	n/a	n/a	n/a	"2020-01-20 13:06:03.235303"	"2020-01-20 13:06:04.066786"	106	5.73445925
"S200120"	"Response_Inhibition"	"LEFT"	"LEFT"	499.115500000016	900.0000018	""	n/a	n/a	n/a	n/a	n/a	n/a	"2020-01-20 13:06:04.975350"	"2020-01-20 13:06:05.682086"	107	5.73445925
"S200120"	"Response_Inhibition"	"RIGHT"	"RIGHT"	633.915000000002	733.3333348	""	n/a	n/a	n/a	n/a	n/a	n/a	"2020-01-20 13:06:06.424416"	"2020-01-20 13:06:07.265619"	108	5.73445925
"S200120"	"Response_Inhibition"	"LEFT"	"LEFT"	491.454367199979	1433.3333362	""	n/a	n/a	n/a	n/a	n/a	n/a	"2020-01-20 13:06:08.707386"	"2020-01-20 13:06:09.410208"	109	5.73445925
"S200120"	"Response_Inhibition"	"LEFT"	"LEFT"	390.890399999989	1216.6666691	""	n/a	n/a	n/a	n/a	n/a	n/a	"2020-01-20 13:06:10.635049"	"2020-01-20 13:06:11.234795"	110	5.73445925
"S200120"	"Response_Inhibition"	"RIGHT"	"RIGHT"	792.8212999999	950.0000019	""	n/a	n/a	n/a	n/a	n/a	n/a	"2020-01-20 13:06:12.192915"	"2020-01-20 13:06:13.193908"	111	5.73445925
"S200120"	"Response_Inhibition"	"LEFT"	"Time_Max_Exceeded"	1500.0487339	733.3333348	""	n/a	n/a	n/a	n/a	n/a	n/a	"2020-01-20 13:06:13.935441"	"2020-01-20 13:06:15.439010"	112	5.73445925
"S200120"	"Response_Inhibition"	"RIGHT"	"Time_Max_Exceeded"	1500.0507003	1150.0000023	""	n/a	n/a	n/a	n/a	n/a	n/a	"2020-01-20 13:06:16.599174"	"2020-01-20 13:06:18.101952"	113	5.73445925
"S200120"	"Response_Inhibition"	"LEFT"	"LEFT"	700.22270000004	1366.6666694	""	n/a	n/a	n/a	n/a	n/a	n/a	"2020-01-20 13:06:19.477894"	"2020-01-20 13:06:20.386289"	114	5.73445925
"S200120"	"Response_Inhibition"	"RIGHT"	"RIGHT"	797.16929999995	866.6666684	""	n/a	n/a	n/a	n/a	n/a	n/a	"2020-01-20 13:06:21.261196"	"2020-01-20 13:06:22.266539"	115	5.73445925
"S200120"	"Response_Inhibition"	"LEFT"	"LEFT"	822.342400000025	1200.0000024	""	n/a	n/a	n/a	n/a	n/a	n/a	"2020-01-20 13:06:23.475508"	"2020-01-20 13:06:24.505243"	116	5.73445925
"S200120"	"Response_Inhibition"	"LEFT"	"LEFT"	648.637500000063	566.6666678	""	n/a	n/a	n/a	n/a	n/a	n/a	"2020-01-20 13:06:25.081745"	"2020-01-20 13:06:25.938426"	117	5.73445925
"S200120"	"Response_Inhibition"	"RIGHT"	"RIGHT"	359.035899999981	800.0000016	""	n/a	n/a	n/a	n/a	n/a	n/a	"2020-01-20 13:06:26.747548"	"2020-01-20 13:06:27.313403"	118	5.73445925
"S200120"	"Response_Inhibition"	"LEFT"	"LEFT"	621.478599999932	1266.6666692	""	n/a	n/a	n/a	n/a	n/a	n/a	"2020-01-20 13:06:28.588489"	"2020-01-20 13:06:29.417962"	119	5.73445925
"S200120"	"Response_Inhibition"	"RIGHT"	"RIGHT"	562.994000000003	716.6666681	""	n/a	n/a	n/a	n/a	n/a	n/a	"2020-01-20 13:06:30.142815"	"2020-01-20 13:06:30.914126"	120	5.73445925
"S200120"	"Response_Inhibition"	"LEFT"	"LEFT"	541.240499999958	1466.6666696	""	n/a	n/a	n/a	n/a	n/a	n/a	"2020-01-20 13:06:32.389105"	"2020-01-20 13:06:33.138778"	121	5.73445925
"S200120"	"Response_Inhibition"	"RIGHT"	"RIGHT"	412.081933599972	983.3333353	""	n/a	n/a	n/a	n/a	n/a	n/a	"2020-01-20 13:06:34.130499"	"2020-01-20 13:06:34.753221"	122	5.73445925
"S200120"	"Response_Inhibition"	"LEFT"	"Time_Max_Exceeded"	1500.05393340003	1216.6666691	""	n/a	n/a	n/a	n/a	n/a	n/a	"2020-01-20 13:06:35.977962"	"2020-01-20 13:06:37.481681"	123	5.73445925
"S200120"	"Response_Inhibition"	"LEFT"	"LEFT"	751.954399999931	1000.000002	""	n/a	n/a	n/a	n/a	n/a	n/a	"2020-01-20 13:06:38.490657"	"2020-01-20 13:06:39.450978"	124	5.73445925
"S200120"	"Response_Inhibition"	"LEFT"	"LEFT"	705.239600000027	1333.333336	""	n/a	n/a	n/a	n/a	n/a	n/a	"2020-01-20 13:06:40.792799"	"2020-01-20 13:06:41.706988"	125	5.73445925
"S200120"	"Response_Inhibition"	"RIGHT"	"Time_Max_Exceeded"	1500.05213339997	916.6666685	""	n/a	n/a	n/a	n/a	n/a	n/a	"2020-01-20 13:06:42.632231"	"2020-01-20 13:06:44.136027"	126	5.73445925
"S200120"	"Response_Inhibition"	"LEFT"	"LEFT"	652.214100000037	500.000001	""	n/a	n/a	n/a	n/a	n/a	n/a	"2020-01-20 13:06:44.645702"	"2020-01-20 13:06:45.506915"	127	5.73445925
"S200120"	"Response_Inhibition"	"LEFT"	"LEFT"	399.002267099988	1316.6666693	""	n/a	n/a	n/a	n/a	n/a	n/a	"2020-01-20 13:06:46.831617"	"2020-01-20 13:06:47.440999"	128	5.73445925
"S200120"	"Response_Inhibition"	"RIGHT"	"Time_Max_Exceeded"	1500.05160009994	1366.6666694	""	n/a	n/a	n/a	n/a	n/a	n/a	"2020-01-20 13:06:48.816697"	"2020-01-20 13:06:50.319395"	129	5.73445925
"S200120"	"Response_Inhibition"	"RIGHT"	"RIGHT"	778.765700000008	1166.666669	""	n/a	n/a	n/a	n/a	n/a	n/a	"2020-01-20 13:06:51.495583"	"2020-01-20 13:06:52.482511"	130	5.73445925
"S200120"	"Response_Inhibition"	"LEFT"	"LEFT"	475.548300000014	1083.3333355	""	n/a	n/a	n/a	n/a	n/a	n/a	"2020-01-20 13:06:53.574791"	"2020-01-20 13:06:54.257955"	131	5.73445925
"S200120"	"Response_Inhibition"	"RIGHT"	"RIGHT"	415.025999999898	766.6666682	""	n/a	n/a	n/a	n/a	n/a	n/a	"2020-01-20 13:06:55.035054"	"2020-01-20 13:06:55.658686"	132	5.73445925
"S200120"	"Response_Inhibition"	"LEFT"	"LEFT"	416.553000000022	966.6666686	""	n/a	n/a	n/a	n/a	n/a	n/a	"2020-01-20 13:06:56.633812"	"2020-01-20 13:06:57.257886"	133	5.73445925
"S200120"	"Response_Inhibition"	"LEFT"	"LEFT"	635.072100000002	916.6666685	""	n/a	n/a	n/a	n/a	n/a	n/a	"2020-01-20 13:06:58.182555"	"2020-01-20 13:06:59.025666"	134	5.73445925
"S200120"	"Response_Inhibition"	"LEFT"	"Time_Max_Exceeded"	1500.05523350008	1000.000002	""	n/a	n/a	n/a	n/a	n/a	n/a	"2020-01-20 13:07:00.034523"	"2020-01-20 13:07:01.538061"	135	5.73445925
"S200120"	"Response_Inhibition"	"LEFT"	"LEFT"	540.952299999958	850.0000017	""	n/a	n/a	n/a	n/a	n/a	n/a	"2020-01-20 13:07:02.397424"	"2020-01-20 13:07:03.146092"	136	5.73445925
"S200120"	"Response_Inhibition"	"LEFT"	"LEFT"	529.152199999999	1366.6666694	""	n/a	n/a	n/a	n/a	n/a	n/a	"2020-01-20 13:07:04.520725"	"2020-01-20 13:07:05.257423"	137	5.73445925
"S200120"	"Response_Inhibition"	"RIGHT"	"RIGHT"	396.383200200037	616.6666679	""	n/a	n/a	n/a	n/a	n/a	n/a	"2020-01-20 13:07:05.882841"	"2020-01-20 13:07:06.490117"	138	5.73445925
"S200120"	"Response_Inhibition"	"LEFT"	"LEFT"	325.062900000034	1450.0000029	""	n/a	n/a	n/a	n/a	n/a	n/a	"2020-01-20 13:07:07.948884"	"2020-01-20 13:07:08.482771"	139	5.73445925
"S200120"	"Response_Inhibition"	"RIGHT"	"RIGHT"	731.364399999961	683.3333347	""	n/a	n/a	n/a	n/a	n/a	n/a	"2020-01-20 13:07:09.174477"	"2020-01-20 13:07:10.114055"	140	5.73445925
"S200120"	"Response_Inhibition"	"RIGHT"	"RIGHT"	740.813300000013	650.0000013	""	n/a	n/a	n/a	n/a	n/a	n/a	"2020-01-20 13:07:10.773856"	"2020-01-20 13:07:11.721711"	141	5.73445925
"S200120"	"Response_Inhibition"	"RIGHT"	"RIGHT"	552.460300000007	583.3333345	""	n/a	n/a	n/a	n/a	n/a	n/a	"2020-01-20 13:07:12.314114"	"2020-01-20 13:07:13.073297"	142	5.73445925
"S200120"	"Response_Inhibition"	"RIGHT"	"RIGHT"	849.819600000046	1350.0000027	""	n/a	n/a	n/a	n/a	n/a	n/a	"2020-01-20 13:07:14.432204"	"2020-01-20 13:07:15.490063"	143	5.73445925
"S200120"	"Response_Inhibition"	"LEFT"	"LEFT"	753.306899999984	933.3333352	""	n/a	n/a	n/a	n/a	n/a	n/a	"2020-01-20 13:07:16.432711"	"2020-01-20 13:07:17.394474"	144	5.73445925
"S200120"	"Response_Inhibition"	"RIGHT"	"Time_Max_Exceeded"	1500.05256690001	1250.0000025	""	n/a	n/a	n/a	n/a	n/a	n/a	"2020-01-20 13:07:18.653181"	"2020-01-20 13:07:20.156554"	145	5.73445925
"S200120"	"Response_Inhibition"	"RIGHT"	"Time_Max_Exceeded"	1500.04760019999	816.6666683	""	n/a	n/a	n/a	n/a	n/a	n/a	"2020-01-20 13:07:20.981571"	"2020-01-20 13:07:22.485110"	146	5.73445925
"S200120"	"Response_Inhibition"	"RIGHT"	"RIGHT"	932.620799999995	783.3333349	""	n/a	n/a	n/a	n/a	n/a	n/a	"2020-01-20 13:07:23.277648"	"2020-01-20 13:07:24.418017"	147	5.73445925
"S200120"	"Response_Inhibition"	"LEFT"	"LEFT"	659.220000000005	700.0000014	""	n/a	n/a	n/a	n/a	n/a	n/a	"2020-01-20 13:07:25.127131"	"2020-01-20 13:07:25.994616"	148	5.73445925
"S200120"	"Response_Inhibition"	"RIGHT"	"RIGHT"	609.707599999979	733.3333348	""	n/a	n/a	n/a	n/a	n/a	n/a	"2020-01-20 13:07:26.736223"	"2020-01-20 13:07:27.554740"	149	5.73445925
"S200120"	"Response_Inhibition"	"RIGHT"	"Time_Max_Exceeded"	1500.05856689999	1466.6666696	""	n/a	n/a	n/a	n/a	n/a	n/a	"2020-01-20 13:07:29.030483"	"2020-01-20 13:07:30.533489"	150	5.73445925
"S200120"	"Response_Inhibition"	"RIGHT"	"Time_Max_Exceeded"	1500.05643350001	533.3333344	""	n/a	n/a	n/a	n/a	n/a	n/a	"2020-01-20 13:07:31.076042"	"2020-01-20 13:07:32.579717"	151	5.73445925
"S200120"	"Response_Inhibition"	"LEFT"	"LEFT"	774.646800000028	583.3333345	""	n/a	n/a	n/a	n/a	n/a	n/a	"2020-01-20 13:07:33.171881"	"2020-01-20 13:07:34.153028"	152	5.73445925
"S200120"	"Response_Inhibition"	"LEFT"	"LEFT"	337.330500000007	1183.3333357	""	n/a	n/a	n/a	n/a	n/a	n/a	"2020-01-20 13:07:35.344339"	"2020-01-20 13:07:35.890877"	153	5.73445925
"S200120"	"Response_Inhibition"	"LEFT"	"LEFT"	569.156799999973	950.0000019	""	n/a	n/a	n/a	n/a	n/a	n/a	"2020-01-20 13:07:36.848843"	"2020-01-20 13:07:37.626246"	154	5.73445925
"S200120"	"Response_Inhibition"	"RIGHT"	"Time_Max_Exceeded"	1500.05446670006	1033.3333354	""	n/a	n/a	n/a	n/a	n/a	n/a	"2020-01-20 13:07:38.668996"	"2020-01-20 13:07:40.173468"	155	5.73445925
"S200120"	"Response_Inhibition"	"LEFT"	"Time_Max_Exceeded"	1500.04526709999	1466.6666696	""	n/a	n/a	n/a	n/a	n/a	n/a	"2020-01-20 13:07:41.649469"	"2020-01-20 13:07:43.152595"	156	5.73445925
"S200120"	"Response_Inhibition"	"RIGHT"	"RIGHT"	774.041600000032	1050.0000021	""	n/a	n/a	n/a	n/a	n/a	n/a	"2020-01-20 13:07:44.212524"	"2020-01-20 13:07:45.194836"	157	5.73445925
"S200120"	"Response_Inhibition"	"LEFT"	"Time_Max_Exceeded"	1500.05486670004	1166.666669	""	n/a	n/a	n/a	n/a	n/a	n/a	"2020-01-20 13:07:46.370739"	"2020-01-20 13:07:47.874124"	158	5.73445925
"S200120"	"Response_Inhibition"	"LEFT"	"Time_Max_Exceeded"	1500.05900060001	866.6666684	""	n/a	n/a	n/a	n/a	n/a	n/a	"2020-01-20 13:07:48.749872"	"2020-01-20 13:07:50.252473"	159	5.73445925
"S200120"	"Response_Inhibition"	"RIGHT"	"Time_Max_Exceeded"	1500.05366700002	1366.6666694	""	n/a	n/a	n/a	n/a	n/a	n/a	"2020-01-20 13:07:51.628163"	"2020-01-20 13:07:53.132106"	160	5.73445925
"S200120"	"Response_Selection"	"LEFT"	"LEFT"	353.117099999963	733.3333348	n/a	n/a	n/a	n/a	n/a	n/a	n/a	"2020-01-20 13:00:06.200534"	"2020-01-20 13:00:06.761758"	1	2.61087566666667
"S200120"	"Response_Selection"	"LEFT"	"LEFT"	486.785900000029	1016.6666687	n/a	n/a	n/a	n/a	n/a	n/a	n/a	"2020-01-20 13:00:07.786795"	"2020-01-20 13:00:08.481545"	2	2.61087566666667
"S200120"	"Response_Selection"	"RIGHT"	"RIGHT"	307.76259999999	700.0000014	n/a	n/a	n/a	n/a	n/a	n/a	n/a	"2020-01-20 13:00:09.189635"	"2020-01-20 13:00:09.705918"	3	2.61087566666667
"S200120"	"Response_Selection"	"LEFT"	"LEFT"	325.897299999951	983.3333353	n/a	n/a	n/a	n/a	n/a	n/a	n/a	"2020-01-20 13:00:10.699589"	"2020-01-20 13:00:11.233552"	4	2.61087566666667
"S200120"	"Response_Selection"	"RIGHT"	"RIGHT"	252.068599999973	683.3333347	n/a	n/a	n/a	n/a	n/a	n/a	n/a	"2020-01-20 13:00:11.925287"	"2020-01-20 13:00:12.386784"	5	2.61087566666667
"S200120"	"Response_Selection"	"RIGHT"	"RIGHT"	335.757999999998	1366.6666694	n/a	n/a	n/a	n/a	n/a	n/a	n/a	"2020-01-20 13:00:13.761572"	"2020-01-20 13:00:14.305597"	6	2.61087566666667
"S200120"	"Response_Selection"	"RIGHT"	"RIGHT"	296.875999999997	1166.666669	n/a	n/a	n/a	n/a	n/a	n/a	n/a	"2020-01-20 13:00:15.480652"	"2020-01-20 13:00:15.985758"	7	2.61087566666667
"S200120"	"Response_Selection"	"RIGHT"	"RIGHT"	270.05029999998	1033.3333354	n/a	n/a	n/a	n/a	n/a	n/a	n/a	"2020-01-20 13:00:17.027223"	"2020-01-20 13:00:17.505492"	8	2.61087566666667
"S200120"	"Response_Selection"	"LEFT"	"LEFT"	342.121899999995	1450.0000029	n/a	n/a	n/a	n/a	n/a	n/a	n/a	"2020-01-20 13:00:18.963921"	"2020-01-20 13:00:19.514889"	9	2.61087566666667
"S200120"	"Response_Selection"	"RIGHT"	"RIGHT"	265.715300000011	1316.6666693	n/a	n/a	n/a	n/a	n/a	n/a	n/a	"2020-01-20 13:00:20.840355"	"2020-01-20 13:00:21.313715"	10	2.61087566666667
"S200120"	"Response_Selection"	"LEFT"	"LEFT"	306.63450000003	1116.6666689	n/a	n/a	n/a	n/a	n/a	n/a	n/a	"2020-01-20 13:00:22.439269"	"2020-01-20 13:00:22.953509"	11	2.61087566666667
"S200120"	"Response_Selection"	"LEFT"	"LEFT"	349.312600000019	1066.6666688	n/a	n/a	n/a	n/a	n/a	n/a	n/a	"2020-01-20 13:00:24.028710"	"2020-01-20 13:00:24.585862"	12	2.61087566666667
"S200120"	"Response_Selection"	"LEFT"	"LEFT"	309.264999999982	1466.6666696	n/a	n/a	n/a	n/a	n/a	n/a	n/a	"2020-01-20 13:00:26.060645"	"2020-01-20 13:00:26.578208"	13	2.61087566666667
"S200120"	"Response_Selection"	"RIGHT"	"RIGHT"	263.170299999956	1200.0000024	n/a	n/a	n/a	n/a	n/a	n/a	n/a	"2020-01-20 13:00:27.786696"	"2020-01-20 13:00:28.257803"	14	2.61087566666667
"S200120"	"Response_Selection"	"LEFT"	"LEFT"	298.554899999999	916.6666685	n/a	n/a	n/a	n/a	n/a	n/a	n/a	"2020-01-20 13:00:29.183141"	"2020-01-20 13:00:29.689941"	15	2.61087566666667
"S200120"	"Response_Selection"	"LEFT"	"LEFT"	420.633500000008	866.6666684	n/a	n/a	n/a	n/a	n/a	n/a	n/a	"2020-01-20 13:00:30.565383"	"2020-01-20 13:00:31.193616"	16	2.61087566666667
"S200120"	"Response_Selection"	"RIGHT"	"RIGHT"	284.937400000047	1266.6666692	n/a	n/a	n/a	n/a	n/a	n/a	n/a	"2020-01-20 13:00:32.469084"	"2020-01-20 13:00:32.961746"	17	2.61087566666667
"S200120"	"Response_Selection"	"LEFT"	"LEFT"	273.820600000022	1350.0000027	n/a	n/a	n/a	n/a	n/a	n/a	n/a	"2020-01-20 13:00:34.320177"	"2020-01-20 13:00:34.801252"	18	2.61087566666667
"S200120"	"Response_Selection"	"LEFT"	"LEFT"	311.067600000001	1416.6666695	n/a	n/a	n/a	n/a	n/a	n/a	n/a	"2020-01-20 13:00:36.227266"	"2020-01-20 13:00:36.746536"	19	2.61087566666667
"S200120"	"Response_Selection"	"RIGHT"	"RIGHT"	261.909100000025	1416.6666695	n/a	n/a	n/a	n/a	n/a	n/a	n/a	"2020-01-20 13:00:38.171181"	"2020-01-20 13:00:38.641922"	20	2.61087566666667
"S200120"	"Response_Selection"	"RIGHT"	"RIGHT"	299.156400000015	1500.000003	n/a	n/a	n/a	n/a	n/a	n/a	n/a	"2020-01-20 13:00:40.150771"	"2020-01-20 13:00:40.657928"	21	2.61087566666667
"S200120"	"Response_Selection"	"RIGHT"	"RIGHT"	320.187200000021	783.3333349	n/a	n/a	n/a	n/a	n/a	n/a	n/a	"2020-01-20 13:00:41.449698"	"2020-01-20 13:00:41.977382"	22	2.61087566666667
"S200120"	"Response_Selection"	"RIGHT"	"RIGHT"	268.015700000035	1300.0000026	n/a	n/a	n/a	n/a	n/a	n/a	n/a	"2020-01-20 13:00:43.285752"	"2020-01-20 13:00:43.761706"	23	2.61087566666667
"S200120"	"Response_Selection"	"LEFT"	"LEFT"	309.763999999973	1033.3333354	n/a	n/a	n/a	n/a	n/a	n/a	n/a	"2020-01-20 13:00:44.804108"	"2020-01-20 13:00:45.321019"	24	2.61087566666667
"S200120"	"Response_Selection"	"RIGHT"	"RIGHT"	232.549199999994	983.3333353	n/a	n/a	n/a	n/a	n/a	n/a	n/a	"2020-01-20 13:00:46.313432"	"2020-01-20 13:00:46.753645"	25	2.61087566666667
"S200120"	"Response_Selection"	"RIGHT"	"RIGHT"	321.992999999964	733.3333348	n/a	n/a	n/a	n/a	n/a	n/a	n/a	"2020-01-20 13:00:47.495269"	"2020-01-20 13:00:48.025287"	26	2.61087566666667
"S200120"	"Response_Selection"	"RIGHT"	"LEFT"	288.026200000047	800.0000016	n/a	n/a	n/a	n/a	n/a	n/a	n/a	"2020-01-20 13:00:48.833688"	"2020-01-20 13:00:49.329724"	27	2.61087566666667
"S200120"	"Response_Selection"	"RIGHT"	"RIGHT"	292.591099999981	1466.6666696	n/a	n/a	n/a	n/a	n/a	n/a	n/a	"2020-01-20 13:00:50.805227"	"2020-01-20 13:00:51.306702"	28	2.61087566666667
"S200120"	"Response_Selection"	"RIGHT"	"RIGHT"	505.854800000009	500.000001	n/a	n/a	n/a	n/a	n/a	n/a	n/a	"2020-01-20 13:00:51.816009"	"2020-01-20 13:00:52.528985"	29	2.61087566666667
"S200120"	"Response_Selection"	"RIGHT"	"RIGHT"	318.036199999995	1450.0000029	n/a	n/a	n/a	n/a	n/a	n/a	n/a	"2020-01-20 13:00:53.987690"	"2020-01-20 13:00:54.514328"	30	2.61087566666667
"S200120"	"Response_Selection"	"LEFT"	"LEFT"	434.904700000004	1500.000003	n/a	n/a	n/a	n/a	n/a	n/a	n/a	"2020-01-20 13:00:56.022750"	"2020-01-20 13:00:56.665558"	31	2.61087566666667
"S200120"	"Response_Selection"	"LEFT"	"LEFT"	325.639500000023	650.0000013	n/a	n/a	n/a	n/a	n/a	n/a	n/a	"2020-01-20 13:00:57.323923"	"2020-01-20 13:00:57.857811"	32	2.61087566666667
"S200120"	"Response_Selection"	"LEFT"	"LEFT"	457.88349999998	933.3333352	n/a	n/a	n/a	n/a	n/a	n/a	n/a	"2020-01-20 13:00:58.799465"	"2020-01-20 13:00:59.465015"	33	2.61087566666667
"S200120"	"Response_Selection"	"LEFT"	"LEFT"	328.741699999966	783.3333349	n/a	n/a	n/a	n/a	n/a	n/a	n/a	"2020-01-20 13:01:00.257364"	"2020-01-20 13:01:00.793840"	34	2.61087566666667
"S200120"	"Response_Selection"	"LEFT"	"LEFT"	302.164199999993	833.333335	n/a	n/a	n/a	n/a	n/a	n/a	n/a	"2020-01-20 13:01:01.635579"	"2020-01-20 13:01:02.145589"	35	2.61087566666667
"S200120"	"Response_Selection"	"LEFT"	"LEFT"	332.104099999981	883.3333351	n/a	n/a	n/a	n/a	n/a	n/a	n/a	"2020-01-20 13:01:03.037736"	"2020-01-20 13:01:03.578062"	36	2.61087566666667
"S200120"	"Response_Selection"	"RIGHT"	"RIGHT"	340.834700000016	650.0000013	n/a	n/a	n/a	n/a	n/a	n/a	n/a	"2020-01-20 13:01:04.236864"	"2020-01-20 13:01:04.785355"	37	2.61087566666667
"S200120"	"Response_Selection"	"RIGHT"	"RIGHT"	298.558200000002	1133.3333356	n/a	n/a	n/a	n/a	n/a	n/a	n/a	"2020-01-20 13:01:05.927027"	"2020-01-20 13:01:06.433954"	38	2.61087566666667
"S200120"	"Response_Selection"	"RIGHT"	"RIGHT"	572.602599999982	866.6666684	n/a	n/a	n/a	n/a	n/a	n/a	n/a	"2020-01-20 13:01:07.309728"	"2020-01-20 13:01:08.090623"	39	2.61087566666667
"S200120"	"Response_Selection"	"RIGHT"	"RIGHT"	268.590700000004	833.333335	n/a	n/a	n/a	n/a	n/a	n/a	n/a	"2020-01-20 13:01:08.933038"	"2020-01-20 13:01:09.409690"	40	2.61087566666667
"S200120"	"Response_Selection"	"RIGHT"	"RIGHT"	312.74140000005	583.3333345	n/a	n/a	n/a	n/a	n/a	n/a	n/a	"2020-01-20 13:01:10.001064"	"2020-01-20 13:01:10.522488"	41	2.61087566666667
"S200120"	"Response_Selection"	"LEFT"	"LEFT"	311.576699999989	1166.666669	n/a	n/a	n/a	n/a	n/a	n/a	n/a	"2020-01-20 13:01:11.697935"	"2020-01-20 13:01:12.217697"	42	2.61087566666667
"S200120"	"Response_Selection"	"LEFT"	"LEFT"	283.646799999985	683.3333347	n/a	n/a	n/a	n/a	n/a	n/a	n/a	"2020-01-20 13:01:12.909969"	"2020-01-20 13:01:13.400980"	43	2.61087566666667
"S200120"	"Response_Selection"	"RIGHT"	"RIGHT"	311.067499999979	1016.6666687	n/a	n/a	n/a	n/a	n/a	n/a	n/a	"2020-01-20 13:01:14.426254"	"2020-01-20 13:01:14.946563"	44	2.61087566666667
"S200120"	"Response_Selection"	"RIGHT"	"RIGHT"	308.771799999988	1250.0000025	n/a	n/a	n/a	n/a	n/a	n/a	n/a	"2020-01-20 13:01:16.204749"	"2020-01-20 13:01:16.721545"	45	2.61087566666667
"S200120"	"Response_Selection"	"RIGHT"	"RIGHT"	299.499000000026	883.3333351	n/a	n/a	n/a	n/a	n/a	n/a	n/a	"2020-01-20 13:01:17.614134"	"2020-01-20 13:01:18.122076"	46	2.61087566666667
"S200120"	"Response_Selection"	"RIGHT"	"RIGHT"	281.19989999999	750.0000015	n/a	n/a	n/a	n/a	n/a	n/a	n/a	"2020-01-20 13:01:18.880292"	"2020-01-20 13:01:19.369750"	47	2.61087566666667
"S200120"	"Response_Selection"	"RIGHT"	"RIGHT"	248.981800000024	966.6666686	n/a	n/a	n/a	n/a	n/a	n/a	n/a	"2020-01-20 13:01:20.345221"	"2020-01-20 13:01:20.801486"	48	2.61087566666667
"S200120"	"Response_Selection"	"LEFT"	"LEFT"	351.584500000001	800.0000016	n/a	n/a	n/a	n/a	n/a	n/a	n/a	"2020-01-20 13:01:21.610162"	"2020-01-20 13:01:22.170500"	49	2.61087566666667
"S200120"	"Response_Selection"	"LEFT"	"LEFT"	361.612700000023	533.3333344	n/a	n/a	n/a	n/a	n/a	n/a	n/a	"2020-01-20 13:01:22.711993"	"2020-01-20 13:01:23.281571"	50	2.61087566666667
"S200120"	"Response_Selection"	"LEFT"	"LEFT"	422.953300000017	1400.0000028	n/a	n/a	n/a	n/a	n/a	n/a	n/a	"2020-01-20 13:01:24.691191"	"2020-01-20 13:01:25.321385"	51	2.61087566666667
"S200120"	"Response_Selection"	"LEFT"	"LEFT"	393.52839999998	550.0000011	n/a	n/a	n/a	n/a	n/a	n/a	n/a	"2020-01-20 13:01:25.879882"	"2020-01-20 13:01:26.482762"	52	2.61087566666667
"S200120"	"Response_Selection"	"LEFT"	"LEFT"	421.908799999983	1216.6666691	n/a	n/a	n/a	n/a	n/a	n/a	n/a	"2020-01-20 13:01:27.707536"	"2020-01-20 13:01:28.337485"	53	2.61087566666667
"S200120"	"Response_Selection"	"RIGHT"	"RIGHT"	348.068599999976	1083.3333355	n/a	n/a	n/a	n/a	n/a	n/a	n/a	"2020-01-20 13:01:29.429288"	"2020-01-20 13:01:29.987612"	54	2.61087566666667
"S200120"	"Response_Selection"	"LEFT"	"LEFT"	350.35529999999	583.3333345	n/a	n/a	n/a	n/a	n/a	n/a	n/a	"2020-01-20 13:01:30.579058"	"2020-01-20 13:01:31.138597"	55	2.61087566666667
"S200120"	"Response_Selection"	"LEFT"	"LEFT"	336.397900000009	966.6666686	n/a	n/a	n/a	n/a	n/a	n/a	n/a	"2020-01-20 13:01:32.113408"	"2020-01-20 13:01:32.657770"	56	2.61087566666667
"S200120"	"Response_Selection"	"LEFT"	"LEFT"	369.474700000012	1133.3333356	n/a	n/a	n/a	n/a	n/a	n/a	n/a	"2020-01-20 13:01:33.800472"	"2020-01-20 13:01:34.377655"	57	2.61087566666667
"S200120"	"Response_Selection"	"RIGHT"	"RIGHT"	354.547299999979	933.3333352	n/a	n/a	n/a	n/a	n/a	n/a	n/a	"2020-01-20 13:01:35.319206"	"2020-01-20 13:01:35.881665"	58	2.61087566666667
"S200120"	"Response_Selection"	"LEFT"	"LEFT"	372.758999999974	1266.6666692	n/a	n/a	n/a	n/a	n/a	n/a	n/a	"2020-01-20 13:01:37.157253"	"2020-01-20 13:01:37.737609"	59	2.61087566666667
"S200120"	"Response_Selection"	"LEFT"	"LEFT"	303.610400000025	1200.0000024	n/a	n/a	n/a	n/a	n/a	n/a	n/a	"2020-01-20 13:01:38.946418"	"2020-01-20 13:01:39.457590"	60	2.61087566666667
"S200120"	"Response_Selection"	"RIGHT"	"RIGHT"	308.955699999956	1066.6666688	n/a	n/a	n/a	n/a	n/a	n/a	n/a	"2020-01-20 13:01:40.532591"	"2020-01-20 13:01:41.049160"	61	2.61087566666667
"S200120"	"Response_Selection"	"RIGHT"	"RIGHT"	287.607600000001	1216.6666691	n/a	n/a	n/a	n/a	n/a	n/a	n/a	"2020-01-20 13:01:42.273890"	"2020-01-20 13:01:42.770410"	62	2.61087566666667
"S200120"	"Response_Selection"	"LEFT"	"LEFT"	389.118800000006	1250.0000025	n/a	n/a	n/a	n/a	n/a	n/a	n/a	"2020-01-20 13:01:44.029147"	"2020-01-20 13:01:44.626746"	63	2.61087566666667
"S200120"	"Response_Selection"	"RIGHT"	"RIGHT"	276.284500000031	633.3333346	n/a	n/a	n/a	n/a	n/a	n/a	n/a	"2020-01-20 13:01:45.270029"	"2020-01-20 13:01:45.754745"	64	2.61087566666667
"S200120"	"Response_Selection"	"LEFT"	"LEFT"	295.901600000036	1366.6666694	n/a	n/a	n/a	n/a	n/a	n/a	n/a	"2020-01-20 13:01:47.129558"	"2020-01-20 13:01:47.634257"	65	2.61087566666667
"S200120"	"Response_Selection"	"LEFT"	"LEFT"	347.576500000002	1083.3333355	n/a	n/a	n/a	n/a	n/a	n/a	n/a	"2020-01-20 13:01:48.726432"	"2020-01-20 13:01:49.281462"	66	2.61087566666667
"S200120"	"Response_Selection"	"LEFT"	"LEFT"	315.143300000045	1316.6666693	n/a	n/a	n/a	n/a	n/a	n/a	n/a	"2020-01-20 13:01:50.606554"	"2020-01-20 13:01:51.129876"	67	2.61087566666667
"S200120"	"Response_Selection"	"LEFT"	"LEFT"	303.435100000002	600.0000012	n/a	n/a	n/a	n/a	n/a	n/a	n/a	"2020-01-20 13:01:51.738430"	"2020-01-20 13:01:52.250403"	68	2.61087566666667
"S200120"	"Response_Selection"	"LEFT"	"LEFT"	322.952999999984	1300.0000026	n/a	n/a	n/a	n/a	n/a	n/a	n/a	"2020-01-20 13:01:53.558653"	"2020-01-20 13:01:54.090951"	69	2.61087566666667
"S200120"	"Response_Selection"	"LEFT"	"LEFT"	264.51469999995	750.0000015	n/a	n/a	n/a	n/a	n/a	n/a	n/a	"2020-01-20 13:01:54.849091"	"2020-01-20 13:01:55.322677"	70	2.61087566666667
"S200120"	"Response_Selection"	"RIGHT"	"RIGHT"	320.478700000024	1350.0000027	n/a	n/a	n/a	n/a	n/a	n/a	n/a	"2020-01-20 13:01:56.680903"	"2020-01-20 13:01:57.209257"	71	2.61087566666667
"S200120"	"Response_Selection"	"LEFT"	"LEFT"	331.247599999983	700.0000014	n/a	n/a	n/a	n/a	n/a	n/a	n/a	"2020-01-20 13:01:57.918235"	"2020-01-20 13:01:58.457605"	72	2.61087566666667
"S200120"	"Response_Selection"	"RIGHT"	"RIGHT"	298.786399999983	1116.6666689	n/a	n/a	n/a	n/a	n/a	n/a	n/a	"2020-01-20 13:01:59.583003"	"2020-01-20 13:02:00.090627"	73	2.61087566666667
"S200120"	"Response_Selection"	"LEFT"	"LEFT"	330.550499999958	500.000001	n/a	n/a	n/a	n/a	n/a	n/a	n/a	"2020-01-20 13:02:00.599044"	"2020-01-20 13:02:01.137488"	74	2.61087566666667
"S200120"	"Response_Selection"	"LEFT"	"LEFT"	326.559099999997	633.3333346	n/a	n/a	n/a	n/a	n/a	n/a	n/a	"2020-01-20 13:02:01.779779"	"2020-01-20 13:02:02.314729"	75	2.61087566666667
"S200120"	"Response_Selection"	"RIGHT"	"RIGHT"	281.213199999968	533.3333344	n/a	n/a	n/a	n/a	n/a	n/a	n/a	"2020-01-20 13:02:02.856853"	"2020-01-20 13:02:03.345415"	76	2.61087566666667
"S200120"	"Response_Selection"	"RIGHT"	"RIGHT"	410.110099999997	916.6666685	n/a	n/a	n/a	n/a	n/a	n/a	n/a	"2020-01-20 13:02:04.271942"	"2020-01-20 13:02:04.889901"	77	2.61087566666667
"S200120"	"Response_Selection"	"RIGHT"	"RIGHT"	303.819099999998	600.0000012	n/a	n/a	n/a	n/a	n/a	n/a	n/a	"2020-01-20 13:02:05.498451"	"2020-01-20 13:02:06.009503"	78	2.61087566666667
"S200120"	"Response_Selection"	"RIGHT"	"RIGHT"	313.675400000022	550.0000011	n/a	n/a	n/a	n/a	n/a	n/a	n/a	"2020-01-20 13:02:06.567956"	"2020-01-20 13:02:07.089732"	79	2.61087566666667
"S200120"	"Response_Selection"	"RIGHT"	"RIGHT"	295.540299999971	1400.0000028	n/a	n/a	n/a	n/a	n/a	n/a	n/a	"2020-01-20 13:02:08.497794"	"2020-01-20 13:02:09.001763"	80	2.61087566666667
