"Participant"	"Task"	"Stimulus_Side"	"Response"	"RT"	"ITI"	"Previous_Response"	"Previous_RT"	"Stop_Signal"	"Stop_Signal_RT"	"Conflict"	"Cue_Response"	"Cue_Response_RT"	"Trial_Onset"	"Trial_End"	"Trial_Order"	"Duration"
"S201222"	"Conflict_Resolution"	"LEFT"	"LEFT"	965.971300000092	950.0000019	n/a	n/a	n/a	n/a	"True"	n/a	n/a	"2020-12-22 14:10:15.520891"	"2020-12-22 14:10:16.695721"	1	6.30511583333333
"S201222"	"Conflict_Resolution"	"RIGHT"	"RIGHT"	426.203399999963	1050.0000021	n/a	n/a	n/a	n/a	"False"	n/a	n/a	"2020-12-22 14:10:17.764955"	"2020-12-22 14:10:18.398657"	2	6.30511583333333
"S201222"	"Conflict_Resolution"	"LEFT"	"LEFT"	430.291900000043	566.6666678	n/a	n/a	n/a	n/a	"False"	n/a	n/a	"2020-12-22 14:10:18.985143"	"2020-12-22 14:10:19.623056"	3	6.30511583333333
"S201222"	"Conflict_Resolution"	"LEFT"	"LEFT"	520.427999999924	916.6666685	n/a	n/a	n/a	n/a	"True"	n/a	n/a	"2020-12-22 14:10:20.558966"	"2020-12-22 14:10:21.288057"	4	6.30511583333333
"S201222"	"Conflict_Resolution"	"LEFT"	"LEFT"	397.503400000005	733.3333348	n/a	n/a	n/a	n/a	"False"	n/a	n/a	"2020-12-22 14:10:22.042077"	"2020-12-22 14:10:22.647333"	5	6.30511583333333
"S201222"	"Conflict_Resolution"	"LEFT"	"LEFT"	361.422199999993	666.666668	n/a	n/a	n/a	n/a	"False"	n/a	n/a	"2020-12-22 14:10:23.333509"	"2020-12-22 14:10:23.903214"	6	6.30511583333333
"S201222"	"Conflict_Resolution"	"LEFT"	"LEFT"	595.207999999957	616.6666679	n/a	n/a	n/a	n/a	"True"	n/a	n/a	"2020-12-22 14:10:24.540042"	"2020-12-22 14:10:25.343631"	7	6.30511583333333
"S201222"	"Conflict_Resolution"	"RIGHT"	"RIGHT"	573.761800000057	933.3333352	n/a	n/a	n/a	n/a	"True"	n/a	n/a	"2020-12-22 14:10:26.297195"	"2020-12-22 14:10:27.079888"	8	6.30511583333333
"S201222"	"Conflict_Resolution"	"LEFT"	"LEFT"	600.817199999938	516.6666677	n/a	n/a	n/a	n/a	"True"	n/a	n/a	"2020-12-22 14:10:27.614492"	"2020-12-22 14:10:28.423329"	9	6.30511583333333
"S201222"	"Conflict_Resolution"	"LEFT"	"LEFT"	550.21899999997	1366.6666694	n/a	n/a	n/a	n/a	"True"	n/a	n/a	"2020-12-22 14:10:29.808730"	"2020-12-22 14:10:30.568019"	10	6.30511583333333
"S201222"	"Conflict_Resolution"	"LEFT"	"LEFT"	552.311599999939	633.3333346	n/a	n/a	n/a	n/a	"True"	n/a	n/a	"2020-12-22 14:10:31.222681"	"2020-12-22 14:10:31.983545"	11	6.30511583333333
"S201222"	"Conflict_Resolution"	"RIGHT"	"RIGHT"	584.157800000071	1483.3333363	n/a	n/a	n/a	n/a	"True"	n/a	n/a	"2020-12-22 14:10:33.487040"	"2020-12-22 14:10:34.279560"	12	6.30511583333333
"S201222"	"Conflict_Resolution"	"RIGHT"	"LEFT"	459.180599999968	983.3333353	n/a	n/a	n/a	n/a	"True"	n/a	n/a	"2020-12-22 14:10:35.283886"	"2020-12-22 14:10:35.950409"	13	6.30511583333333
"S201222"	"Conflict_Resolution"	"LEFT"	"LEFT"	576.954099999966	900.0000018	n/a	n/a	n/a	n/a	"True"	n/a	n/a	"2020-12-22 14:10:36.870557"	"2020-12-22 14:10:37.655453"	14	6.30511583333333
"S201222"	"Conflict_Resolution"	"RIGHT"	"RIGHT"	415.91290000008	900.0000018	n/a	n/a	n/a	n/a	"False"	n/a	n/a	"2020-12-22 14:10:38.575464"	"2020-12-22 14:10:39.199346"	15	6.30511583333333
"S201222"	"Conflict_Resolution"	"LEFT"	"LEFT"	510.208799999987	583.3333345	n/a	n/a	n/a	n/a	"True"	n/a	n/a	"2020-12-22 14:10:39.802132"	"2020-12-22 14:10:40.520817"	16	6.30511583333333
"S201222"	"Conflict_Resolution"	"LEFT"	"LEFT"	514.580300000034	1000.000002	n/a	n/a	n/a	n/a	"True"	n/a	n/a	"2020-12-22 14:10:41.540662"	"2020-12-22 14:10:42.263938"	17	6.30511583333333
"S201222"	"Conflict_Resolution"	"RIGHT"	"RIGHT"	544.04749999992	700.0000014	n/a	n/a	n/a	n/a	"True"	n/a	n/a	"2020-12-22 14:10:42.983100"	"2020-12-22 14:10:43.737052"	18	6.30511583333333
"S201222"	"Conflict_Resolution"	"RIGHT"	"RIGHT"	402.697799999942	783.3333349	n/a	n/a	n/a	n/a	"False"	n/a	n/a	"2020-12-22 14:10:44.539930"	"2020-12-22 14:10:45.151964"	19	6.30511583333333
"S201222"	"Conflict_Resolution"	"LEFT"	"LEFT"	443.897499999935	1350.0000027	n/a	n/a	n/a	n/a	"True"	n/a	n/a	"2020-12-22 14:10:46.522806"	"2020-12-22 14:10:47.175504"	20	6.30511583333333
"S201222"	"Conflict_Resolution"	"LEFT"	"RIGHT"	406.76360000009	1166.666669	n/a	n/a	n/a	n/a	"True"	n/a	n/a	"2020-12-22 14:10:48.359855"	"2020-12-22 14:10:48.974337"	21	6.30511583333333
"S201222"	"Conflict_Resolution"	"LEFT"	"LEFT"	453.053599999976	516.6666677	n/a	n/a	n/a	n/a	"False"	n/a	n/a	"2020-12-22 14:10:49.513907"	"2020-12-22 14:10:50.176088"	22	6.30511583333333
"S201222"	"Conflict_Resolution"	"RIGHT"	"RIGHT"	439.886600000023	1283.3333359	n/a	n/a	n/a	n/a	"False"	n/a	n/a	"2020-12-22 14:10:51.479626"	"2020-12-22 14:10:52.127406"	23	6.30511583333333
"S201222"	"Conflict_Resolution"	"RIGHT"	"RIGHT"	525.133700000083	583.3333345	n/a	n/a	n/a	n/a	"False"	n/a	n/a	"2020-12-22 14:10:52.730408"	"2020-12-22 14:10:53.463975"	24	6.30511583333333
"S201222"	"Conflict_Resolution"	"LEFT"	"LEFT"	443.820200000005	783.3333349	n/a	n/a	n/a	n/a	"False"	n/a	n/a	"2020-12-22 14:10:54.267797"	"2020-12-22 14:10:54.920102"	25	6.30511583333333
"S201222"	"Conflict_Resolution"	"RIGHT"	"RIGHT"	457.359200000042	1466.6666696	n/a	n/a	n/a	n/a	"False"	n/a	n/a	"2020-12-22 14:10:56.405830"	"2020-12-22 14:10:57.071929"	26	6.30511583333333
"S201222"	"Conflict_Resolution"	"LEFT"	"LEFT"	382.525699999974	1316.6666693	n/a	n/a	n/a	n/a	"False"	n/a	n/a	"2020-12-22 14:10:58.408850"	"2020-12-22 14:10:58.999317"	27	6.30511583333333
"S201222"	"Conflict_Resolution"	"RIGHT"	"RIGHT"	603.846399999952	633.3333346	n/a	n/a	n/a	n/a	"True"	n/a	n/a	"2020-12-22 14:10:59.651562"	"2020-12-22 14:11:00.464315"	28	6.30511583333333
"S201222"	"Conflict_Resolution"	"LEFT"	"LEFT"	497.760500000027	783.3333349	n/a	n/a	n/a	n/a	"True"	n/a	n/a	"2020-12-22 14:11:01.269191"	"2020-12-22 14:11:01.975657"	29	6.30511583333333
"S201222"	"Conflict_Resolution"	"LEFT"	"LEFT"	539.870299999961	583.3333345	n/a	n/a	n/a	n/a	"False"	n/a	n/a	"2020-12-22 14:11:02.579596"	"2020-12-22 14:11:03.327533"	30	6.30511583333333
"S201222"	"Conflict_Resolution"	"RIGHT"	"RIGHT"	462.762200000043	933.3333352	n/a	n/a	n/a	n/a	"False"	n/a	n/a	"2020-12-22 14:11:04.280010"	"2020-12-22 14:11:04.953027"	31	6.30511583333333
"S201222"	"Conflict_Resolution"	"LEFT"	"LEFT"	568.341299999929	1050.0000021	n/a	n/a	n/a	n/a	"True"	n/a	n/a	"2020-12-22 14:11:06.023146"	"2020-12-22 14:11:06.800122"	32	6.30511583333333
"S201222"	"Conflict_Resolution"	"RIGHT"	"RIGHT"	584.895800000027	633.3333346	n/a	n/a	n/a	n/a	"False"	n/a	n/a	"2020-12-22 14:11:07.453886"	"2020-12-22 14:11:08.248820"	33	6.30511583333333
"S201222"	"Conflict_Resolution"	"RIGHT"	"RIGHT"	606.235500000025	900.0000018	n/a	n/a	n/a	n/a	"True"	n/a	n/a	"2020-12-22 14:11:09.168838"	"2020-12-22 14:11:09.983836"	34	6.30511583333333
"S201222"	"Conflict_Resolution"	"RIGHT"	"RIGHT"	365.512199999898	1133.3333356	n/a	n/a	n/a	n/a	"False"	n/a	n/a	"2020-12-22 14:11:11.137736"	"2020-12-22 14:11:11.712739"	35	6.30511583333333
"S201222"	"Conflict_Resolution"	"RIGHT"	"RIGHT"	531.096700000035	600.0000012	n/a	n/a	n/a	n/a	"True"	n/a	n/a	"2020-12-22 14:11:12.331559"	"2020-12-22 14:11:13.073085"	36	6.30511583333333
"S201222"	"Conflict_Resolution"	"LEFT"	"LEFT"	527.025699999967	1066.6666688	n/a	n/a	n/a	n/a	"True"	n/a	n/a	"2020-12-22 14:11:14.160637"	"2020-12-22 14:11:14.896713"	37	6.30511583333333
"S201222"	"Conflict_Resolution"	"RIGHT"	"RIGHT"	500.473300000067	733.3333348	n/a	n/a	n/a	n/a	"True"	n/a	n/a	"2020-12-22 14:11:15.650882"	"2020-12-22 14:11:16.359029"	38	6.30511583333333
"S201222"	"Conflict_Resolution"	"RIGHT"	"RIGHT"	470.359700000017	1316.6666693	n/a	n/a	n/a	n/a	"False"	n/a	n/a	"2020-12-22 14:11:17.697115"	"2020-12-22 14:11:18.375384"	39	6.30511583333333
"S201222"	"Conflict_Resolution"	"RIGHT"	"RIGHT"	396.985399999949	983.3333353	n/a	n/a	n/a	n/a	"False"	n/a	n/a	"2020-12-22 14:11:19.378188"	"2020-12-22 14:11:19.982476"	40	6.30511583333333
"S201222"	"Conflict_Resolution"	"LEFT"	"LEFT"	460.210800000027	1016.6666687	n/a	n/a	n/a	n/a	"True"	n/a	n/a	"2020-12-22 14:11:21.019186"	"2020-12-22 14:11:21.687397"	41	6.30511583333333
"S201222"	"Conflict_Resolution"	"LEFT"	"LEFT"	438.242999999943	1150.0000023	n/a	n/a	n/a	n/a	"False"	n/a	n/a	"2020-12-22 14:11:22.857141"	"2020-12-22 14:11:23.502297"	42	6.30511583333333
"S201222"	"Conflict_Resolution"	"RIGHT"	"RIGHT"	410.073699999998	1083.3333355	n/a	n/a	n/a	n/a	"False"	n/a	n/a	"2020-12-22 14:11:24.604966"	"2020-12-22 14:11:25.223354"	43	6.30511583333333
"S201222"	"Conflict_Resolution"	"RIGHT"	"RIGHT"	572.652199999993	1366.6666694	n/a	n/a	n/a	n/a	"True"	n/a	n/a	"2020-12-22 14:11:26.610666"	"2020-12-22 14:11:27.392010"	44	6.30511583333333
"S201222"	"Conflict_Resolution"	"LEFT"	"LEFT"	450.716599999964	1016.6666687	n/a	n/a	n/a	n/a	"False"	n/a	n/a	"2020-12-22 14:11:28.428709"	"2020-12-22 14:11:29.086496"	45	6.30511583333333
"S201222"	"Conflict_Resolution"	"RIGHT"	"RIGHT"	547.577499999989	1050.0000021	n/a	n/a	n/a	n/a	"True"	n/a	n/a	"2020-12-22 14:11:30.155690"	"2020-12-22 14:11:30.911243"	46	6.30511583333333
"S201222"	"Conflict_Resolution"	"LEFT"	"LEFT"	498.198800000068	1466.6666696	n/a	n/a	n/a	n/a	"True"	n/a	n/a	"2020-12-22 14:11:32.397033"	"2020-12-22 14:11:33.104141"	47	6.30511583333333
"S201222"	"Conflict_Resolution"	"LEFT"	"LEFT"	528.067400000054	683.3333347	n/a	n/a	n/a	n/a	"False"	n/a	n/a	"2020-12-22 14:11:33.807274"	"2020-12-22 14:11:34.542421"	48	6.30511583333333
"S201222"	"Conflict_Resolution"	"LEFT"	"LEFT"	379.850199999964	1416.6666695	n/a	n/a	n/a	n/a	"False"	n/a	n/a	"2020-12-22 14:11:35.979620"	"2020-12-22 14:11:36.569076"	49	6.30511583333333
"S201222"	"Conflict_Resolution"	"RIGHT"	"RIGHT"	574.982900000009	500.000001	n/a	n/a	n/a	n/a	"True"	n/a	n/a	"2020-12-22 14:11:37.088678"	"2020-12-22 14:11:37.872799"	50	6.30511583333333
"S201222"	"Conflict_Resolution"	"RIGHT"	"RIGHT"	461.696800000027	1083.3333355	n/a	n/a	n/a	n/a	"True"	n/a	n/a	"2020-12-22 14:11:38.977476"	"2020-12-22 14:11:39.647439"	51	6.30511583333333
"S201222"	"Conflict_Resolution"	"RIGHT"	"RIGHT"	460.772399999996	1183.3333357	n/a	n/a	n/a	n/a	"True"	n/a	n/a	"2020-12-22 14:11:40.850707"	"2020-12-22 14:11:41.521085"	52	6.30511583333333
"S201222"	"Conflict_Resolution"	"RIGHT"	"RIGHT"	520.945999999981	1466.6666696	n/a	n/a	n/a	n/a	"True"	n/a	n/a	"2020-12-22 14:11:43.005648"	"2020-12-22 14:11:43.734249"	53	6.30511583333333
"S201222"	"Conflict_Resolution"	"RIGHT"	"RIGHT"	424.582299999997	1100.0000022	n/a	n/a	n/a	n/a	"False"	n/a	n/a	"2020-12-22 14:11:44.854234"	"2020-12-22 14:11:45.486541"	54	6.30511583333333
"S201222"	"Conflict_Resolution"	"LEFT"	"LEFT"	712.630000000104	1150.0000023	n/a	n/a	n/a	n/a	"True"	n/a	n/a	"2020-12-22 14:11:46.653958"	"2020-12-22 14:11:47.574540"	55	6.30511583333333
"S201222"	"Conflict_Resolution"	"RIGHT"	"RIGHT"	514.955399999963	1033.3333354	n/a	n/a	n/a	n/a	"True"	n/a	n/a	"2020-12-22 14:11:48.628231"	"2020-12-22 14:11:49.351294"	56	6.30511583333333
"S201222"	"Conflict_Resolution"	"RIGHT"	"RIGHT"	596.48459999994	1383.3333361	n/a	n/a	n/a	n/a	"False"	n/a	n/a	"2020-12-22 14:11:50.755105"	"2020-12-22 14:11:51.558472"	57	6.30511583333333
"S201222"	"Conflict_Resolution"	"RIGHT"	"RIGHT"	439.739600000053	1333.333336	n/a	n/a	n/a	n/a	"False"	n/a	n/a	"2020-12-22 14:11:52.911623"	"2020-12-22 14:11:53.559760"	58	6.30511583333333
"S201222"	"Conflict_Resolution"	"RIGHT"	"RIGHT"	489.547399999992	1266.6666692	n/a	n/a	n/a	n/a	"True"	n/a	n/a	"2020-12-22 14:11:54.845811"	"2020-12-22 14:11:55.544476"	59	6.30511583333333
"S201222"	"Conflict_Resolution"	"LEFT"	"LEFT"	472.349099999974	1466.6666696	n/a	n/a	n/a	n/a	"False"	n/a	n/a	"2020-12-22 14:11:57.031042"	"2020-12-22 14:11:57.711740"	60	6.30511583333333
"S201222"	"Conflict_Resolution"	"RIGHT"	"RIGHT"	596.550500000035	600.0000012	n/a	n/a	n/a	n/a	"False"	n/a	n/a	"2020-12-22 14:11:58.331094"	"2020-12-22 14:11:59.138876"	61	6.30511583333333
"S201222"	"Conflict_Resolution"	"LEFT"	"LEFT"	396.012700000028	1116.6666689	n/a	n/a	n/a	n/a	"False"	n/a	n/a	"2020-12-22 14:12:00.274803"	"2020-12-22 14:12:00.879462"	62	6.30511583333333
"S201222"	"Conflict_Resolution"	"RIGHT"	"RIGHT"	494.733600000018	1100.0000022	n/a	n/a	n/a	n/a	"True"	n/a	n/a	"2020-12-22 14:12:02.000618"	"2020-12-22 14:12:02.703971"	63	6.30511583333333
"S201222"	"Conflict_Resolution"	"LEFT"	"LEFT"	444.790699999999	1100.0000022	n/a	n/a	n/a	n/a	"False"	n/a	n/a	"2020-12-22 14:12:03.826456"	"2020-12-22 14:12:04.478876"	64	6.30511583333333
"S201222"	"Conflict_Resolution"	"LEFT"	"LEFT"	556.113500000038	1400.0000028	n/a	n/a	n/a	n/a	"True"	n/a	n/a	"2020-12-22 14:12:05.899063"	"2020-12-22 14:12:06.664267"	65	6.30511583333333
"S201222"	"Conflict_Resolution"	"LEFT"	"LEFT"	527.050799999984	733.3333348	n/a	n/a	n/a	n/a	"True"	n/a	n/a	"2020-12-22 14:12:07.416284"	"2020-12-22 14:12:08.151998"	66	6.30511583333333
"S201222"	"Conflict_Resolution"	"LEFT"	"LEFT"	417.688399999975	1450.0000029	n/a	n/a	n/a	n/a	"False"	n/a	n/a	"2020-12-22 14:12:09.621351"	"2020-12-22 14:12:10.247681"	67	6.30511583333333
"S201222"	"Conflict_Resolution"	"LEFT"	"LEFT"	396.187400000031	766.6666682	n/a	n/a	n/a	n/a	"False"	n/a	n/a	"2020-12-22 14:12:11.034587"	"2020-12-22 14:12:11.639479"	68	6.30511583333333
"S201222"	"Conflict_Resolution"	"LEFT"	"LEFT"	527.845599999978	1300.0000026	n/a	n/a	n/a	n/a	"True"	n/a	n/a	"2020-12-22 14:12:12.959230"	"2020-12-22 14:12:13.696927"	69	6.30511583333333
"S201222"	"Conflict_Resolution"	"LEFT"	"LEFT"	392.756300000087	1050.0000021	n/a	n/a	n/a	n/a	"False"	n/a	n/a	"2020-12-22 14:12:14.766556"	"2020-12-22 14:12:15.366455"	70	6.30511583333333
"S201222"	"Conflict_Resolution"	"RIGHT"	"RIGHT"	532.302000000072	1216.6666691	n/a	n/a	n/a	n/a	"True"	n/a	n/a	"2020-12-22 14:12:16.603237"	"2020-12-22 14:12:17.342272"	71	6.30511583333333
"S201222"	"Conflict_Resolution"	"LEFT"	"LEFT"	408.685300000002	1300.0000026	n/a	n/a	n/a	n/a	"False"	n/a	n/a	"2020-12-22 14:12:18.662780"	"2020-12-22 14:12:19.279633"	72	6.30511583333333
"S201222"	"Conflict_Resolution"	"LEFT"	"LEFT"	514.880100000028	1200.0000024	n/a	n/a	n/a	n/a	"True"	n/a	n/a	"2020-12-22 14:12:20.500363"	"2020-12-22 14:12:21.222476"	73	6.30511583333333
"S201222"	"Conflict_Resolution"	"RIGHT"	"RIGHT"	598.378099999991	533.3333344	n/a	n/a	n/a	n/a	"True"	n/a	n/a	"2020-12-22 14:12:21.776980"	"2020-12-22 14:12:22.583834"	74	6.30511583333333
"S201222"	"Conflict_Resolution"	"LEFT"	"LEFT"	454.047899999978	566.6666678	n/a	n/a	n/a	n/a	"True"	n/a	n/a	"2020-12-22 14:12:23.169284"	"2020-12-22 14:12:23.831728"	75	6.30511583333333
"S201222"	"Conflict_Resolution"	"LEFT"	"LEFT"	406.750799999941	1266.6666692	n/a	n/a	n/a	n/a	"False"	n/a	n/a	"2020-12-22 14:12:25.119819"	"2020-12-22 14:12:25.736717"	76	6.30511583333333
"S201222"	"Conflict_Resolution"	"LEFT"	"LEFT"	397.507699999892	533.3333344	n/a	n/a	n/a	n/a	"False"	n/a	n/a	"2020-12-22 14:12:26.290208"	"2020-12-22 14:12:26.896050"	77	6.30511583333333
"S201222"	"Conflict_Resolution"	"LEFT"	"LEFT"	355.71159999995	1366.6666694	n/a	n/a	n/a	n/a	"False"	n/a	n/a	"2020-12-22 14:12:28.283342"	"2020-12-22 14:12:28.847824"	78	6.30511583333333
"S201222"	"Conflict_Resolution"	"RIGHT"	"RIGHT"	560.235900000066	883.3333351	n/a	n/a	n/a	n/a	"False"	n/a	n/a	"2020-12-22 14:12:29.751307"	"2020-12-22 14:12:30.520796"	79	6.30511583333333
"S201222"	"Conflict_Resolution"	"RIGHT"	"RIGHT"	517.980999999963	1316.6666693	n/a	n/a	n/a	n/a	"True"	n/a	n/a	"2020-12-22 14:12:31.857524"	"2020-12-22 14:12:32.583844"	80	6.30511583333333
"S201222"	"Conflict_Resolution"	"LEFT"	"LEFT"	530.486999999994	616.6666679	n/a	n/a	n/a	n/a	"False"	n/a	n/a	"2020-12-22 14:12:33.220112"	"2020-12-22 14:12:33.959661"	81	6.30511583333333
"S201222"	"Conflict_Resolution"	"RIGHT"	"RIGHT"	385.83159999996	1233.3333358	n/a	n/a	n/a	n/a	"False"	n/a	n/a	"2020-12-22 14:12:35.213352"	"2020-12-22 14:12:35.808033"	82	6.30511583333333
"S201222"	"Conflict_Resolution"	"LEFT"	"LEFT"	502.313700000059	1316.6666693	n/a	n/a	n/a	n/a	"True"	n/a	n/a	"2020-12-22 14:12:37.144455"	"2020-12-22 14:12:37.855059"	83	6.30511583333333
"S201222"	"Conflict_Resolution"	"LEFT"	"LEFT"	445.467200000053	1350.0000027	n/a	n/a	n/a	n/a	"False"	n/a	n/a	"2020-12-22 14:12:39.225306"	"2020-12-22 14:12:39.880116"	84	6.30511583333333
"S201222"	"Conflict_Resolution"	"LEFT"	"LEFT"	367.881199999943	1500.000003	n/a	n/a	n/a	n/a	"False"	n/a	n/a	"2020-12-22 14:12:41.399012"	"2020-12-22 14:12:41.974810"	85	6.30511583333333
"S201222"	"Conflict_Resolution"	"LEFT"	"LEFT"	457.801700000005	1266.6666692	n/a	n/a	n/a	n/a	"True"	n/a	n/a	"2020-12-22 14:12:43.261476"	"2020-12-22 14:12:43.927741"	86	6.30511583333333
"S201222"	"Conflict_Resolution"	"LEFT"	"LEFT"	492.740400000002	1216.6666691	n/a	n/a	n/a	n/a	"False"	n/a	n/a	"2020-12-22 14:12:45.162549"	"2020-12-22 14:12:45.863674"	87	6.30511583333333
"S201222"	"Conflict_Resolution"	"RIGHT"	"RIGHT"	795.717599999875	800.0000016	n/a	n/a	n/a	n/a	"False"	n/a	n/a	"2020-12-22 14:12:46.682990"	"2020-12-22 14:12:47.687855"	88	6.30511583333333
"S201222"	"Conflict_Resolution"	"RIGHT"	"RIGHT"	445.420799999965	750.0000015	n/a	n/a	n/a	n/a	"False"	n/a	n/a	"2020-12-22 14:12:48.457779"	"2020-12-22 14:12:49.111535"	89	6.30511583333333
"S201222"	"Conflict_Resolution"	"RIGHT"	"RIGHT"	360.787100000152	1483.3333363	n/a	n/a	n/a	n/a	"False"	n/a	n/a	"2020-12-22 14:12:50.614089"	"2020-12-22 14:12:51.182566"	90	6.30511583333333
"S201222"	"Conflict_Resolution"	"RIGHT"	"RIGHT"	560.713599999872	683.3333347	n/a	n/a	n/a	n/a	"True"	n/a	n/a	"2020-12-22 14:12:51.886702"	"2020-12-22 14:12:52.654193"	91	6.30511583333333
"S201222"	"Conflict_Resolution"	"RIGHT"	"RIGHT"	355.731800000058	1033.3333354	n/a	n/a	n/a	n/a	"False"	n/a	n/a	"2020-12-22 14:12:53.706855"	"2020-12-22 14:12:54.271344"	92	6.30511583333333
"S201222"	"Conflict_Resolution"	"RIGHT"	"RIGHT"	376.645099999905	1266.6666692	n/a	n/a	n/a	n/a	"False"	n/a	n/a	"2020-12-22 14:12:55.558033"	"2020-12-22 14:12:56.143343"	93	6.30511583333333
"S201222"	"Conflict_Resolution"	"LEFT"	"RIGHT"	478.157700000111	533.3333344	n/a	n/a	n/a	n/a	"True"	n/a	n/a	"2020-12-22 14:12:56.696875"	"2020-12-22 14:12:57.382165"	94	6.30511583333333
"S201222"	"Conflict_Resolution"	"LEFT"	"LEFT"	617.498300000079	683.3333347	n/a	n/a	n/a	n/a	"True"	n/a	n/a	"2020-12-22 14:12:58.085813"	"2020-12-22 14:12:58.911645"	95	6.30511583333333
"S201222"	"Conflict_Resolution"	"RIGHT"	"RIGHT"	454.2335000001	950.0000019	n/a	n/a	n/a	n/a	"False"	n/a	n/a	"2020-12-22 14:12:59.881035"	"2020-12-22 14:13:00.543275"	96	6.30511583333333
"S201222"	"Conflict_Resolution"	"LEFT"	"LEFT"	558.009999999967	966.6666686	n/a	n/a	n/a	n/a	"True"	n/a	n/a	"2020-12-22 14:13:01.529356"	"2020-12-22 14:13:02.295642"	97	6.30511583333333
"S201222"	"Conflict_Resolution"	"RIGHT"	"RIGHT"	545.050299999957	850.0000017	n/a	n/a	n/a	n/a	"True"	n/a	n/a	"2020-12-22 14:13:03.166126"	"2020-12-22 14:13:03.918526"	98	6.30511583333333
"S201222"	"Conflict_Resolution"	"RIGHT"	"RIGHT"	569.419200000084	1233.3333358	n/a	n/a	n/a	n/a	"True"	n/a	n/a	"2020-12-22 14:13:05.173695"	"2020-12-22 14:13:05.950254"	99	6.30511583333333
"S201222"	"Conflict_Resolution"	"LEFT"	"LEFT"	464.404999999942	916.6666685	n/a	n/a	n/a	n/a	"False"	n/a	n/a	"2020-12-22 14:13:06.886968"	"2020-12-22 14:13:07.558770"	100	6.30511583333333
"S201222"	"Conflict_Resolution"	"RIGHT"	"RIGHT"	500.742100000025	1000.000002	n/a	n/a	n/a	n/a	"False"	n/a	n/a	"2020-12-22 14:13:08.578676"	"2020-12-22 14:13:09.286922"	101	6.30511583333333
"S201222"	"Conflict_Resolution"	"RIGHT"	"RIGHT"	449.699699999883	850.0000017	n/a	n/a	n/a	n/a	"False"	n/a	n/a	"2020-12-22 14:13:10.157573"	"2020-12-22 14:13:10.815811"	102	6.30511583333333
"S201222"	"Conflict_Resolution"	"RIGHT"	"RIGHT"	515.981400000101	800.0000016	n/a	n/a	n/a	n/a	"True"	n/a	n/a	"2020-12-22 14:13:11.635198"	"2020-12-22 14:13:12.359448"	103	6.30511583333333
"S201222"	"Conflict_Resolution"	"RIGHT"	"RIGHT"	542.262299999948	1283.3333359	n/a	n/a	n/a	n/a	"True"	n/a	n/a	"2020-12-22 14:13:13.664970"	"2020-12-22 14:13:14.415996"	104	6.30511583333333
"S201222"	"Conflict_Resolution"	"LEFT"	"LEFT"	679.408899999999	1450.0000029	n/a	n/a	n/a	n/a	"True"	n/a	n/a	"2020-12-22 14:13:15.888059"	"2020-12-22 14:13:16.775169"	105	6.30511583333333
"S201222"	"Conflict_Resolution"	"LEFT"	"LEFT"	624.418399999968	866.6666684	n/a	n/a	n/a	n/a	"False"	n/a	n/a	"2020-12-22 14:13:17.662779"	"2020-12-22 14:13:18.496122"	106	6.30511583333333
"S201222"	"Conflict_Resolution"	"RIGHT"	"RIGHT"	433.447899999919	1433.3333362	n/a	n/a	n/a	n/a	"False"	n/a	n/a	"2020-12-22 14:13:19.949918"	"2020-12-22 14:13:20.591641"	107	6.30511583333333
"S201222"	"Conflict_Resolution"	"LEFT"	"LEFT"	445.574999999963	1000.000002	n/a	n/a	n/a	n/a	"False"	n/a	n/a	"2020-12-22 14:13:21.609903"	"2020-12-22 14:13:22.263642"	108	6.30511583333333
"S201222"	"Conflict_Resolution"	"LEFT"	"LEFT"	490.354399999887	816.6666683	n/a	n/a	n/a	n/a	"True"	n/a	n/a	"2020-12-22 14:13:23.100369"	"2020-12-22 14:13:23.798185"	109	6.30511583333333
"S201222"	"Conflict_Resolution"	"RIGHT"	"RIGHT"	590.249200000017	550.0000011	n/a	n/a	n/a	n/a	"True"	n/a	n/a	"2020-12-22 14:13:24.369131"	"2020-12-22 14:13:25.166543"	110	6.30511583333333
"S201222"	"Conflict_Resolution"	"LEFT"	"LEFT"	575.311099999908	716.6666681	n/a	n/a	n/a	n/a	"True"	n/a	n/a	"2020-12-22 14:13:25.904090"	"2020-12-22 14:13:26.687472"	111	6.30511583333333
"S201222"	"Conflict_Resolution"	"RIGHT"	"RIGHT"	530.011999999942	1416.6666695	n/a	n/a	n/a	n/a	"False"	n/a	n/a	"2020-12-22 14:13:28.124662"	"2020-12-22 14:13:28.862333"	112	6.30511583333333
"S201222"	"Conflict_Resolution"	"RIGHT"	"RIGHT"	456.884899999977	700.0000014	n/a	n/a	n/a	n/a	"False"	n/a	n/a	"2020-12-22 14:13:29.582398"	"2020-12-22 14:13:30.247734"	113	6.30511583333333
"S201222"	"Conflict_Resolution"	"LEFT"	"LEFT"	450.072800000044	1066.6666688	n/a	n/a	n/a	n/a	"False"	n/a	n/a	"2020-12-22 14:13:31.333249"	"2020-12-22 14:13:31.991435"	114	6.30511583333333
"S201222"	"Conflict_Resolution"	"LEFT"	"LEFT"	451.518399999941	1400.0000028	n/a	n/a	n/a	n/a	"False"	n/a	n/a	"2020-12-22 14:13:33.411624"	"2020-12-22 14:13:34.071226"	115	6.30511583333333
"S201222"	"Conflict_Resolution"	"LEFT"	"LEFT"	568.061400000033	1500.000003	n/a	n/a	n/a	n/a	"True"	n/a	n/a	"2020-12-22 14:13:35.590821"	"2020-12-22 14:13:36.367918"	116	6.30511583333333
"S201222"	"Conflict_Resolution"	"LEFT"	"LEFT"	544.671199999812	850.0000017	n/a	n/a	n/a	n/a	"True"	n/a	n/a	"2020-12-22 14:13:37.238458"	"2020-12-22 14:13:37.992050"	117	6.30511583333333
"S201222"	"Conflict_Resolution"	"RIGHT"	"RIGHT"	440.122900000006	733.3333348	n/a	n/a	n/a	n/a	"False"	n/a	n/a	"2020-12-22 14:13:38.743418"	"2020-12-22 14:13:39.391896"	118	6.30511583333333
"S201222"	"Conflict_Resolution"	"RIGHT"	"RIGHT"	395.872999999938	1150.0000023	n/a	n/a	n/a	n/a	"False"	n/a	n/a	"2020-12-22 14:13:40.562634"	"2020-12-22 14:13:41.168439"	119	6.30511583333333
"S201222"	"Conflict_Resolution"	"LEFT"	"LEFT"	396.373699999913	1166.666669	n/a	n/a	n/a	n/a	"False"	n/a	n/a	"2020-12-22 14:13:42.354761"	"2020-12-22 14:13:42.959232"	120	6.30511583333333
"S201222"	"Conflict_Resolution"	"RIGHT"	"RIGHT"	490.021900000102	833.333335	n/a	n/a	n/a	n/a	"False"	n/a	n/a	"2020-12-22 14:13:43.813420"	"2020-12-22 14:13:44.511580"	121	6.30511583333333
"S201222"	"Conflict_Resolution"	"LEFT"	"LEFT"	431.29110000018	716.6666681	n/a	n/a	n/a	n/a	"False"	n/a	n/a	"2020-12-22 14:13:45.248174"	"2020-12-22 14:13:45.886518"	122	6.30511583333333
"S201222"	"Conflict_Resolution"	"LEFT"	"LEFT"	608.000100000027	1116.6666689	n/a	n/a	n/a	n/a	"True"	n/a	n/a	"2020-12-22 14:13:47.023115"	"2020-12-22 14:13:47.839435"	123	6.30511583333333
"S201222"	"Conflict_Resolution"	"LEFT"	"LEFT"	473.827399999891	850.0000017	n/a	n/a	n/a	n/a	"False"	n/a	n/a	"2020-12-22 14:13:48.709625"	"2020-12-22 14:13:49.391847"	124	6.30511583333333
"S201222"	"Conflict_Resolution"	"LEFT"	"LEFT"	433.911399999943	1216.6666691	n/a	n/a	n/a	n/a	"True"	n/a	n/a	"2020-12-22 14:13:50.629532"	"2020-12-22 14:13:51.271805"	125	6.30511583333333
"S201222"	"Conflict_Resolution"	"RIGHT"	"RIGHT"	411.10720000006	1216.6666691	n/a	n/a	n/a	n/a	"False"	n/a	n/a	"2020-12-22 14:13:52.508245"	"2020-12-22 14:13:53.126590"	126	6.30511583333333
"S201222"	"Conflict_Resolution"	"LEFT"	"LEFT"	436.903999999913	633.3333346	n/a	n/a	n/a	n/a	"False"	n/a	n/a	"2020-12-22 14:13:53.777863"	"2020-12-22 14:13:54.424147"	127	6.30511583333333
"S201222"	"Conflict_Resolution"	"LEFT"	"LEFT"	434.40499999997	1250.0000025	n/a	n/a	n/a	n/a	"False"	n/a	n/a	"2020-12-22 14:13:55.692694"	"2020-12-22 14:13:56.334484"	128	6.30511583333333
"S201222"	"Conflict_Resolution"	"LEFT"	"LEFT"	412.177500000098	1200.0000024	n/a	n/a	n/a	n/a	"False"	n/a	n/a	"2020-12-22 14:13:57.554488"	"2020-12-22 14:13:58.174366"	129	6.30511583333333
"S201222"	"Conflict_Resolution"	"RIGHT"	"RIGHT"	571.68630000001	1000.000002	n/a	n/a	n/a	n/a	"True"	n/a	n/a	"2020-12-22 14:13:59.195609"	"2020-12-22 14:13:59.976473"	130	6.30511583333333
"S201222"	"Conflict_Resolution"	"LEFT"	"LEFT"	450.251700000081	816.6666683	n/a	n/a	n/a	n/a	"False"	n/a	n/a	"2020-12-22 14:14:00.812427"	"2020-12-22 14:14:01.471183"	131	6.30511583333333
"S201222"	"Conflict_Resolution"	"RIGHT"	"RIGHT"	740.097200000037	783.3333349	n/a	n/a	n/a	n/a	"True"	n/a	n/a	"2020-12-22 14:14:02.274571"	"2020-12-22 14:14:03.224233"	132	6.30511583333333
"S201222"	"Conflict_Resolution"	"RIGHT"	"RIGHT"	614.844399999811	650.0000013	n/a	n/a	n/a	n/a	"True"	n/a	n/a	"2020-12-22 14:14:03.895966"	"2020-12-22 14:14:04.718271"	133	6.30511583333333
"S201222"	"Conflict_Resolution"	"RIGHT"	"RIGHT"	378.828399999975	650.0000013	n/a	n/a	n/a	n/a	"False"	n/a	n/a	"2020-12-22 14:14:05.388518"	"2020-12-22 14:14:05.975325"	134	6.30511583333333
"S201222"	"Conflict_Resolution"	"RIGHT"	"RIGHT"	619.134400000121	1416.6666695	n/a	n/a	n/a	n/a	"True"	n/a	n/a	"2020-12-22 14:14:07.412601"	"2020-12-22 14:14:08.239894"	135	6.30511583333333
"S201222"	"Conflict_Resolution"	"LEFT"	"LEFT"	462.181000000101	950.0000019	n/a	n/a	n/a	n/a	"False"	n/a	n/a	"2020-12-22 14:14:09.208402"	"2020-12-22 14:14:09.880130"	136	6.30511583333333
"S201222"	"Conflict_Resolution"	"RIGHT"	"RIGHT"	517.79149999993	1133.3333356	n/a	n/a	n/a	n/a	"True"	n/a	n/a	"2020-12-22 14:14:11.033074"	"2020-12-22 14:14:11.759164"	137	6.30511583333333
"S201222"	"Conflict_Resolution"	"LEFT"	"LEFT"	540.949999999839	766.6666682	n/a	n/a	n/a	n/a	"True"	n/a	n/a	"2020-12-22 14:14:12.546095"	"2020-12-22 14:14:13.297129"	138	6.30511583333333
"S201222"	"Conflict_Resolution"	"RIGHT"	"RIGHT"	491.908200000125	950.0000019	n/a	n/a	n/a	n/a	"True"	n/a	n/a	"2020-12-22 14:14:14.267584"	"2020-12-22 14:14:14.968967"	139	6.30511583333333
"S201222"	"Conflict_Resolution"	"RIGHT"	"RIGHT"	428.585200000043	1366.6666694	n/a	n/a	n/a	n/a	"False"	n/a	n/a	"2020-12-22 14:14:16.354249"	"2020-12-22 14:14:16.991761"	140	6.30511583333333
"S201222"	"Conflict_Resolution"	"RIGHT"	"RIGHT"	460.811299999932	550.0000011	n/a	n/a	n/a	n/a	"False"	n/a	n/a	"2020-12-22 14:14:17.562613"	"2020-12-22 14:14:18.231226"	141	6.30511583333333
"S201222"	"Conflict_Resolution"	"RIGHT"	"RIGHT"	472.153000000162	883.3333351	n/a	n/a	n/a	n/a	"True"	n/a	n/a	"2020-12-22 14:14:19.134338"	"2020-12-22 14:14:19.816029"	142	6.30511583333333
"S201222"	"Conflict_Resolution"	"RIGHT"	"RIGHT"	459.66280000016	1433.3333362	n/a	n/a	n/a	n/a	"True"	n/a	n/a	"2020-12-22 14:14:21.267744"	"2020-12-22 14:14:21.935865"	143	6.30511583333333
"S201222"	"Conflict_Resolution"	"RIGHT"	"RIGHT"	485.114999999951	533.3333344	n/a	n/a	n/a	n/a	"False"	n/a	n/a	"2020-12-22 14:14:22.489980"	"2020-12-22 14:14:23.183154"	144	6.30511583333333
"S201222"	"Conflict_Resolution"	"RIGHT"	"RIGHT"	351.361999999881	683.3333347	n/a	n/a	n/a	n/a	"False"	n/a	n/a	"2020-12-22 14:14:23.887747"	"2020-12-22 14:14:24.448747"	145	6.30511583333333
"S201222"	"Conflict_Resolution"	"RIGHT"	"RIGHT"	324.713099999826	500.000001	n/a	n/a	n/a	n/a	"False"	n/a	n/a	"2020-12-22 14:14:24.970370"	"2020-12-22 14:14:25.503983"	146	6.30511583333333
"S201222"	"Conflict_Resolution"	"LEFT"	"LEFT"	512.205200000153	666.666668	n/a	n/a	n/a	n/a	"True"	n/a	n/a	"2020-12-22 14:14:26.191102"	"2020-12-22 14:14:26.911248"	147	6.30511583333333
"S201222"	"Conflict_Resolution"	"RIGHT"	"RIGHT"	596.340800000007	1333.333336	n/a	n/a	n/a	n/a	"True"	n/a	n/a	"2020-12-22 14:14:28.267033"	"2020-12-22 14:14:29.071948"	148	6.30511583333333
"S201222"	"Conflict_Resolution"	"LEFT"	"LEFT"	609.442700000045	866.6666684	n/a	n/a	n/a	n/a	"True"	n/a	n/a	"2020-12-22 14:14:29.957777"	"2020-12-22 14:14:30.774604"	149	6.30511583333333
"S201222"	"Conflict_Resolution"	"LEFT"	"LEFT"	625.62939999998	1250.0000025	n/a	n/a	n/a	n/a	"True"	n/a	n/a	"2020-12-22 14:14:32.045760"	"2020-12-22 14:14:32.880033"	150	6.30511583333333
"S201222"	"Conflict_Resolution"	"LEFT"	"LEFT"	562.579899999946	1416.6666695	n/a	n/a	n/a	n/a	"True"	n/a	n/a	"2020-12-22 14:14:34.316879"	"2020-12-22 14:14:35.086372"	151	6.30511583333333
"S201222"	"Conflict_Resolution"	"RIGHT"	"RIGHT"	610.04939999998	833.333335	n/a	n/a	n/a	n/a	"True"	n/a	n/a	"2020-12-22 14:14:35.941111"	"2020-12-22 14:14:36.758479"	152	6.30511583333333
"S201222"	"Conflict_Resolution"	"LEFT"	"LEFT"	503.693599999906	900.0000018	n/a	n/a	n/a	n/a	"False"	n/a	n/a	"2020-12-22 14:14:37.679489"	"2020-12-22 14:14:38.392088"	153	6.30511583333333
"S201222"	"Conflict_Resolution"	"LEFT"	"LEFT"	534.817699999849	1100.0000022	n/a	n/a	n/a	n/a	"True"	n/a	n/a	"2020-12-22 14:14:39.512611"	"2020-12-22 14:14:40.256125"	154	6.30511583333333
"S201222"	"Conflict_Resolution"	"RIGHT"	"RIGHT"	661.730900000066	750.0000015	n/a	n/a	n/a	n/a	"True"	n/a	n/a	"2020-12-22 14:14:41.025747"	"2020-12-22 14:14:41.894457"	155	6.30511583333333
"S201222"	"Conflict_Resolution"	"RIGHT"	"RIGHT"	550.681999999824	1150.0000023	n/a	n/a	n/a	n/a	"True"	n/a	n/a	"2020-12-22 14:14:43.064312"	"2020-12-22 14:14:43.823782"	156	6.30511583333333
"S201222"	"Conflict_Resolution"	"RIGHT"	"RIGHT"	445.024699999976	1183.3333357	n/a	n/a	n/a	n/a	"False"	n/a	n/a	"2020-12-22 14:14:45.025569"	"2020-12-22 14:14:45.681928"	157	6.30511583333333
"S201222"	"Conflict_Resolution"	"RIGHT"	"RIGHT"	513.746000000083	1383.3333361	n/a	n/a	n/a	n/a	"True"	n/a	n/a	"2020-12-22 14:14:47.085346"	"2020-12-22 14:14:47.806713"	158	6.30511583333333
"S201222"	"Conflict_Resolution"	"LEFT"	"LEFT"	475.465200000144	966.6666686	n/a	n/a	n/a	n/a	"False"	n/a	n/a	"2020-12-22 14:14:48.795737"	"2020-12-22 14:14:49.478412"	159	6.30511583333333
"S201222"	"Conflict_Resolution"	"RIGHT"	"RIGHT"	525.34710000009	583.3333345	n/a	n/a	n/a	n/a	"True"	n/a	n/a	"2020-12-22 14:14:50.081812"	"2020-12-22 14:14:50.816861"	160	6.30511583333333
"S201222"	"Processing_Speed"	"LEFT"	"DOWN"	516.635900000011	1366.6666694	""	n/a	n/a	n/a	n/a	n/a	n/a	"2020-12-22 13:57:43.138925"	"2020-12-22 13:57:43.880653"	1	2.78213413333333
"S201222"	"Processing_Speed"	"RIGHT"	"DOWN"	288.431899999992	1333.333336	""	n/a	n/a	n/a	n/a	n/a	n/a	"2020-12-22 13:57:45.223033"	"2020-12-22 13:57:45.719174"	2	2.78213413333333
"S201222"	"Processing_Speed"	"RIGHT"	"DOWN"	297.079300000007	950.0000019	""	n/a	n/a	n/a	n/a	n/a	n/a	"2020-12-22 13:57:46.678126"	"2020-12-22 13:57:47.184930"	3	2.78213413333333
"S201222"	"Processing_Speed"	"RIGHT"	"DOWN"	274.419699999996	1266.6666692	""	n/a	n/a	n/a	n/a	n/a	n/a	"2020-12-22 13:57:48.460437"	"2020-12-22 13:57:48.943173"	4	2.78213413333333
"S201222"	"Processing_Speed"	"LEFT"	"DOWN"	309.649100000001	1433.3333362	""	n/a	n/a	n/a	n/a	n/a	n/a	"2020-12-22 13:57:50.385946"	"2020-12-22 13:57:50.902610"	5	2.78213413333333
"S201222"	"Processing_Speed"	"RIGHT"	"DOWN"	350.156800000008	1016.6666687	""	n/a	n/a	n/a	n/a	n/a	n/a	"2020-12-22 13:57:51.928853"	"2020-12-22 13:57:52.486371"	6	2.78213413333333
"S201222"	"Processing_Speed"	"LEFT"	"DOWN"	275.2634	700.0000014	""	n/a	n/a	n/a	n/a	n/a	n/a	"2020-12-22 13:57:53.195476"	"2020-12-22 13:57:53.679734"	7	2.78213413333333
"S201222"	"Processing_Speed"	"RIGHT"	"DOWN"	247.138399999983	983.3333353	""	n/a	n/a	n/a	n/a	n/a	n/a	"2020-12-22 13:57:54.672536"	"2020-12-22 13:57:55.127353"	8	2.78213413333333
"S201222"	"Processing_Speed"	"RIGHT"	"DOWN"	456.744600000007	1150.0000023	"DOWN"	-106.719	n/a	n/a	n/a	n/a	n/a	"2020-12-22 13:57:56.286779"	"2020-12-22 13:57:56.953018"	9	2.78213413333333
"S201222"	"Processing_Speed"	"RIGHT"	"DOWN"	338.784300000015	850.0000017	""	n/a	n/a	n/a	n/a	n/a	n/a	"2020-12-22 13:57:57.812740"	"2020-12-22 13:57:58.359843"	10	2.78213413333333
"S201222"	"Processing_Speed"	"RIGHT"	"DOWN"	302.899200000013	566.6666678	""	n/a	n/a	n/a	n/a	n/a	n/a	"2020-12-22 13:57:58.936816"	"2020-12-22 13:57:59.447953"	11	2.78213413333333
"S201222"	"Processing_Speed"	"RIGHT"	"DOWN"	317.366300000003	816.6666683	""	n/a	n/a	n/a	n/a	n/a	n/a	"2020-12-22 13:58:00.274289"	"2020-12-22 13:58:00.800452"	12	2.78213413333333
"S201222"	"Processing_Speed"	"LEFT"	"DOWN"	251.141700000005	1016.6666687	""	n/a	n/a	n/a	n/a	n/a	n/a	"2020-12-22 13:58:01.827586"	"2020-12-22 13:58:02.286458"	13	2.78213413333333
"S201222"	"Processing_Speed"	"LEFT"	"DOWN"	341.592100000014	816.6666683	""	n/a	n/a	n/a	n/a	n/a	n/a	"2020-12-22 13:58:03.113269"	"2020-12-22 13:58:03.664842"	14	2.78213413333333
"S201222"	"Processing_Speed"	"LEFT"	"DOWN"	335.928499999994	950.0000019	""	n/a	n/a	n/a	n/a	n/a	n/a	"2020-12-22 13:58:04.623747"	"2020-12-22 13:58:05.166600"	15	2.78213413333333
"S201222"	"Processing_Speed"	"LEFT"	"DOWN"	260.740800000008	1266.6666692	""	n/a	n/a	n/a	n/a	n/a	n/a	"2020-12-22 13:58:06.442743"	"2020-12-22 13:58:06.913625"	16	2.78213413333333
"S201222"	"Processing_Speed"	"RIGHT"	"DOWN"	317.898099999979	1183.3333357	""	n/a	n/a	n/a	n/a	n/a	n/a	"2020-12-22 13:58:08.104984"	"2020-12-22 13:58:08.631590"	17	2.78213413333333
"S201222"	"Processing_Speed"	"RIGHT"	"DOWN"	322.428000000002	1116.6666689	""	n/a	n/a	n/a	n/a	n/a	n/a	"2020-12-22 13:58:09.756593"	"2020-12-22 13:58:10.289145"	18	2.78213413333333
"S201222"	"Processing_Speed"	"LEFT"	"DOWN"	269.104599999991	1400.0000028	""	n/a	n/a	n/a	n/a	n/a	n/a	"2020-12-22 13:58:11.698408"	"2020-12-22 13:58:12.175336"	19	2.78213413333333
"S201222"	"Processing_Speed"	"RIGHT"	"DOWN"	310.362900000001	1400.0000028	""	n/a	n/a	n/a	n/a	n/a	n/a	"2020-12-22 13:58:13.584570"	"2020-12-22 13:58:14.103498"	20	2.78213413333333
"S201222"	"Processing_Speed"	"LEFT"	"DOWN"	313.657000000006	733.3333348	""	n/a	n/a	n/a	n/a	n/a	n/a	"2020-12-22 13:58:14.846024"	"2020-12-22 13:58:15.367201"	21	2.78213413333333
"S201222"	"Processing_Speed"	"LEFT"	"DOWN"	336.916500000001	1150.0000023	""	n/a	n/a	n/a	n/a	n/a	n/a	"2020-12-22 13:58:16.526683"	"2020-12-22 13:58:17.071232"	22	2.78213413333333
"S201222"	"Processing_Speed"	"RIGHT"	"DOWN"	263.405599999999	1366.6666694	""	n/a	n/a	n/a	n/a	n/a	n/a	"2020-12-22 13:58:18.447708"	"2020-12-22 13:58:18.918545"	23	2.78213413333333
"S201222"	"Processing_Speed"	"LEFT"	"DOWN"	292.135099999996	1083.3333355	""	n/a	n/a	n/a	n/a	n/a	n/a	"2020-12-22 13:58:20.011129"	"2020-12-22 13:58:20.512417"	24	2.78213413333333
"S201222"	"Processing_Speed"	"RIGHT"	"DOWN"	305.205699999988	883.3333351	""	n/a	n/a	n/a	n/a	n/a	n/a	"2020-12-22 13:58:21.406004"	"2020-12-22 13:58:21.919664"	25	2.78213413333333
"S201222"	"Processing_Speed"	"LEFT"	"DOWN"	282.963099999989	1300.0000026	""	n/a	n/a	n/a	n/a	n/a	n/a	"2020-12-22 13:58:23.228739"	"2020-12-22 13:58:23.718422"	26	2.78213413333333
"S201222"	"Processing_Speed"	"LEFT"	"DOWN"	275.319200000013	1500.000003	""	n/a	n/a	n/a	n/a	n/a	n/a	"2020-12-22 13:58:25.227976"	"2020-12-22 13:58:25.711474"	27	2.78213413333333
"S201222"	"Processing_Speed"	"RIGHT"	"DOWN"	412.478399999998	600.0000012	""	n/a	n/a	n/a	n/a	n/a	n/a	"2020-12-22 13:58:26.322826"	"2020-12-22 13:58:26.943200"	28	2.78213413333333
"S201222"	"Processing_Speed"	"LEFT"	"DOWN"	416.331700000001	533.3333344	""	n/a	n/a	n/a	n/a	n/a	n/a	"2020-12-22 13:58:27.486735"	"2020-12-22 13:58:28.110615"	29	2.78213413333333
"S201222"	"Processing_Speed"	"LEFT"	"DOWN"	334.782899999993	633.3333346	""	n/a	n/a	n/a	n/a	n/a	n/a	"2020-12-22 13:58:28.752854"	"2020-12-22 13:58:29.294374"	30	2.78213413333333
"S201222"	"Processing_Speed"	"LEFT"	"DOWN"	317.572000000013	850.0000017	""	n/a	n/a	n/a	n/a	n/a	n/a	"2020-12-22 13:58:30.153571"	"2020-12-22 13:58:30.679619"	31	2.78213413333333
"S201222"	"Processing_Speed"	"LEFT"	"DOWN"	296.256400000004	1333.333336	""	n/a	n/a	n/a	n/a	n/a	n/a	"2020-12-22 13:58:32.022592"	"2020-12-22 13:58:32.528743"	32	2.78213413333333
"S201222"	"Processing_Speed"	"RIGHT"	"DOWN"	425.29429999999	1300.0000026	""	n/a	n/a	n/a	n/a	n/a	n/a	"2020-12-22 13:58:33.837800"	"2020-12-22 13:58:34.472103"	33	2.78213413333333
"S201222"	"Processing_Speed"	"LEFT"	"DOWN"	326.937600000008	983.3333353	""	n/a	n/a	n/a	n/a	n/a	n/a	"2020-12-22 13:58:35.464092"	"2020-12-22 13:58:36.000672"	34	2.78213413333333
"S201222"	"Processing_Speed"	"RIGHT"	"DOWN"	288.986200000011	1500.000003	""	n/a	n/a	n/a	n/a	n/a	n/a	"2020-12-22 13:58:37.510673"	"2020-12-22 13:58:38.008341"	35	2.78213413333333
"S201222"	"Processing_Speed"	"LEFT"	"DOWN"	363.642899999974	1050.0000021	""	n/a	n/a	n/a	n/a	n/a	n/a	"2020-12-22 13:58:39.068047"	"2020-12-22 13:58:39.640279"	36	2.78213413333333
"S201222"	"Processing_Speed"	"RIGHT"	"DOWN"	314.574499999992	1466.6666696	""	n/a	n/a	n/a	n/a	n/a	n/a	"2020-12-22 13:58:41.116191"	"2020-12-22 13:58:41.639791"	37	2.78213413333333
"S201222"	"Processing_Speed"	"RIGHT"	"DOWN"	361.526499999997	916.6666685	""	n/a	n/a	n/a	n/a	n/a	n/a	"2020-12-22 13:58:42.565845"	"2020-12-22 13:58:43.137097"	38	2.78213413333333
"S201222"	"Processing_Speed"	"RIGHT"	"DOWN"	374.544499999985	533.3333344	""	n/a	n/a	n/a	n/a	n/a	n/a	"2020-12-22 13:58:43.681102"	"2020-12-22 13:58:44.263710"	39	2.78213413333333
"S201222"	"Processing_Speed"	"RIGHT"	"DOWN"	311.500800000005	783.3333349	""	n/a	n/a	n/a	n/a	n/a	n/a	"2020-12-22 13:58:45.056052"	"2020-12-22 13:58:45.575527"	40	2.78213413333333
"S201222"	"Processing_Speed"	"RIGHT"	"DOWN"	292.319599999985	1433.3333362	""	n/a	n/a	n/a	n/a	n/a	n/a	"2020-12-22 13:58:47.019217"	"2020-12-22 13:58:47.519382"	41	2.78213413333333
"S201222"	"Processing_Speed"	"LEFT"	"DOWN"	300.556099999994	1466.6666696	""	n/a	n/a	n/a	n/a	n/a	n/a	"2020-12-22 13:58:48.994958"	"2020-12-22 13:58:49.503214"	42	2.78213413333333
"S201222"	"Processing_Speed"	"RIGHT"	"DOWN"	337.594800000005	500.000001	""	n/a	n/a	n/a	n/a	n/a	n/a	"2020-12-22 13:58:50.013965"	"2020-12-22 13:58:50.559533"	43	2.78213413333333
"S201222"	"Processing_Speed"	"RIGHT"	"DOWN"	308.204100000012	1050.0000021	""	n/a	n/a	n/a	n/a	n/a	n/a	"2020-12-22 13:58:51.619359"	"2020-12-22 13:58:52.136013"	44	2.78213413333333
"S201222"	"Processing_Speed"	"LEFT"	"DOWN"	271.925900000014	1116.6666689	""	n/a	n/a	n/a	n/a	n/a	n/a	"2020-12-22 13:58:53.263505"	"2020-12-22 13:58:53.743241"	45	2.78213413333333
"S201222"	"Processing_Speed"	"LEFT"	"DOWN"	441.46120000002	500.000001	""	n/a	n/a	n/a	n/a	n/a	n/a	"2020-12-22 13:58:54.253882"	"2020-12-22 13:58:54.903884"	46	2.78213413333333
"S201222"	"Processing_Speed"	"LEFT"	"DOWN"	723.158100000006	666.666668	""	n/a	n/a	n/a	n/a	n/a	n/a	"2020-12-22 13:58:55.580097"	"2020-12-22 13:58:56.512603"	47	2.78213413333333
"S201222"	"Processing_Speed"	"LEFT"	"DOWN"	542.342200000007	566.6666678	""	n/a	n/a	n/a	n/a	n/a	n/a	"2020-12-22 13:58:57.089077"	"2020-12-22 13:58:57.839495"	48	2.78213413333333
"S201222"	"Processing_Speed"	"RIGHT"	"DOWN"	421.295499999985	1216.6666691	""	n/a	n/a	n/a	n/a	n/a	n/a	"2020-12-22 13:58:59.065712"	"2020-12-22 13:58:59.695886"	49	2.78213413333333
"S201222"	"Processing_Speed"	"RIGHT"	"DOWN"	476.313400000009	666.666668	""	n/a	n/a	n/a	n/a	n/a	n/a	"2020-12-22 13:59:00.371609"	"2020-12-22 13:59:01.057780"	50	2.78213413333333
"S201222"	"Processing_Speed"	"LEFT"	"DOWN"	339.295200000009	1216.6666691	""	n/a	n/a	n/a	n/a	n/a	n/a	"2020-12-22 13:59:02.283689"	"2020-12-22 13:59:02.831945"	51	2.78213413333333
"S201222"	"Processing_Speed"	"LEFT"	"DOWN"	263.678900000002	783.3333349	""	n/a	n/a	n/a	n/a	n/a	n/a	"2020-12-22 13:59:03.623288"	"2020-12-22 13:59:04.095601"	52	2.78213413333333
"S201222"	"Processing_Speed"	"LEFT"	"DOWN"	414.3799	600.0000012	""	n/a	n/a	n/a	n/a	n/a	n/a	"2020-12-22 13:59:04.705007"	"2020-12-22 13:59:05.326374"	53	2.78213413333333
"S201222"	"Processing_Speed"	"RIGHT"	"DOWN"	291.229799999996	1083.3333355	""	n/a	n/a	n/a	n/a	n/a	n/a	"2020-12-22 13:59:06.420342"	"2020-12-22 13:59:06.919509"	54	2.78213413333333
"S201222"	"Processing_Speed"	"RIGHT"	"DOWN"	341.348000000011	633.3333346	""	n/a	n/a	n/a	n/a	n/a	n/a	"2020-12-22 13:59:07.561758"	"2020-12-22 13:59:08.111646"	55	2.78213413333333
"S201222"	"Processing_Speed"	"RIGHT"	"DOWN"	321.535900000015	733.3333348	""	n/a	n/a	n/a	n/a	n/a	n/a	"2020-12-22 13:59:08.853664"	"2020-12-22 13:59:09.383293"	56	2.78213413333333
"S201222"	"Processing_Speed"	"LEFT"	"DOWN"	276.095700000013	883.3333351	""	n/a	n/a	n/a	n/a	n/a	n/a	"2020-12-22 13:59:10.275370"	"2020-12-22 13:59:10.759814"	57	2.78213413333333
"S201222"	"Processing_Speed"	"RIGHT"	"DOWN"	322.152399999993	700.0000014	""	n/a	n/a	n/a	n/a	n/a	n/a	"2020-12-22 13:59:11.469469"	"2020-12-22 13:59:12.000081"	58	2.78213413333333
"S201222"	"Processing_Speed"	"LEFT"	"DOWN"	297.847599999983	916.6666685	""	n/a	n/a	n/a	n/a	n/a	n/a	"2020-12-22 13:59:12.925113"	"2020-12-22 13:59:13.431286"	59	2.78213413333333
"S201222"	"Processing_Speed"	"LEFT"	"DOWN"	277.582899999999	1183.3333357	""	n/a	n/a	n/a	n/a	n/a	n/a	"2020-12-22 13:59:14.626110"	"2020-12-22 13:59:15.112861"	60	2.78213413333333
"S201222"	"Response_Inhibition"	"LEFT"	"Time_Max_Exceeded"	1500.05933339999	550.0000011	""	n/a	n/a	n/a	n/a	n/a	n/a	"2020-12-22 14:03:04.306537"	"2020-12-22 14:03:05.809707"	1	6.43253455
"S201222"	"Response_Inhibition"	"LEFT"	"LEFT"	485.956399999964	700.0000014	""	n/a	n/a	n/a	n/a	n/a	n/a	"2020-12-22 14:03:06.521278"	"2020-12-22 14:03:07.214594"	2	6.43253455
"S201222"	"Response_Inhibition"	"RIGHT"	"RIGHT"	378.406600000005	533.3333344	""	n/a	n/a	n/a	n/a	n/a	n/a	"2020-12-22 14:03:07.757106"	"2020-12-22 14:03:08.343169"	3	6.43253455
"S201222"	"Response_Inhibition"	"LEFT"	"LEFT"	323.164799999972	1083.3333355	""	n/a	n/a	n/a	n/a	n/a	n/a	"2020-12-22 14:03:09.436319"	"2020-12-22 14:03:09.967449"	4	6.43253455
"S201222"	"Response_Inhibition"	"RIGHT"	"RIGHT"	281.455433600023	1216.6666691	""	n/a	n/a	n/a	n/a	n/a	n/a	"2020-12-22 14:03:11.193905"	"2020-12-22 14:03:11.688038"	5	6.43253455
"S201222"	"Response_Inhibition"	"LEFT"	"LEFT"	576.056600000015	750.0000015	""	n/a	n/a	n/a	n/a	n/a	n/a	"2020-12-22 14:03:12.446975"	"2020-12-22 14:03:13.231828"	6	6.43253455
"S201222"	"Response_Inhibition"	"LEFT"	"LEFT"	348.137799999961	1433.3333362	""	n/a	n/a	n/a	n/a	n/a	n/a	"2020-12-22 14:03:14.675086"	"2020-12-22 14:03:15.232122"	7	6.43253455
"S201222"	"Response_Inhibition"	"LEFT"	"LEFT"	338.969566999977	800.0000016	""	n/a	n/a	n/a	n/a	n/a	n/a	"2020-12-22 14:03:16.040961"	"2020-12-22 14:03:16.591686"	8	6.43253455
"S201222"	"Response_Inhibition"	"RIGHT"	"Time_Max_Exceeded"	1500.05853370001	766.6666682	""	n/a	n/a	n/a	n/a	n/a	n/a	"2020-12-22 14:03:17.367080"	"2020-12-22 14:03:18.870705"	9	6.43253455
"S201222"	"Response_Inhibition"	"LEFT"	"LEFT"	462.925000000041	783.3333349	""	n/a	n/a	n/a	n/a	n/a	n/a	"2020-12-22 14:03:19.664089"	"2020-12-22 14:03:20.335316"	10	6.43253455
"S201222"	"Response_Inhibition"	"LEFT"	"LEFT"	364.143700300022	716.6666681	""	n/a	n/a	n/a	n/a	n/a	n/a	"2020-12-22 14:03:21.062876"	"2020-12-22 14:03:21.640098"	11	6.43253455
"S201222"	"Response_Inhibition"	"RIGHT"	"RIGHT"	967.428999999981	1150.0000023	""	n/a	n/a	n/a	n/a	n/a	n/a	"2020-12-22 14:03:22.799651"	"2020-12-22 14:03:23.975201"	12	6.43253455
"S201222"	"Response_Inhibition"	"LEFT"	"LEFT"	828.632599999992	633.3333346	""	n/a	n/a	n/a	n/a	n/a	n/a	"2020-12-22 14:03:24.618482"	"2020-12-22 14:03:25.655554"	13	6.43253455
"S201222"	"Response_Inhibition"	"RIGHT"	"Time_Max_Exceeded"	1500.08180020001	1183.3333357	""	n/a	n/a	n/a	n/a	n/a	n/a	"2020-12-22 14:03:26.847360"	"2020-12-22 14:03:28.350864"	14	6.43253455
"S201222"	"Response_Inhibition"	"LEFT"	"LEFT"	655.438600000025	950.0000019	""	n/a	n/a	n/a	n/a	n/a	n/a	"2020-12-22 14:03:29.311339"	"2020-12-22 14:03:30.174766"	15	6.43253455
"S201222"	"Response_Inhibition"	"RIGHT"	"RIGHT"	553.222000000005	1066.6666688	""	n/a	n/a	n/a	n/a	n/a	n/a	"2020-12-22 14:03:31.253405"	"2020-12-22 14:03:32.014415"	16	6.43253455
"S201222"	"Response_Inhibition"	"RIGHT"	"RIGHT"	709.247500000004	1033.3333354	""	n/a	n/a	n/a	n/a	n/a	n/a	"2020-12-22 14:03:33.058096"	"2020-12-22 14:03:33.976787"	17	6.43253455
"S201222"	"Response_Inhibition"	"RIGHT"	"RIGHT"	378.535700500043	1350.0000027	""	n/a	n/a	n/a	n/a	n/a	n/a	"2020-12-22 14:03:35.337177"	"2020-12-22 14:03:35.927338"	18	6.43253455
"S201222"	"Response_Inhibition"	"LEFT"	"LEFT"	723.242199999959	900.0000018	""	n/a	n/a	n/a	n/a	n/a	n/a	"2020-12-22 14:03:36.835875"	"2020-12-22 14:03:37.768418"	19	6.43253455
"S201222"	"Response_Inhibition"	"LEFT"	"Time_Max_Exceeded"	1500.04536699997	1266.6666692	""	n/a	n/a	n/a	n/a	n/a	n/a	"2020-12-22 14:03:39.044017"	"2020-12-22 14:03:40.548005"	20	6.43253455
"S201222"	"Response_Inhibition"	"LEFT"	"LEFT"	690.974700000027	1366.6666694	""	n/a	n/a	n/a	n/a	n/a	n/a	"2020-12-22 14:03:41.923983"	"2020-12-22 14:03:42.824089"	21	6.43253455
"S201222"	"Response_Inhibition"	"RIGHT"	"Time_Max_Exceeded"	1500.04933389996	650.0000013	""	n/a	n/a	n/a	n/a	n/a	n/a	"2020-12-22 14:03:43.483832"	"2020-12-22 14:03:44.986844"	22	6.43253455
"S201222"	"Response_Inhibition"	"RIGHT"	"RIGHT"	752.629800000022	1216.6666691	""	n/a	n/a	n/a	n/a	n/a	n/a	"2020-12-22 14:03:46.214079"	"2020-12-22 14:03:47.175933"	23	6.43253455
"S201222"	"Response_Inhibition"	"LEFT"	"Time_Max_Exceeded"	1500.08976729997	1116.6666689	""	n/a	n/a	n/a	n/a	n/a	n/a	"2020-12-22 14:03:48.301762"	"2020-12-22 14:03:49.804804"	24	6.43253455
"S201222"	"Response_Inhibition"	"LEFT"	"Time_Max_Exceeded"	1500.05526710002	1100.0000022	""	n/a	n/a	n/a	n/a	n/a	n/a	"2020-12-22 14:03:50.913835"	"2020-12-22 14:03:52.416852"	25	6.43253455
"S201222"	"Response_Inhibition"	"RIGHT"	"Time_Max_Exceeded"	1500.05100019996	833.333335	""	n/a	n/a	n/a	n/a	n/a	n/a	"2020-12-22 14:03:53.260608"	"2020-12-22 14:03:54.764124"	26	6.43253455
"S201222"	"Response_Inhibition"	"RIGHT"	"RIGHT"	737.360800000033	816.6666683	""	n/a	n/a	n/a	n/a	n/a	n/a	"2020-12-22 14:03:55.589926"	"2020-12-22 14:03:56.535157"	27	6.43253455
"S201222"	"Response_Inhibition"	"RIGHT"	"RIGHT"	863.030199999969	1166.666669	""	n/a	n/a	n/a	n/a	n/a	n/a	"2020-12-22 14:03:57.712122"	"2020-12-22 14:03:58.783770"	28	6.43253455
"S201222"	"Response_Inhibition"	"LEFT"	"Time_Max_Exceeded"	1500.0547668	933.3333352	""	n/a	n/a	n/a	n/a	n/a	n/a	"2020-12-22 14:03:59.726788"	"2020-12-22 14:04:01.229609"	29	6.43253455
"S201222"	"Response_Inhibition"	"LEFT"	"Time_Max_Exceeded"	1500.07440010001	866.6666684	""	n/a	n/a	n/a	n/a	n/a	n/a	"2020-12-22 14:04:02.106235"	"2020-12-22 14:04:03.609800"	30	6.43253455
"S201222"	"Response_Inhibition"	"LEFT"	"LEFT"	799.759100000017	1100.0000022	""	n/a	n/a	n/a	n/a	n/a	n/a	"2020-12-22 14:04:04.719427"	"2020-12-22 14:04:05.726460"	31	6.43253455
"S201222"	"Response_Inhibition"	"RIGHT"	"RIGHT"	724.826699999994	683.3333347	""	n/a	n/a	n/a	n/a	n/a	n/a	"2020-12-22 14:04:06.418610"	"2020-12-22 14:04:07.351659"	32	6.43253455
"S201222"	"Response_Inhibition"	"RIGHT"	"RIGHT"	666.160200000036	1116.6666689	""	n/a	n/a	n/a	n/a	n/a	n/a	"2020-12-22 14:04:08.477156"	"2020-12-22 14:04:09.351885"	33	6.43253455
"S201222"	"Response_Inhibition"	"RIGHT"	"RIGHT"	642.425100000025	500.000001	""	n/a	n/a	n/a	n/a	n/a	n/a	"2020-12-22 14:04:09.860480"	"2020-12-22 14:04:10.711505"	34	6.43253455
"S201222"	"Response_Inhibition"	"RIGHT"	"Time_Max_Exceeded"	1500.0570338	1050.0000021	""	n/a	n/a	n/a	n/a	n/a	n/a	"2020-12-22 14:04:11.769786"	"2020-12-22 14:04:13.273461"	35	6.43253455
"S201222"	"Response_Inhibition"	"RIGHT"	"Time_Max_Exceeded"	1500.06863349997	1416.6666695	""	n/a	n/a	n/a	n/a	n/a	n/a	"2020-12-22 14:04:14.699575"	"2020-12-22 14:04:16.203689"	36	6.43253455
"S201222"	"Response_Inhibition"	"RIGHT"	"RIGHT"	891.53900000008	1366.6666694	""	n/a	n/a	n/a	n/a	n/a	n/a	"2020-12-22 14:04:17.579777"	"2020-12-22 14:04:18.680100"	37	6.43253455
"S201222"	"Response_Inhibition"	"RIGHT"	"RIGHT"	768.785600000001	733.3333348	""	n/a	n/a	n/a	n/a	n/a	n/a	"2020-12-22 14:04:19.422126"	"2020-12-22 14:04:20.399446"	38	6.43253455
"S201222"	"Response_Inhibition"	"LEFT"	"LEFT"	849.333099999967	533.3333344	""	n/a	n/a	n/a	n/a	n/a	n/a	"2020-12-22 14:04:20.942011"	"2020-12-22 14:04:21.999488"	39	6.43253455
"S201222"	"Response_Inhibition"	"RIGHT"	"RIGHT"	695.491899999979	1383.3333361	""	n/a	n/a	n/a	n/a	n/a	n/a	"2020-12-22 14:04:23.391429"	"2020-12-22 14:04:24.297018"	40	6.43253455
"S201222"	"Response_Inhibition"	"RIGHT"	"RIGHT"	741.381100000012	783.3333349	""	n/a	n/a	n/a	n/a	n/a	n/a	"2020-12-22 14:04:25.089908"	"2020-12-22 14:04:26.039687"	41	6.43253455
"S201222"	"Response_Inhibition"	"RIGHT"	"RIGHT"	749.995699999999	1200.0000024	""	n/a	n/a	n/a	n/a	n/a	n/a	"2020-12-22 14:04:27.248941"	"2020-12-22 14:04:28.207762"	42	6.43253455
"S201222"	"Response_Inhibition"	"RIGHT"	"Time_Max_Exceeded"	1500.05426699992	633.3333346	""	n/a	n/a	n/a	n/a	n/a	n/a	"2020-12-22 14:04:28.849551"	"2020-12-22 14:04:30.353037"	43	6.43253455
"S201222"	"Response_Inhibition"	"RIGHT"	"RIGHT"	972.716800000057	566.6666678	""	n/a	n/a	n/a	n/a	n/a	n/a	"2020-12-22 14:04:30.930520"	"2020-12-22 14:04:32.112239"	44	6.43253455
"S201222"	"Response_Inhibition"	"LEFT"	"Time_Max_Exceeded"	1500.05126670002	1016.6666687	""	n/a	n/a	n/a	n/a	n/a	n/a	"2020-12-22 14:04:33.138016"	"2020-12-22 14:04:34.640887"	45	6.43253455
"S201222"	"Response_Inhibition"	"RIGHT"	"RIGHT"	786.502100000007	850.0000017	""	n/a	n/a	n/a	n/a	n/a	n/a	"2020-12-22 14:04:35.500633"	"2020-12-22 14:04:36.496047"	46	6.43253455
"S201222"	"Response_Inhibition"	"LEFT"	"LEFT"	997.44469999996	1416.6666695	""	n/a	n/a	n/a	n/a	n/a	n/a	"2020-12-22 14:04:37.921766"	"2020-12-22 14:04:39.128145"	47	6.43253455
"S201222"	"Response_Inhibition"	"RIGHT"	"RIGHT"	902.693099999965	950.0000019	""	n/a	n/a	n/a	n/a	n/a	n/a	"2020-12-22 14:04:40.088123"	"2020-12-22 14:04:41.198222"	48	6.43253455
"S201222"	"Response_Inhibition"	"LEFT"	"LEFT"	772.524799999928	1050.0000021	""	n/a	n/a	n/a	n/a	n/a	n/a	"2020-12-22 14:04:42.258867"	"2020-12-22 14:04:43.238462"	49	6.43253455
"S201222"	"Response_Inhibition"	"LEFT"	"LEFT"	987.401999999975	900.0000018	""	n/a	n/a	n/a	n/a	n/a	n/a	"2020-12-22 14:04:44.148009"	"2020-12-22 14:04:45.345810"	50	6.43253455
"S201222"	"Response_Inhibition"	"LEFT"	"Time_Max_Exceeded"	1500.05356709998	633.3333346	""	n/a	n/a	n/a	n/a	n/a	n/a	"2020-12-22 14:04:45.987611"	"2020-12-22 14:04:47.491323"	51	6.43253455
"S201222"	"Response_Inhibition"	"LEFT"	"LEFT"	899.990099999968	766.6666682	""	n/a	n/a	n/a	n/a	n/a	n/a	"2020-12-22 14:04:48.266758"	"2020-12-22 14:04:49.374369"	52	6.43253455
"S201222"	"Response_Inhibition"	"LEFT"	"Time_Max_Exceeded"	1500.05830039993	1383.3333361	""	n/a	n/a	n/a	n/a	n/a	n/a	"2020-12-22 14:04:50.768403"	"2020-12-22 14:04:52.271908"	53	6.43253455
"S201222"	"Response_Inhibition"	"LEFT"	"Time_Max_Exceeded"	1500.04660039997	1466.6666696	""	n/a	n/a	n/a	n/a	n/a	n/a	"2020-12-22 14:04:53.748102"	"2020-12-22 14:04:55.252119"	54	6.43253455
"S201222"	"Response_Inhibition"	"RIGHT"	"Time_Max_Exceeded"	1500.04786719994	1083.3333355	""	n/a	n/a	n/a	n/a	n/a	n/a	"2020-12-22 14:04:56.346326"	"2020-12-22 14:04:57.849804"	55	6.43253455
"S201222"	"Response_Inhibition"	"LEFT"	"LEFT"	843.177900000001	1033.3333354	""	n/a	n/a	n/a	n/a	n/a	n/a	"2020-12-22 14:04:58.892060"	"2020-12-22 14:04:59.943920"	56	6.43253455
"S201222"	"Response_Inhibition"	"RIGHT"	"RIGHT"	1375.89100000002	983.3333353	""	n/a	n/a	n/a	n/a	n/a	n/a	"2020-12-22 14:05:00.935820"	"2020-12-22 14:05:02.519668"	57	6.43253455
"S201222"	"Response_Inhibition"	"LEFT"	"LEFT"	1378.29669999996	516.6666677	""	n/a	n/a	n/a	n/a	n/a	n/a	"2020-12-22 14:05:03.045272"	"2020-12-22 14:05:04.631573"	58	6.43253455
"S201222"	"Response_Inhibition"	"RIGHT"	"RIGHT"	1219.46800000001	1266.6666692	""	n/a	n/a	n/a	n/a	n/a	n/a	"2020-12-22 14:05:05.907643"	"2020-12-22 14:05:07.336174"	59	6.43253455
"S201222"	"Response_Inhibition"	"RIGHT"	"RIGHT"	1227.02160000006	1466.6666696	""	n/a	n/a	n/a	n/a	n/a	n/a	"2020-12-22 14:05:08.812222"	"2020-12-22 14:05:10.248597"	60	6.43253455
"S201222"	"Response_Inhibition"	"RIGHT"	"RIGHT"	1198.50250000002	1333.333336	""	n/a	n/a	n/a	n/a	n/a	n/a	"2020-12-22 14:05:11.592525"	"2020-12-22 14:05:12.999291"	61	6.43253455
"S201222"	"Response_Inhibition"	"RIGHT"	"RIGHT"	821.748000000071	1416.6666695	""	n/a	n/a	n/a	n/a	n/a	n/a	"2020-12-22 14:05:14.425745"	"2020-12-22 14:05:15.455787"	62	6.43253455
"S201222"	"Response_Inhibition"	"LEFT"	"LEFT"	825.772900000061	1483.3333363	""	n/a	n/a	n/a	n/a	n/a	n/a	"2020-12-22 14:05:16.948907"	"2020-12-22 14:05:17.983664"	63	6.43253455
"S201222"	"Response_Inhibition"	"RIGHT"	"Time_Max_Exceeded"	1500.04956720004	700.0000014	""	n/a	n/a	n/a	n/a	n/a	n/a	"2020-12-22 14:05:18.694288"	"2020-12-22 14:05:20.197283"	64	6.43253455
"S201222"	"Response_Inhibition"	"RIGHT"	"Time_Max_Exceeded"	1500.06240009998	1316.6666693	""	n/a	n/a	n/a	n/a	n/a	n/a	"2020-12-22 14:05:21.523831"	"2020-12-22 14:05:23.026846"	65	6.43253455
"S201222"	"Response_Inhibition"	"RIGHT"	"RIGHT"	724.038699999937	966.6666686	""	n/a	n/a	n/a	n/a	n/a	n/a	"2020-12-22 14:05:24.003368"	"2020-12-22 14:05:24.935609"	66	6.43253455
"S201222"	"Response_Inhibition"	"RIGHT"	"Time_Max_Exceeded"	1500.05966669998	1133.3333356	""	n/a	n/a	n/a	n/a	n/a	n/a	"2020-12-22 14:05:26.079410"	"2020-12-22 14:05:27.582445"	67	6.43253455
"S201222"	"Response_Inhibition"	"RIGHT"	"RIGHT"	1011.5849	1250.0000025	""	n/a	n/a	n/a	n/a	n/a	n/a	"2020-12-22 14:05:28.843209"	"2020-12-22 14:05:30.063975"	68	6.43253455
"S201222"	"Response_Inhibition"	"LEFT"	"Time_Max_Exceeded"	1500.05659999999	533.3333344	""	n/a	n/a	n/a	n/a	n/a	n/a	"2020-12-22 14:05:30.605527"	"2020-12-22 14:05:32.105603"	69	6.43253455
"S201222"	"Response_Inhibition"	"LEFT"	"LEFT"	1027.87510000007	600.0000012	""	n/a	n/a	n/a	n/a	n/a	n/a	"2020-12-22 14:05:32.715477"	"2020-12-22 14:05:33.951676"	70	6.43253455
"S201222"	"Response_Inhibition"	"LEFT"	"Time_Max_Exceeded"	1500.0522669	1450.0000029	""	n/a	n/a	n/a	n/a	n/a	n/a	"2020-12-22 14:05:35.410041"	"2020-12-22 14:05:36.914060"	71	6.43253455
"S201222"	"Response_Inhibition"	"LEFT"	"Time_Max_Exceeded"	1500.05526689999	683.3333347	""	n/a	n/a	n/a	n/a	n/a	n/a	"2020-12-22 14:05:37.607209"	"2020-12-22 14:05:39.110703"	72	6.43253455
"S201222"	"Response_Inhibition"	"RIGHT"	"RIGHT"	732.58409999994	1450.0000029	""	n/a	n/a	n/a	n/a	n/a	n/a	"2020-12-22 14:05:40.570831"	"2020-12-22 14:05:41.512058"	73	6.43253455
"S201222"	"Response_Inhibition"	"LEFT"	"Time_Max_Exceeded"	1500.05410050006	1316.6666693	""	n/a	n/a	n/a	n/a	n/a	n/a	"2020-12-22 14:05:42.838084"	"2020-12-22 14:05:44.341400"	74	6.43253455
"S201222"	"Response_Inhibition"	"RIGHT"	"Time_Max_Exceeded"	1500.05053390006	1483.3333363	""	n/a	n/a	n/a	n/a	n/a	n/a	"2020-12-22 14:05:45.835482"	"2020-12-22 14:05:47.338527"	75	6.43253455
"S201222"	"Response_Inhibition"	"RIGHT"	"Time_Max_Exceeded"	1500.09256680009	583.3333345	""	n/a	n/a	n/a	n/a	n/a	n/a	"2020-12-22 14:05:47.931942"	"2020-12-22 14:05:49.436065"	76	6.43253455
"S201222"	"Response_Inhibition"	"RIGHT"	"Time_Max_Exceeded"	1500.07120049998	950.0000019	""	n/a	n/a	n/a	n/a	n/a	n/a	"2020-12-22 14:05:50.396031"	"2020-12-22 14:05:51.899562"	77	6.43253455
"S201222"	"Response_Inhibition"	"LEFT"	"LEFT"	834.68890000006	783.3333349	""	n/a	n/a	n/a	n/a	n/a	n/a	"2020-12-22 14:05:52.692980"	"2020-12-22 14:05:53.735352"	78	6.43253455
"S201222"	"Response_Inhibition"	"LEFT"	"LEFT"	770.758999999998	683.3333347	""	n/a	n/a	n/a	n/a	n/a	n/a	"2020-12-22 14:05:54.428615"	"2020-12-22 14:05:55.407645"	79	6.43253455
"S201222"	"Response_Inhibition"	"RIGHT"	"RIGHT"	786.343299999999	1316.6666693	""	n/a	n/a	n/a	n/a	n/a	n/a	"2020-12-22 14:05:56.732635"	"2020-12-22 14:05:57.726567"	80	6.43253455
"S201222"	"Response_Inhibition"	"LEFT"	"Time_Max_Exceeded"	1500.06106690004	1066.6666688	""	n/a	n/a	n/a	n/a	n/a	n/a	"2020-12-22 14:05:58.802815"	"2020-12-22 14:06:00.306726"	81	6.43253455
"S201222"	"Response_Inhibition"	"LEFT"	"LEFT"	758.641800000078	666.666668	""	n/a	n/a	n/a	n/a	n/a	n/a	"2020-12-22 14:06:00.984756"	"2020-12-22 14:06:01.950671"	82	6.43253455
"S201222"	"Response_Inhibition"	"LEFT"	"Time_Max_Exceeded"	1500.05056720004	1183.3333357	""	n/a	n/a	n/a	n/a	n/a	n/a	"2020-12-22 14:06:03.142691"	"2020-12-22 14:06:04.646205"	83	6.43253455
"S201222"	"Response_Inhibition"	"RIGHT"	"Time_Max_Exceeded"	1500.05673380005	866.6666684	""	n/a	n/a	n/a	n/a	n/a	n/a	"2020-12-22 14:06:05.522889"	"2020-12-22 14:06:07.026470"	84	6.43253455
"S201222"	"Response_Inhibition"	"LEFT"	"Time_Max_Exceeded"	1500.05220029994	1366.6666694	""	n/a	n/a	n/a	n/a	n/a	n/a	"2020-12-22 14:06:08.403573"	"2020-12-22 14:06:09.907563"	85	6.43253455
"S201222"	"Response_Inhibition"	"RIGHT"	"RIGHT"	632.01509999999	1050.0000021	""	n/a	n/a	n/a	n/a	n/a	n/a	"2020-12-22 14:06:10.967338"	"2020-12-22 14:06:11.807764"	86	6.43253455
"S201222"	"Response_Inhibition"	"LEFT"	"LEFT"	629.108599999995	1416.6666695	""	n/a	n/a	n/a	n/a	n/a	n/a	"2020-12-22 14:06:13.234051"	"2020-12-22 14:06:14.073108"	87	6.43253455
"S201222"	"Response_Inhibition"	"LEFT"	"Time_Max_Exceeded"	1500.06056670001	616.6666679	""	n/a	n/a	n/a	n/a	n/a	n/a	"2020-12-22 14:06:14.698780"	"2020-12-22 14:06:16.201801"	88	6.43253455
"S201222"	"Response_Inhibition"	"RIGHT"	"RIGHT"	612.166499999944	583.3333345	""	n/a	n/a	n/a	n/a	n/a	n/a	"2020-12-22 14:06:16.795181"	"2020-12-22 14:06:17.615199"	89	6.43253455
"S201222"	"Response_Inhibition"	"LEFT"	"LEFT"	677.528400000028	1050.0000021	""	n/a	n/a	n/a	n/a	n/a	n/a	"2020-12-22 14:06:18.673922"	"2020-12-22 14:06:19.560103"	90	6.43253455
"S201222"	"Response_Inhibition"	"LEFT"	"LEFT"	430.075999999985	1000.000002	""	n/a	n/a	n/a	n/a	n/a	n/a	"2020-12-22 14:06:20.568878"	"2020-12-22 14:06:21.208666"	91	6.43253455
"S201222"	"Response_Inhibition"	"RIGHT"	"RIGHT"	419.557033699982	1366.6666694	""	n/a	n/a	n/a	n/a	n/a	n/a	"2020-12-22 14:06:22.584536"	"2020-12-22 14:06:23.216324"	92	6.43253455
"S201222"	"Response_Inhibition"	"RIGHT"	"Time_Max_Exceeded"	1500.05550009996	550.0000011	""	n/a	n/a	n/a	n/a	n/a	n/a	"2020-12-22 14:06:23.774782"	"2020-12-22 14:06:25.278291"	93	6.43253455
"S201222"	"Response_Inhibition"	"LEFT"	"LEFT"	715.879100000052	883.3333351	""	n/a	n/a	n/a	n/a	n/a	n/a	"2020-12-22 14:06:26.171444"	"2020-12-22 14:06:27.095363"	94	6.43253455
"S201222"	"Response_Inhibition"	"LEFT"	"LEFT"	772.398399999929	1216.6666691	""	n/a	n/a	n/a	n/a	n/a	n/a	"2020-12-22 14:06:28.323073"	"2020-12-22 14:06:29.302518"	95	6.43253455
"S201222"	"Response_Inhibition"	"RIGHT"	"RIGHT"	1092.77559999998	683.3333347	""	n/a	n/a	n/a	n/a	n/a	n/a	"2020-12-22 14:06:29.994141"	"2020-12-22 14:06:31.296242"	96	6.43253455
"S201222"	"Response_Inhibition"	"RIGHT"	"RIGHT"	779.700100000014	633.3333346	""	n/a	n/a	n/a	n/a	n/a	n/a	"2020-12-22 14:06:31.939016"	"2020-12-22 14:06:32.926425"	97	6.43253455
"S201222"	"Response_Inhibition"	"LEFT"	"LEFT"	864.081499999998	1166.666669	""	n/a	n/a	n/a	n/a	n/a	n/a	"2020-12-22 14:06:34.102804"	"2020-12-22 14:06:35.174501"	98	6.43253455
"S201222"	"Response_Inhibition"	"LEFT"	"Time_Max_Exceeded"	1500.06330060001	916.6666685	""	n/a	n/a	n/a	n/a	n/a	n/a	"2020-12-22 14:06:36.101496"	"2020-12-22 14:06:37.605032"	99	6.43253455
"S201222"	"Response_Inhibition"	"LEFT"	"LEFT"	733.864599999947	850.0000017	""	n/a	n/a	n/a	n/a	n/a	n/a	"2020-12-22 14:06:38.465090"	"2020-12-22 14:06:39.406787"	100	6.43253455
"S201222"	"Response_Inhibition"	"LEFT"	"LEFT"	784.682100000055	1350.0000027	""	n/a	n/a	n/a	n/a	n/a	n/a	"2020-12-22 14:06:40.766166"	"2020-12-22 14:06:41.759022"	101	6.43253455
"S201222"	"Response_Inhibition"	"RIGHT"	"RIGHT"	745.41720000002	1100.0000022	""	n/a	n/a	n/a	n/a	n/a	n/a	"2020-12-22 14:06:42.869698"	"2020-12-22 14:06:43.823895"	102	6.43253455
"S201222"	"Response_Inhibition"	"LEFT"	"Time_Max_Exceeded"	1500.05406730002	1200.0000024	""	n/a	n/a	n/a	n/a	n/a	n/a	"2020-12-22 14:06:45.033171"	"2020-12-22 14:06:46.536653"	103	6.43253455
"S201222"	"Response_Inhibition"	"RIGHT"	"Time_Max_Exceeded"	1500.07733380002	1150.0000023	""	n/a	n/a	n/a	n/a	n/a	n/a	"2020-12-22 14:06:47.697076"	"2020-12-22 14:06:49.200570"	104	6.43253455
"S201222"	"Response_Inhibition"	"RIGHT"	"RIGHT"	641.01590000007	1283.3333359	""	n/a	n/a	n/a	n/a	n/a	n/a	"2020-12-22 14:06:50.494153"	"2020-12-22 14:06:51.344292"	105	6.43253455
"S201222"	"Response_Inhibition"	"LEFT"	"LEFT"	1102.93810000007	583.3333345	""	n/a	n/a	n/a	n/a	n/a	n/a	"2020-12-22 14:06:51.936238"	"2020-12-22 14:06:53.247796"	106	6.43253455
"S201222"	"Response_Inhibition"	"RIGHT"	"Time_Max_Exceeded"	1500.05333370003	1466.6666696	""	n/a	n/a	n/a	n/a	n/a	n/a	"2020-12-22 14:06:54.723379"	"2020-12-22 14:06:56.226901"	107	6.43253455
"S201222"	"Response_Inhibition"	"LEFT"	"Time_Max_Exceeded"	1500.05500060002	966.6666686	""	n/a	n/a	n/a	n/a	n/a	n/a	"2020-12-22 14:06:57.203875"	"2020-12-22 14:06:58.707045"	108	6.43253455
"S201222"	"Response_Inhibition"	"RIGHT"	"Time_Max_Exceeded"	1500.05473359996	933.3333352	""	n/a	n/a	n/a	n/a	n/a	n/a	"2020-12-22 14:06:59.650034"	"2020-12-22 14:07:01.153075"	109	6.43253455
"S201222"	"Response_Inhibition"	"LEFT"	"LEFT"	811.646700000097	1216.6666691	""	n/a	n/a	n/a	n/a	n/a	n/a	"2020-12-22 14:07:02.379840"	"2020-12-22 14:07:03.398973"	110	6.43253455
"S201222"	"Response_Inhibition"	"RIGHT"	"RIGHT"	840.618800000016	750.0000015	""	n/a	n/a	n/a	n/a	n/a	n/a	"2020-12-22 14:07:04.158680"	"2020-12-22 14:07:05.207802"	111	6.43253455
"S201222"	"Response_Inhibition"	"RIGHT"	"Time_Max_Exceeded"	1500.06409999992	733.3333348	""	n/a	n/a	n/a	n/a	n/a	n/a	"2020-12-22 14:07:05.949878"	"2020-12-22 14:07:07.450404"	112	6.43253455
"S201222"	"Response_Inhibition"	"RIGHT"	"Time_Max_Exceeded"	1500.0520334	1266.6666692	""	n/a	n/a	n/a	n/a	n/a	n/a	"2020-12-22 14:07:08.725380"	"2020-12-22 14:07:10.229299"	113	6.43253455
"S201222"	"Response_Inhibition"	"LEFT"	"LEFT"	712.439000000018	1000.000002	""	n/a	n/a	n/a	n/a	n/a	n/a	"2020-12-22 14:07:11.238596"	"2020-12-22 14:07:12.161869"	114	6.43253455
"S201222"	"Response_Inhibition"	"LEFT"	"LEFT"	685.991699999931	1150.0000023	""	n/a	n/a	n/a	n/a	n/a	n/a	"2020-12-22 14:07:13.320846"	"2020-12-22 14:07:14.215861"	115	6.43253455
"S201222"	"Response_Inhibition"	"RIGHT"	"RIGHT"	641.497399999935	1500.000003	""	n/a	n/a	n/a	n/a	n/a	n/a	"2020-12-22 14:07:15.725989"	"2020-12-22 14:07:16.575889"	116	6.43253455
"S201222"	"Response_Inhibition"	"RIGHT"	"RIGHT"	549.163300000032	1000.000002	""	n/a	n/a	n/a	n/a	n/a	n/a	"2020-12-22 14:07:17.585932"	"2020-12-22 14:07:18.343262"	117	6.43253455
"S201222"	"Response_Inhibition"	"LEFT"	"Time_Max_Exceeded"	1500.05263350007	733.3333348	""	n/a	n/a	n/a	n/a	n/a	n/a	"2020-12-22 14:07:19.085705"	"2020-12-22 14:07:20.589707"	118	6.43253455
"S201222"	"Response_Inhibition"	"RIGHT"	"RIGHT"	795.948500000009	1300.0000026	""	n/a	n/a	n/a	n/a	n/a	n/a	"2020-12-22 14:07:21.899228"	"2020-12-22 14:07:22.905099"	119	6.43253455
"S201222"	"Response_Inhibition"	"LEFT"	"LEFT"	530.12949999993	1283.3333359	""	n/a	n/a	n/a	n/a	n/a	n/a	"2020-12-22 14:07:24.197127"	"2020-12-22 14:07:24.935779"	120	6.43253455
"S201222"	"Response_Inhibition"	"RIGHT"	"RIGHT"	592.145200000004	533.3333344	""	n/a	n/a	n/a	n/a	n/a	n/a	"2020-12-22 14:07:25.478848"	"2020-12-22 14:07:26.279572"	121	6.43253455
"S201222"	"Response_Inhibition"	"LEFT"	"LEFT"	405.558300000052	1233.3333358	""	n/a	n/a	n/a	n/a	n/a	n/a	"2020-12-22 14:07:27.521733"	"2020-12-22 14:07:28.135501"	122	6.43253455
"S201222"	"Response_Inhibition"	"LEFT"	"LEFT"	425.773100000015	1316.6666693	""	n/a	n/a	n/a	n/a	n/a	n/a	"2020-12-22 14:07:29.461197"	"2020-12-22 14:07:30.097112"	123	6.43253455
"S201222"	"Response_Inhibition"	"RIGHT"	"Time_Max_Exceeded"	1500.04916679999	1000.000002	""	n/a	n/a	n/a	n/a	n/a	n/a	"2020-12-22 14:07:31.105485"	"2020-12-22 14:07:32.609493"	124	6.43253455
"S201222"	"Response_Inhibition"	"LEFT"	"LEFT"	382.378200000062	1300.0000026	""	n/a	n/a	n/a	n/a	n/a	n/a	"2020-12-22 14:07:33.921075"	"2020-12-22 14:07:34.512045"	125	6.43253455
"S201222"	"Response_Inhibition"	"LEFT"	"LEFT"	442.18479999995	1266.6666692	""	n/a	n/a	n/a	n/a	n/a	n/a	"2020-12-22 14:07:35.789093"	"2020-12-22 14:07:36.438389"	126	6.43253455
"S201222"	"Response_Inhibition"	"RIGHT"	"RIGHT"	343.206799999962	1400.0000028	""	n/a	n/a	n/a	n/a	n/a	n/a	"2020-12-22 14:07:37.847691"	"2020-12-22 14:07:38.399216"	127	6.43253455
"S201222"	"Response_Inhibition"	"LEFT"	"LEFT"	376.419499999997	1150.0000023	""	n/a	n/a	n/a	n/a	n/a	n/a	"2020-12-22 14:07:39.559135"	"2020-12-22 14:07:40.142799"	128	6.43253455
"S201222"	"Response_Inhibition"	"RIGHT"	"RIGHT"	357.627900000011	1233.3333358	""	n/a	n/a	n/a	n/a	n/a	n/a	"2020-12-22 14:07:41.385899"	"2020-12-22 14:07:41.950423"	129	6.43253455
"S201222"	"Response_Inhibition"	"LEFT"	"LEFT"	381.267600000001	1466.6666696	""	n/a	n/a	n/a	n/a	n/a	n/a	"2020-12-22 14:07:43.426347"	"2020-12-22 14:07:44.015169"	130	6.43253455
"S201222"	"Response_Inhibition"	"RIGHT"	"RIGHT"	425.475499999948	716.6666681	""	n/a	n/a	n/a	n/a	n/a	n/a	"2020-12-22 14:07:44.741268"	"2020-12-22 14:07:45.376107"	131	6.43253455
"S201222"	"Response_Inhibition"	"LEFT"	"LEFT"	417.337099999941	500.000001	""	n/a	n/a	n/a	n/a	n/a	n/a	"2020-12-22 14:07:45.885704"	"2020-12-22 14:07:46.510990"	132	6.43253455
"S201222"	"Response_Inhibition"	"LEFT"	"LEFT"	356.616199999962	833.333335	""	n/a	n/a	n/a	n/a	n/a	n/a	"2020-12-22 14:07:47.354749"	"2020-12-22 14:07:47.919874"	133	6.43253455
"S201222"	"Response_Inhibition"	"LEFT"	"LEFT"	376.143099999922	566.6666678	""	n/a	n/a	n/a	n/a	n/a	n/a	"2020-12-22 14:07:48.495311"	"2020-12-22 14:07:49.079748"	134	6.43253455
"S201222"	"Response_Inhibition"	"LEFT"	"LEFT"	390.305600000033	1400.0000028	""	n/a	n/a	n/a	n/a	n/a	n/a	"2020-12-22 14:07:50.488994"	"2020-12-22 14:07:51.087358"	135	6.43253455
"S201222"	"Response_Inhibition"	"LEFT"	"LEFT"	461.679300000014	650.0000013	""	n/a	n/a	n/a	n/a	n/a	n/a	"2020-12-22 14:07:51.746537"	"2020-12-22 14:07:52.415984"	136	6.43253455
"S201222"	"Response_Inhibition"	"RIGHT"	"RIGHT"	352.7196	916.6666685	""	n/a	n/a	n/a	n/a	n/a	n/a	"2020-12-22 14:07:53.342041"	"2020-12-22 14:07:53.902582"	137	6.43253455
"S201222"	"Response_Inhibition"	"LEFT"	"LEFT"	354.635599999938	733.3333348	""	n/a	n/a	n/a	n/a	n/a	n/a	"2020-12-22 14:07:54.644247"	"2020-12-22 14:07:55.207734"	138	6.43253455
"S201222"	"Response_Inhibition"	"RIGHT"	"RIGHT"	511.073900000042	600.0000012	""	n/a	n/a	n/a	n/a	n/a	n/a	"2020-12-22 14:07:55.815777"	"2020-12-22 14:07:56.534471"	139	6.43253455
"S201222"	"Response_Inhibition"	"RIGHT"	"RIGHT"	413.29010000004	850.0000017	""	n/a	n/a	n/a	n/a	n/a	n/a	"2020-12-22 14:07:57.393758"	"2020-12-22 14:07:58.016091"	140	6.43253455
"S201222"	"Response_Inhibition"	"RIGHT"	"RIGHT"	370.750499999986	666.666668	""	n/a	n/a	n/a	n/a	n/a	n/a	"2020-12-22 14:07:58.692725"	"2020-12-22 14:07:59.271676"	141	6.43253455
"S201222"	"Response_Inhibition"	"LEFT"	"LEFT"	400.373800000011	1333.333336	""	n/a	n/a	n/a	n/a	n/a	n/a	"2020-12-22 14:08:00.614654"	"2020-12-22 14:08:01.222343"	142	6.43253455
"S201222"	"Response_Inhibition"	"RIGHT"	"RIGHT"	447.720200400003	900.0000018	""	n/a	n/a	n/a	n/a	n/a	n/a	"2020-12-22 14:08:02.131932"	"2020-12-22 14:08:02.791191"	143	6.43253455
"S201222"	"Response_Inhibition"	"LEFT"	"Time_Max_Exceeded"	1500.04723360004	850.0000017	"RIGHT"	-790.896	n/a	n/a	n/a	n/a	n/a	"2020-12-22 14:08:03.649906"	"2020-12-22 14:08:05.153412"	144	6.43253455
"S201222"	"Response_Inhibition"	"RIGHT"	"RIGHT"	563.308900000038	1016.6666687	""	n/a	n/a	n/a	n/a	n/a	n/a	"2020-12-22 14:08:06.179701"	"2020-12-22 14:08:06.952141"	145	6.43253455
"S201222"	"Response_Inhibition"	"RIGHT"	"RIGHT"	586.601099999939	883.3333351	""	n/a	n/a	n/a	n/a	n/a	n/a	"2020-12-22 14:08:07.844795"	"2020-12-22 14:08:08.639258"	146	6.43253455
"S201222"	"Response_Inhibition"	"RIGHT"	"RIGHT"	438.626999999997	783.3333349	""	n/a	n/a	n/a	n/a	n/a	n/a	"2020-12-22 14:08:09.432142"	"2020-12-22 14:08:10.079476"	147	6.43253455
"S201222"	"Response_Inhibition"	"LEFT"	"LEFT"	382.333099999983	983.3333353	""	n/a	n/a	n/a	n/a	n/a	n/a	"2020-12-22 14:08:11.072802"	"2020-12-22 14:08:11.663730"	148	6.43253455
"S201222"	"Response_Inhibition"	"RIGHT"	"RIGHT"	405.233599999974	616.6666679	""	n/a	n/a	n/a	n/a	n/a	n/a	"2020-12-22 14:08:12.290078"	"2020-12-22 14:08:12.902452"	149	6.43253455
"S201222"	"Response_Inhibition"	"RIGHT"	"RIGHT"	395.02850000008	1100.0000022	""	n/a	n/a	n/a	n/a	n/a	n/a	"2020-12-22 14:08:14.012499"	"2020-12-22 14:08:14.614434"	150	6.43253455
"S201222"	"Response_Inhibition"	"LEFT"	"LEFT"	405.580600000008	816.6666683	""	n/a	n/a	n/a	n/a	n/a	n/a	"2020-12-22 14:08:15.441710"	"2020-12-22 14:08:16.056098"	151	6.43253455
"S201222"	"Response_Inhibition"	"RIGHT"	"RIGHT"	374.368899999922	800.0000016	""	n/a	n/a	n/a	n/a	n/a	n/a	"2020-12-22 14:08:16.864900"	"2020-12-22 14:08:17.447902"	152	6.43253455
"S201222"	"Response_Inhibition"	"RIGHT"	"RIGHT"	425.674800000024	900.0000018	""	n/a	n/a	n/a	n/a	n/a	n/a	"2020-12-22 14:08:18.357031"	"2020-12-22 14:08:18.992882"	153	6.43253455
"S201222"	"Response_Inhibition"	"RIGHT"	"Time_Max_Exceeded"	1500.06353349996	516.6666677	""	n/a	n/a	n/a	n/a	n/a	n/a	"2020-12-22 14:08:19.519444"	"2020-12-22 14:08:21.022512"	154	6.43253455
"S201222"	"Response_Inhibition"	"RIGHT"	"RIGHT"	462.212700000009	1433.3333362	""	n/a	n/a	n/a	n/a	n/a	n/a	"2020-12-22 14:08:22.465325"	"2020-12-22 14:08:23.137009"	155	6.43253455
"S201222"	"Response_Inhibition"	"LEFT"	"LEFT"	544.363699999963	1500.000003	""	n/a	n/a	n/a	n/a	n/a	n/a	"2020-12-22 14:08:24.646545"	"2020-12-22 14:08:25.398836"	156	6.43253455
"S201222"	"Response_Inhibition"	"LEFT"	"LEFT"	631.532900000025	1133.3333356	""	n/a	n/a	n/a	n/a	n/a	n/a	"2020-12-22 14:08:26.543758"	"2020-12-22 14:08:27.382666"	157	6.43253455
"S201222"	"Response_Inhibition"	"LEFT"	"LEFT"	402.188500600011	1250.0000025	""	n/a	n/a	n/a	n/a	n/a	n/a	"2020-12-22 14:08:28.641328"	"2020-12-22 14:08:29.255756"	158	6.43253455
"S201222"	"Response_Inhibition"	"LEFT"	"LEFT"	598.345999999992	583.3333345	""	n/a	n/a	n/a	n/a	n/a	n/a	"2020-12-22 14:08:29.849131"	"2020-12-22 14:08:30.655708"	159	6.43253455
"S201222"	"Response_Inhibition"	"LEFT"	"LEFT"	598.762299999976	950.0000019	""	n/a	n/a	n/a	n/a	n/a	n/a	"2020-12-22 14:08:31.616666"	"2020-12-22 14:08:32.423791"	160	6.43253455
"S201222"	"Response_Selection"	"RIGHT"	"RIGHT"	605.896599999994	600.0000012	n/a	n/a	n/a	n/a	n/a	n/a	n/a	"2020-12-22 14:00:02.912861"	"2020-12-22 14:00:03.728940"	1	2.82304195
"S201222"	"Response_Selection"	"LEFT"	"LEFT"	281.983299999979	1266.6666692	n/a	n/a	n/a	n/a	n/a	n/a	n/a	"2020-12-22 14:00:05.005005"	"2020-12-22 14:00:05.495800"	2	2.82304195
"S201222"	"Response_Selection"	"LEFT"	"LEFT"	325.589100000002	1200.0000024	n/a	n/a	n/a	n/a	n/a	n/a	n/a	"2020-12-22 14:00:06.706113"	"2020-12-22 14:00:07.240899"	3	2.82304195
"S201222"	"Response_Selection"	"LEFT"	"LEFT"	319.208899999978	1166.666669	n/a	n/a	n/a	n/a	n/a	n/a	n/a	"2020-12-22 14:00:08.415815"	"2020-12-22 14:00:08.943454"	4	2.82304195
"S201222"	"Response_Selection"	"RIGHT"	"RIGHT"	284.000500000047	1083.3333355	n/a	n/a	n/a	n/a	n/a	n/a	n/a	"2020-12-22 14:00:10.035540"	"2020-12-22 14:00:10.527829"	5	2.82304195
"S201222"	"Response_Selection"	"RIGHT"	"RIGHT"	301.612599999999	1216.6666691	n/a	n/a	n/a	n/a	n/a	n/a	n/a	"2020-12-22 14:00:11.753674"	"2020-12-22 14:00:12.262422"	6	2.82304195
"S201222"	"Response_Selection"	"RIGHT"	"RIGHT"	342.449999999985	633.3333346	n/a	n/a	n/a	n/a	n/a	n/a	n/a	"2020-12-22 14:00:12.904696"	"2020-12-22 14:00:13.456262"	7	2.82304195
"S201222"	"Response_Selection"	"RIGHT"	"RIGHT"	352.306399999975	1300.0000026	n/a	n/a	n/a	n/a	n/a	n/a	n/a	"2020-12-22 14:00:14.767330"	"2020-12-22 14:00:15.327590"	8	2.82304195
"S201222"	"Response_Selection"	"LEFT"	"LEFT"	344.97650000003	533.3333344	n/a	n/a	n/a	n/a	n/a	n/a	n/a	"2020-12-22 14:00:15.870116"	"2020-12-22 14:00:16.424139"	9	2.82304195
"S201222"	"Response_Selection"	"RIGHT"	"RIGHT"	262.177599999973	783.3333349	n/a	n/a	n/a	n/a	n/a	n/a	n/a	"2020-12-22 14:00:17.217554"	"2020-12-22 14:00:17.687835"	10	2.82304195
"S201222"	"Response_Selection"	"RIGHT"	"RIGHT"	300.125899999955	1466.6666696	n/a	n/a	n/a	n/a	n/a	n/a	n/a	"2020-12-22 14:00:19.162887"	"2020-12-22 14:00:19.671654"	11	2.82304195
"S201222"	"Response_Selection"	"RIGHT"	"RIGHT"	287.681599999985	583.3333345	n/a	n/a	n/a	n/a	n/a	n/a	n/a	"2020-12-22 14:00:20.263086"	"2020-12-22 14:00:20.758773"	12	2.82304195
"S201222"	"Response_Selection"	"LEFT"	"LEFT"	315.555099999983	1300.0000026	n/a	n/a	n/a	n/a	n/a	n/a	n/a	"2020-12-22 14:00:22.067333"	"2020-12-22 14:00:22.591426"	13	2.82304195
"S201222"	"Response_Selection"	"LEFT"	"LEFT"	582.768600000009	1400.0000028	n/a	n/a	n/a	n/a	n/a	n/a	n/a	"2020-12-22 14:00:24.000421"	"2020-12-22 14:00:24.790459"	14	2.82304195
"S201222"	"Response_Selection"	"RIGHT"	"RIGHT"	244.28039999998	683.3333347	n/a	n/a	n/a	n/a	n/a	n/a	n/a	"2020-12-22 14:00:25.483076"	"2020-12-22 14:00:25.936880"	15	2.82304195
"S201222"	"Response_Selection"	"LEFT"	"LEFT"	277.692600000023	583.3333345	n/a	n/a	n/a	n/a	n/a	n/a	n/a	"2020-12-22 14:00:26.529808"	"2020-12-22 14:00:27.014528"	16	2.82304195
"S201222"	"Response_Selection"	"RIGHT"	"RIGHT"	314.903700000002	733.3333348	n/a	n/a	n/a	n/a	n/a	n/a	n/a	"2020-12-22 14:00:27.756094"	"2020-12-22 14:00:28.278261"	17	2.82304195
"S201222"	"Response_Selection"	"RIGHT"	"RIGHT"	363.707000000034	700.0000014	n/a	n/a	n/a	n/a	n/a	n/a	n/a	"2020-12-22 14:00:28.987343"	"2020-12-22 14:00:29.559954"	18	2.82304195
"S201222"	"Response_Selection"	"LEFT"	"LEFT"	301.076399999999	783.3333349	n/a	n/a	n/a	n/a	n/a	n/a	n/a	"2020-12-22 14:00:30.354275"	"2020-12-22 14:00:30.862664"	19	2.82304195
"S201222"	"Response_Selection"	"LEFT"	"LEFT"	311.522000000025	983.3333353	n/a	n/a	n/a	n/a	n/a	n/a	n/a	"2020-12-22 14:00:31.855292"	"2020-12-22 14:00:32.375968"	20	2.82304195
"S201222"	"Response_Selection"	"LEFT"	"LEFT"	267.939699999999	866.6666684	n/a	n/a	n/a	n/a	n/a	n/a	n/a	"2020-12-22 14:00:33.251103"	"2020-12-22 14:00:33.729133"	21	2.82304195
"S201222"	"Response_Selection"	"LEFT"	"LEFT"	308.181199999979	833.333335	n/a	n/a	n/a	n/a	n/a	n/a	n/a	"2020-12-22 14:00:34.570656"	"2020-12-22 14:00:35.087313"	22	2.82304195
"S201222"	"Response_Selection"	"RIGHT"	"RIGHT"	276.281900000015	1033.3333354	n/a	n/a	n/a	n/a	n/a	n/a	n/a	"2020-12-22 14:00:36.131045"	"2020-12-22 14:00:36.616827"	23	2.82304195
"S201222"	"Response_Selection"	"LEFT"	"LEFT"	314.147699999978	1450.0000029	n/a	n/a	n/a	n/a	n/a	n/a	n/a	"2020-12-22 14:00:38.077199"	"2020-12-22 14:00:38.599237"	24	2.82304195
"S201222"	"Response_Selection"	"LEFT"	"LEFT"	288.610900000037	916.6666685	n/a	n/a	n/a	n/a	n/a	n/a	n/a	"2020-12-22 14:00:39.526738"	"2020-12-22 14:00:40.023696"	25	2.82304195
"S201222"	"Response_Selection"	"LEFT"	"LEFT"	314.543300000025	500.000001	n/a	n/a	n/a	n/a	n/a	n/a	n/a	"2020-12-22 14:00:40.532488"	"2020-12-22 14:00:41.056132"	26	2.82304195
"S201222"	"Response_Selection"	"RIGHT"	"RIGHT"	286.889199999962	983.3333353	n/a	n/a	n/a	n/a	n/a	n/a	n/a	"2020-12-22 14:00:42.048153"	"2020-12-22 14:00:42.543377"	27	2.82304195
"S201222"	"Response_Selection"	"LEFT"	"LEFT"	260.81210000001	633.3333346	n/a	n/a	n/a	n/a	n/a	n/a	n/a	"2020-12-22 14:00:43.186572"	"2020-12-22 14:00:43.655329"	28	2.82304195
"S201222"	"Response_Selection"	"LEFT"	"LEFT"	323.626900000022	1066.6666688	n/a	n/a	n/a	n/a	n/a	n/a	n/a	"2020-12-22 14:00:44.731493"	"2020-12-22 14:00:45.263427"	29	2.82304195
"S201222"	"Response_Selection"	"LEFT"	"LEFT"	311.025099999995	1366.6666694	n/a	n/a	n/a	n/a	n/a	n/a	n/a	"2020-12-22 14:00:46.640015"	"2020-12-22 14:00:47.158388"	30	2.82304195
"S201222"	"Response_Selection"	"RIGHT"	"RIGHT"	316.427500000032	866.6666684	n/a	n/a	n/a	n/a	n/a	n/a	n/a	"2020-12-22 14:00:48.034949"	"2020-12-22 14:00:48.558591"	31	2.82304195
"S201222"	"Response_Selection"	"LEFT"	"LEFT"	300.10649999997	1466.6666696	n/a	n/a	n/a	n/a	n/a	n/a	n/a	"2020-12-22 14:00:50.035160"	"2020-12-22 14:00:50.544843"	32	2.82304195
"S201222"	"Response_Selection"	"LEFT"	"LEFT"	305.290499999956	700.0000014	n/a	n/a	n/a	n/a	n/a	n/a	n/a	"2020-12-22 14:00:51.253979"	"2020-12-22 14:00:51.766641"	33	2.82304195
"S201222"	"Response_Selection"	"RIGHT"	"RIGHT"	248.723700000028	966.6666686	n/a	n/a	n/a	n/a	n/a	n/a	n/a	"2020-12-22 14:00:52.742523"	"2020-12-22 14:00:53.200712"	34	2.82304195
"S201222"	"Response_Selection"	"RIGHT"	"RIGHT"	317.167700000027	1200.0000024	n/a	n/a	n/a	n/a	n/a	n/a	n/a	"2020-12-22 14:00:54.409984"	"2020-12-22 14:00:54.935222"	35	2.82304195
"S201222"	"Response_Selection"	"LEFT"	"LEFT"	304.917900000021	1116.6666689	n/a	n/a	n/a	n/a	n/a	n/a	n/a	"2020-12-22 14:00:56.061697"	"2020-12-22 14:00:56.576335"	36	2.82304195
"S201222"	"Response_Selection"	"LEFT"	"LEFT"	361.424099999965	1416.6666695	n/a	n/a	n/a	n/a	n/a	n/a	n/a	"2020-12-22 14:00:58.006075"	"2020-12-22 14:00:58.576054"	37	2.82304195
"S201222"	"Response_Selection"	"RIGHT"	"RIGHT"	369.146299999954	1316.6666693	n/a	n/a	n/a	n/a	n/a	n/a	n/a	"2020-12-22 14:00:59.902131"	"2020-12-22 14:01:00.478837"	38	2.82304195
"S201222"	"Response_Selection"	"RIGHT"	"RIGHT"	417.183800000032	1133.3333356	n/a	n/a	n/a	n/a	n/a	n/a	n/a	"2020-12-22 14:01:01.622115"	"2020-12-22 14:01:02.247118"	39	2.82304195
"S201222"	"Response_Selection"	"RIGHT"	"RIGHT"	407.667900000035	1366.6666694	n/a	n/a	n/a	n/a	n/a	n/a	n/a	"2020-12-22 14:01:03.623453"	"2020-12-22 14:01:04.239307"	40	2.82304195
"S201222"	"Response_Selection"	"RIGHT"	"RIGHT"	361.476400000015	933.3333352	n/a	n/a	n/a	n/a	n/a	n/a	n/a	"2020-12-22 14:01:05.181866"	"2020-12-22 14:01:05.751344"	41	2.82304195
"S201222"	"Response_Selection"	"RIGHT"	"RIGHT"	309.127799999999	1450.0000029	n/a	n/a	n/a	n/a	n/a	n/a	n/a	"2020-12-22 14:01:07.210534"	"2020-12-22 14:01:07.727161"	42	2.82304195
"S201222"	"Response_Selection"	"LEFT"	"LEFT"	426.148899999987	1500.000003	n/a	n/a	n/a	n/a	n/a	n/a	n/a	"2020-12-22 14:01:09.237206"	"2020-12-22 14:01:09.871211"	43	2.82304195
"S201222"	"Response_Selection"	"RIGHT"	"RIGHT"	401.109200000008	500.000001	n/a	n/a	n/a	n/a	n/a	n/a	n/a	"2020-12-22 14:01:10.381883"	"2020-12-22 14:01:10.991776"	44	2.82304195
"S201222"	"Response_Selection"	"LEFT"	"LEFT"	244.285699999978	1033.3333354	n/a	n/a	n/a	n/a	n/a	n/a	n/a	"2020-12-22 14:01:12.034969"	"2020-12-22 14:01:12.487338"	45	2.82304195
"S201222"	"Response_Selection"	"RIGHT"	"RIGHT"	252.316899999983	1266.6666692	n/a	n/a	n/a	n/a	n/a	n/a	n/a	"2020-12-22 14:01:13.762392"	"2020-12-22 14:01:14.224201"	46	2.82304195
"S201222"	"Response_Selection"	"LEFT"	"LEFT"	313.50980000002	1316.6666693	n/a	n/a	n/a	n/a	n/a	n/a	n/a	"2020-12-22 14:01:15.549647"	"2020-12-22 14:01:16.072704"	47	2.82304195
"S201222"	"Response_Selection"	"LEFT"	"RIGHT"	265.518499999985	1083.3333355	n/a	n/a	n/a	n/a	n/a	n/a	n/a	"2020-12-22 14:01:17.165788"	"2020-12-22 14:01:17.639953"	48	2.82304195
"S201222"	"Response_Selection"	"LEFT"	"LEFT"	350.021500000025	1216.6666691	n/a	n/a	n/a	n/a	n/a	n/a	n/a	"2020-12-22 14:01:18.865175"	"2020-12-22 14:01:19.423682"	49	2.82304195
"S201222"	"Response_Selection"	"LEFT"	"LEFT"	336.397099999999	966.6666686	n/a	n/a	n/a	n/a	n/a	n/a	n/a	"2020-12-22 14:01:20.399142"	"2020-12-22 14:01:20.942295"	50	2.82304195
"S201222"	"Response_Selection"	"LEFT"	"LEFT"	290.731800000003	883.3333351	n/a	n/a	n/a	n/a	n/a	n/a	n/a	"2020-12-22 14:01:21.836859"	"2020-12-22 14:01:22.336046"	51	2.82304195
"S201222"	"Response_Selection"	"LEFT"	"LEFT"	296.341999999981	1350.0000027	n/a	n/a	n/a	n/a	n/a	n/a	n/a	"2020-12-22 14:01:23.694906"	"2020-12-22 14:01:24.198331"	52	2.82304195
"S201222"	"Response_Selection"	"RIGHT"	"RIGHT"	308.369700000014	883.3333351	n/a	n/a	n/a	n/a	n/a	n/a	n/a	"2020-12-22 14:01:25.090954"	"2020-12-22 14:01:25.607868"	53	2.82304195
"S201222"	"Response_Selection"	"RIGHT"	"RIGHT"	293.084999999962	800.0000016	n/a	n/a	n/a	n/a	n/a	n/a	n/a	"2020-12-22 14:01:26.418281"	"2020-12-22 14:01:26.920982"	54	2.82304195
"S201222"	"Response_Selection"	"LEFT"	"LEFT"	347.615399999995	650.0000013	n/a	n/a	n/a	n/a	n/a	n/a	n/a	"2020-12-22 14:01:27.579328"	"2020-12-22 14:01:28.135914"	55	2.82304195
"S201222"	"Response_Selection"	"RIGHT"	"RIGHT"	290.232800000013	1500.000003	n/a	n/a	n/a	n/a	n/a	n/a	n/a	"2020-12-22 14:01:29.645273"	"2020-12-22 14:01:30.143977"	56	2.82304195
"S201222"	"Response_Selection"	"RIGHT"	"RIGHT"	388.789200000019	1016.6666687	n/a	n/a	n/a	n/a	n/a	n/a	n/a	"2020-12-22 14:01:31.170367"	"2020-12-22 14:01:31.768271"	57	2.82304195
"S201222"	"Response_Selection"	"LEFT"	"LEFT"	311.616100000037	550.0000011	n/a	n/a	n/a	n/a	n/a	n/a	n/a	"2020-12-22 14:01:32.327853"	"2020-12-22 14:01:32.847255"	58	2.82304195
"S201222"	"Response_Selection"	"RIGHT"	"RIGHT"	296.112699999981	533.3333344	n/a	n/a	n/a	n/a	n/a	n/a	n/a	"2020-12-22 14:01:33.391288"	"2020-12-22 14:01:33.896089"	59	2.82304195
"S201222"	"Response_Selection"	"RIGHT"	"RIGHT"	347.984799999949	650.0000013	n/a	n/a	n/a	n/a	n/a	n/a	n/a	"2020-12-22 14:01:34.554946"	"2020-12-22 14:01:35.111977"	60	2.82304195
"S201222"	"Response_Selection"	"LEFT"	"LEFT"	328.982399999973	1133.3333356	n/a	n/a	n/a	n/a	n/a	n/a	n/a	"2020-12-22 14:01:36.254428"	"2020-12-22 14:01:36.791999"	61	2.82304195
"S201222"	"Response_Selection"	"RIGHT"	"RIGHT"	319.985299999985	750.0000015	n/a	n/a	n/a	n/a	n/a	n/a	n/a	"2020-12-22 14:01:37.551475"	"2020-12-22 14:01:38.080858"	62	2.82304195
"S201222"	"Response_Selection"	"RIGHT"	"RIGHT"	350.83689999999	1166.666669	n/a	n/a	n/a	n/a	n/a	n/a	n/a	"2020-12-22 14:01:39.256694"	"2020-12-22 14:01:39.815892"	63	2.82304195
"S201222"	"Response_Selection"	"RIGHT"	"RIGHT"	303.233400000011	1350.0000027	n/a	n/a	n/a	n/a	n/a	n/a	n/a	"2020-12-22 14:01:41.176263"	"2020-12-22 14:01:41.687961"	64	2.82304195
"S201222"	"Response_Selection"	"RIGHT"	"RIGHT"	316.282599999965	1250.0000025	n/a	n/a	n/a	n/a	n/a	n/a	n/a	"2020-12-22 14:01:42.946656"	"2020-12-22 14:01:43.471284"	65	2.82304195
"S201222"	"Response_Selection"	"LEFT"	"LEFT"	325.056399999994	1016.6666687	n/a	n/a	n/a	n/a	n/a	n/a	n/a	"2020-12-22 14:01:44.497995"	"2020-12-22 14:01:45.033131"	66	2.82304195
"S201222"	"Response_Selection"	"RIGHT"	"RIGHT"	280.633899999998	1116.6666689	n/a	n/a	n/a	n/a	n/a	n/a	n/a	"2020-12-22 14:01:46.158230"	"2020-12-22 14:01:46.648953"	67	2.82304195
"S201222"	"Response_Selection"	"RIGHT"	"RIGHT"	384.84440000002	1066.6666688	n/a	n/a	n/a	n/a	n/a	n/a	n/a	"2020-12-22 14:01:47.726079"	"2020-12-22 14:01:48.319203"	68	2.82304195
"S201222"	"Response_Selection"	"LEFT"	"LEFT"	383.182499999975	600.0000012	n/a	n/a	n/a	n/a	n/a	n/a	n/a	"2020-12-22 14:01:48.929045"	"2020-12-22 14:01:49.520505"	69	2.82304195
"S201222"	"Response_Selection"	"RIGHT"	"RIGHT"	421.340499999985	1416.6666695	n/a	n/a	n/a	n/a	n/a	n/a	n/a	"2020-12-22 14:01:50.945692"	"2020-12-22 14:01:51.576097"	70	2.82304195
"S201222"	"Response_Selection"	"RIGHT"	"RIGHT"	360.738799999979	550.0000011	n/a	n/a	n/a	n/a	n/a	n/a	n/a	"2020-12-22 14:01:52.135065"	"2020-12-22 14:01:52.704689"	71	2.82304195
"S201222"	"Response_Selection"	"LEFT"	"LEFT"	682.805599999995	683.3333347	n/a	n/a	n/a	n/a	n/a	n/a	n/a	"2020-12-22 14:01:53.396313"	"2020-12-22 14:01:54.287329"	72	2.82304195
"S201222"	"Response_Selection"	"RIGHT"	"RIGHT"	329.585699999996	916.6666685	n/a	n/a	n/a	n/a	n/a	n/a	n/a	"2020-12-22 14:01:55.213324"	"2020-12-22 14:01:55.750757"	73	2.82304195
"S201222"	"Response_Selection"	"LEFT"	"LEFT"	393.619300000012	933.3333352	n/a	n/a	n/a	n/a	n/a	n/a	n/a	"2020-12-22 14:01:56.693328"	"2020-12-22 14:01:57.295505"	74	2.82304195
"S201222"	"Response_Selection"	"RIGHT"	"RIGHT"	388.931700000001	833.333335	n/a	n/a	n/a	n/a	n/a	n/a	n/a	"2020-12-22 14:01:58.138211"	"2020-12-22 14:01:58.734831"	75	2.82304195
"S201222"	"Response_Selection"	"LEFT"	"LEFT"	332.889599999987	1250.0000025	n/a	n/a	n/a	n/a	n/a	n/a	n/a	"2020-12-22 14:01:59.994031"	"2020-12-22 14:02:00.535693"	76	2.82304195
"S201222"	"Response_Selection"	"LEFT"	"LEFT"	329.835399999979	733.3333348	n/a	n/a	n/a	n/a	n/a	n/a	n/a	"2020-12-22 14:02:01.277231"	"2020-12-22 14:02:01.814732"	77	2.82304195
"S201222"	"Response_Selection"	"LEFT"	"LEFT"	313.670999999999	750.0000015	n/a	n/a	n/a	n/a	n/a	n/a	n/a	"2020-12-22 14:02:02.573719"	"2020-12-22 14:02:03.095850"	78	2.82304195
"S201222"	"Response_Selection"	"LEFT"	"LEFT"	326.573400000029	800.0000016	n/a	n/a	n/a	n/a	n/a	n/a	n/a	"2020-12-22 14:02:03.904733"	"2020-12-22 14:02:04.439303"	79	2.82304195
"S201222"	"Response_Selection"	"RIGHT"	"RIGHT"	342.868699999997	1400.0000028	n/a	n/a	n/a	n/a	n/a	n/a	n/a	"2020-12-22 14:02:05.848067"	"2020-12-22 14:02:06.399484"	80	2.82304195
