index	Trial_Type	Participant_ID	Trial_Probability	Question_Position_Prediction_Correct	Question_Position_Prediction_Agent	Question_Position_Comparison_Self	Question_Position_Comparison_Irrelevant	Trial_Stake	Trial_Stake_Jitter	Trial_Type_Jitter	Trial_Result_Jitter	Balance_Update_Jitter	Question_Comparison_Condition	Question_Comparison_Type	Question_Comparison_Question	Question_Comparison_Label	Question_Comparison_Item	Question_Comparison_Proportion_Yes	Question_Factual_Condition	Question_Factual_Item	Question_Factual_Question	Question_Factual_Label	Question_Factual_Proportion_DontKnow	Question_Factual_Type	Answer_Prediction_Correct	Answer_Prediction_Correct_RT	Answer_Prediction_Agent	Answer_Prediction_Agent_RT	Answer_Irrelevant	Answer_Irrelevant_RT	Answer_Self	Answer_Self_RT	Trial_Balance	Trial_Balance_Effect	Trial_Condition	Trial_ProbableSide	Prediction_Choice	Prediction_Result	Prediction_RT	Trial_Order	Trial_Datetime
133	Computer	S201222	0.8333333333333334	1	2	2	1	0.3	1433.3333362	1500.000003	1650.0000033	1933.3333372	Major	Good_deeds	31	You have cursed at your loved ones	C2_25	0.7	Hard	I2_58	29	Christmas Day is in March	0.777777777777778	Yes	RIGHT	624.8488999999608	LEFT	361.2990999999965	LEFT	1438.4641999999983	LEFT	1702.84079999999	10.0	0.3	Probable_Truth	LEFT	LEFT	1	620.2101105194388	0	2020-12-22 14:33:51.596423
69	Self	S201222	0.6666666666666666	1	2	2	1	0.4	1283.3333359	1150.0000023	2216.6666711000003	2500.000005	Minor	Good_deeds	45	You have drunk alcohol when you were underage	C2_53	0.05	Easy	I2_1	1	Some owl species hunt fish	0.888888888888889	Yes	RIGHT	566.6628000000173	RIGHT	319.98029999999744	RIGHT	2485.0283000000672	LEFT	2184.6798000000263	10.4	0.4	Probable_Truth	RIGHT	RIGHT	3	1837.9127000000608	1	2020-12-22 14:34:18.725915
1	Self	S201222	0.5	1	2	1	2	0.5	1000.000002	1500.000003	1650.0000033	1783.3333369	Minor	Good_deeds	36	You have given up your seat in the MRT	C2_54	0.85	Easy	I1_14	39	Red is a color	1.0	No	RIGHT	400.1346000000012	RIGHT	271.9227000000046	RIGHT	711.3299999999754	RIGHT	1306.609700000081	10.9	0.5	Probable_Truth	LEFT	RIGHT	4	1369.6267000000262	2	2020-12-22 14:34:41.293440
77	Self	S201222	0.6666666666666666	2	1	2	1	0.4	1350.0000027	1350.0000027	2216.6666711000003	1933.3333372	Minor	Wrong_doings	57	You have cheated on a test	C2_11	1.0	Easy	I1_13	51	The first Olympic Games was held in the 5th century B.C	0.0	Yes	RIGHT	496.50470000005953	RIGHT	630.2773000001025	RIGHT	2442.8364999999985	LEFT	1016.5186000000404	11.3	0.4	Probable_Truth	LEFT	LEFT	1	826.1082000000215	3	2020-12-22 14:35:06.133764
105	Computer	S201222	0.5	2	1	1	2	0.4	1433.3333362	1000.000002	1783.3333369	2350.0000047	Major	Wrong_doings	28	You have violated a traffic law	C1_49	0.0	Easy	I2_42	58	It sometimes snows in Singapore	0.0555555555555556	Yes	RIGHT	344.20479999994313	LEFT	554.7705999999835	LEFT	767.8472000000056	LEFT	917.183399999999	11.3	0.4	Probable_Truth	LEFT	RIGHT	4	680.4386585937488	4	2020-12-22 14:35:28.532520
6	Self	S201222	0.5	1	2	2	1	0.7	1066.6666688	1000.000002	2500.000005	2216.6666711000003	Major	Wrong_doings	60	You have stopped using products tested on animals	C2_23	0.1	Easy	I2_39	6	It is snowing outside now	0.0	Yes	RIGHT	390.0462000000289	RIGHT	272.1950000000106	LEFT	1144.267300000024	RIGHT	1935.3351999999404	12.0	0.7	Probable_Truth	LEFT	RIGHT	4	1518.1533000001082	5	2020-12-22 14:35:53.148698
61	Self	S201222	0.5	2	1	2	1	0.2	1000.000002	1216.6666691	2350.0000047	1933.3333372	Major	Wrong_doings	37	You have held the door open for a stranger	C1_39	0.0	Easy	I2_31	45	Feijoa is a type of grape	0.0	No	LEFT	345.0334000000339	RIGHT	612.0573000000604	RIGHT	1468.212499999936	RIGHT	960.1810999999998	11.8	0.2	Probable_Lie	RIGHT	RIGHT	3	969.1398999999592	6	2020-12-22 14:36:16.573906
139	Computer	S201222	0.8333333333333334	2	1	1	2	0.4	1216.6666691	1150.0000023	1500.000003	1500.000003	Major	Good_deeds	2	You have made someone cry	C2_10	0.15	Easy	I2_43	2	Algeria is Africa's second largest country	0.0	Yes	RIGHT	337.0261000000028	LEFT	504.6705000000884	RIGHT	1375.399600000037	LEFT	1125.9317999999894	11.8	0.4	Probable_Truth	RIGHT	RIGHT	3	864.071278277699	7	2020-12-22 14:36:38.716103
137	Computer	S201222	0.8333333333333334	2	1	1	2	0.7	1066.6666688	1500.000003	1783.3333369	2350.0000047	Major	Wrong_doings	29	You have bought cocaine	C1_38	1.0	Easy	I2_28	53	Singapore is a poor country	0.0555555555555556	Yes	LEFT	288.8232000000244	LEFT	646.9905000000153	LEFT	784.7878000000037	LEFT	1004.9001999999518	11.8	0.7	Probable_Lie	LEFT	RIGHT	1	667.6546576645228	8	2020-12-22 14:37:01.374092
132	Computer	S201222	0.8333333333333334	1	2	2	1	0.7	1066.6666688	1000.000002	1500.000003	1783.3333369	Minor	Wrong_doings	25	You have let a homeless man into your house	C2_31	0.05	Easy	I2_33	24	Fishes can swim in water	0.0	No	LEFT	588.7054999999464	LEFT	240.28809999992973	RIGHT	1371.7033000000356	RIGHT	1335.703599999988	11.8	0.7	Probable_Lie	RIGHT	LEFT	6	545.8501337482792	9	2020-12-22 14:37:23.380258
124	Computer	S201222	0.6666666666666666	2	1	2	1	0.6	1350.0000027	1433.3333362	1783.3333369	2350.0000047	Minor	Wrong_doings	7	You have engaged in money laundering	C2_6	0.0	Easy	I1_26	46	Singapore ranked 8th in World's smallest countries	0.0	No	RIGHT	376.5816999999743	LEFT	489.5653999999468	RIGHT	2275.092100000052	LEFT	846.9818999999461	11.8	0.6	Probable_Truth	RIGHT	LEFT	2	560.3378266422492	10	2020-12-22 14:37:47.421689
121	Computer	S201222	0.6666666666666666	2	1	1	2	0.1	1433.3333362	1283.3333359	1650.0000033	1650.0000033	Major	Good_deeds	16	You have been arrested	C2_50	0.65	Easy	I1_10	40	Saturn's rings are between 30 and 300 feet thick	0.944444444444444	Yes	LEFT	263.0062000000635	LEFT	390.0613999999223	RIGHT	1672.478299999966	LEFT	792.816900000048	11.8	0.1	Probable_Lie	RIGHT	LEFT	4	899.6415035783193	11	2020-12-22 14:38:10.020277
125	Computer	S201222	0.6666666666666666	2	1	2	1	0.3	1500.000003	1216.6666691	2350.0000047	2500.000005	Minor	Good_deeds	47	You have helped others to pick up their belongings	C1_16	0.0	Hard	I2_54	46	Mageirocophobia is a fear of deathly disease	0.833333333333333	Yes	RIGHT	263.7585999999601	LEFT	407.24039999997785	RIGHT	2199.8676999999134	RIGHT	1335.5771999999888	11.8	0.3	Probable_Truth	LEFT	RIGHT	5	748.5004763876243	12	2020-12-22 14:38:35.108279
10	Self	S201222	0.5	2	1	1	2	0.4	1216.6666691	1000.000002	2350.0000047	1933.3333372	Major	Good_deeds	13	You have stopped using plastics completely	C2_3	0.65	Easy	I1_58	25	It takes 112 years to build the Pisa Tower	0.0	Yes	LEFT	1040.1061999999683	LEFT	653.1797999999753	RIGHT	1071.5476999999964	RIGHT	1188.8207000000648	11.8	0.4	Probable_Lie	LEFT	RIGHT	3	1200.880100000063	13	2020-12-22 14:38:59.333072
11	Self	S201222	0.5	2	1	1	2	0.7	1000.000002	1150.0000023	1783.3333369	2500.000005	Minor	Good_deeds	58	You have deceived a loved one	C1_17	0.0	Hard	I2_23	23	A square has 3 corners	0.666666666666667	No	RIGHT	311.6802000000689	RIGHT	633.1293000000642	LEFT	832.3526000000356	LEFT	1238.1998999999269	12.5	0.7	Probable_Truth	RIGHT	LEFT	3	1245.4225999999835	14	2020-12-22 14:39:22.596572
52	Self	S201222	0.5	1	2	2	1	0.5	1000.000002	1066.6666688	1650.0000033	2216.6666711000003	Major	Good_deeds	44	You have queued to enter the MRT train	C2_60	0.05	Easy	I1_33	24	The current century is 21st	0.0	No	LEFT	750.4497999999558	RIGHT	415.7818999999563	RIGHT	1376.7208000000437	RIGHT	1055.1180999999588	12.0	0.5	Probable_Lie	RIGHT	LEFT	6	1254.346499999997	15	2020-12-22 14:39:45.956301
135	Computer	S201222	0.8333333333333334	1	2	2	1	0.5	1283.3333359	1150.0000023	2500.000005	2066.6666708	Major	Wrong_doings	46	You have eaten something in the MRT train	C1_36	1.0	Easy	I1_52	5	The hyoid bone is the only jointless bone	0.0	Yes	LEFT	958.643400000028	LEFT	384.6621000000141	RIGHT	1677.9542000000447	LEFT	903.8491999999678	12.0	0.5	Probable_Lie	RIGHT	LEFT	3	569.1311086002071	16	2020-12-22 14:40:10.020786
62	Self	S201222	0.5	2	1	2	1	0.6	1283.3333359	1433.3333362	1933.3333372	1783.3333369	Major	Wrong_doings	42	You have done something against your values	C1_1	0.9	Easy	I2_45	2	The Eiffel Tower is in Paris	0.888888888888889	Yes	RIGHT	272.1877000000177	RIGHT	788.8444000000163	RIGHT	1890.2001000000157	LEFT	984.1887000000042	12.6	0.6	Probable_Truth	LEFT	RIGHT	6	1451.783999999975	17	2020-12-22 14:40:34.414026
29	Self	S201222	0.6666666666666666	2	1	2	1	0.8	1433.3333362	1433.3333362	2216.6666711000003	1500.000003	Minor	Good_deeds	47	You have helped others to pick up their belongings	C1_16	0.0	Hard	I2_54	46	Mageirocophobia is a fear of deathly disease	0.833333333333333	Yes	RIGHT	319.31440000005296	RIGHT	575.6516999999803	RIGHT	1324.527900000021	RIGHT	720.0834000000214	13.4	0.8	Probable_Truth	RIGHT	RIGHT	4	878.1950000000052	18	2020-12-22 14:40:57.388481
26	Self	S201222	0.6666666666666666	2	1	1	2	0.2	1000.000002	1283.3333359	1650.0000033	2350.0000047	Major	Good_deeds	37	You have cursed at others	C1_6	0.95	Hard	I2_8	21	Marijuana is legal in Singapore	0.0	No	LEFT	304.7265000000152	RIGHT	646.8364999999494	LEFT	872.3158999999896	LEFT	1963.853599999993	13.2	0.2	Probable_Lie	RIGHT	RIGHT	1	749.7889999999643	19	2020-12-22 14:41:20.780960
25	Self	S201222	0.6666666666666666	2	1	1	2	0.7	1350.0000027	1216.6666691	1783.3333369	2216.6666711000003	Major	Good_deeds	16	You have been arrested	C2_50	0.65	Easy	I1_10	40	Saturn's rings are between 30 and 300 feet thick	0.944444444444444	Yes	RIGHT	288.6409000000185	RIGHT	481.27329999988433	RIGHT	902.9367000000548	LEFT	1015.3235000000222	13.9	0.7	Probable_Lie	LEFT	LEFT	4	810.6231000000435	20	2020-12-22 14:41:43.421913
74	Self	S201222	0.6666666666666666	2	1	1	2	0.1	1150.0000023	1150.0000023	1650.0000033	1783.3333369	Major	Wrong_doings	1	You have donated a pay cheque to charity	C1_4	1.0	Easy	I1_38	53	February has 30 days	0.611111111111111	No	RIGHT	288.44660000004296	RIGHT	655.9537000000546	LEFT	896.2913000000299	RIGHT	1337.3977000001105	14.0	0.1	Probable_Truth	RIGHT	RIGHT	3	781.0137999999824	21	2020-12-22 14:42:05.684663
91	Self	S201222	0.8333333333333334	2	1	1	2	0.4	1216.6666691	1000.000002	1933.3333372	1783.3333369	Minor	Wrong_doings	17	You have said sorry when you were rude	C2_29	1.0	Easy	I2_13	36	A dog has four legs	0.888888888888889	Yes	RIGHT	318.8810999999987	RIGHT	460.66029999997227	RIGHT	840.0108000000728	RIGHT	1547.248800000034	14.4	0.4	Probable_Truth	LEFT	LEFT	1	944.6568999999272	22	2020-12-22 14:42:28.301139
3	Self	S201222	0.5	1	2	1	2	0.6	1500.000003	1433.3333362	2066.6666708	1650.0000033	Minor	Wrong_doings	27	You have engaged in underage smoking	C1_50	0.0	Hard	I2_6	3	It takes 500 days to travel from Earth to Mars	0.611111111111111	No	LEFT	1261.1899999999423	RIGHT	287.4409999999443	RIGHT	1166.9844999998986	LEFT	1353.715799999918	13.8	0.6	Probable_Lie	LEFT	RIGHT	3	1252.051000000165	23	2020-12-22 14:42:52.844716
36	Self	S201222	0.8333333333333334	1	2	2	1	0.7	1216.6666691	1066.6666688	1650.0000033	1783.3333369	Minor	Wrong_doings	25	You have let a homeless man into your house	C2_31	0.05	Easy	I2_33	24	Fishes can swim in water	0.0	No	RIGHT	470.9330999999111	RIGHT	288.1680000000415	RIGHT	1128.496499999983	RIGHT	703.7688000000344	14.5	0.7	Probable_Truth	LEFT	LEFT	1	662.757000000056	24	2020-12-22 14:43:14.388600
100	Computer	S201222	0.5	1	2	2	1	0.6	1350.0000027	1066.6666688	1933.3333372	1933.3333372	Minor	Good_deeds	12	You have intentionally let others cut in line	C1_60	0.05	Hard	I1_3	55	Pyramid of Giza is 468 feet tall	0.0	Yes	LEFT	605.0153999999566	LEFT	279.4228000000203	RIGHT	2717.672399999856	RIGHT	2104.504300000144	14.5	0.6	Probable_Lie	RIGHT	LEFT	4	874.5422917684577	25	2020-12-22 14:43:39.814814
46	Self	S201222	0.8333333333333334	2	1	2	1	0.5	1350.0000027	1150.0000023	1650.0000033	2500.000005	Minor	Wrong_doings	8	You have sheltered others from disasters	C2_59	0.0	Hard	I1_17	8	Beer is an alcoholic drink	0.764705882352941	No	RIGHT	287.245700000085	RIGHT	327.73919999999634	RIGHT	1885.666800000081	RIGHT	774.9068999999054	15.0	0.5	Probable_Truth	LEFT	LEFT	1	555.5629000000408	26	2020-12-22 14:44:02.868173
110	Computer	S201222	0.5	2	1	2	1	0.8	1500.000003	1433.3333362	2350.0000047	1933.3333372	Major	Good_deeds	49	You have taken responsibility for your actions	C2_13	0.25	Hard	I2_17	11	Most plants emit oxygen in the day	0.0555555555555556	No	LEFT	303.9667999998983	LEFT	923.6542999999529	RIGHT	3531.756800000039	RIGHT	1246.9378000000688	15.0	0.8	Probable_Lie	RIGHT	RIGHT	1	507.6000008553004	27	2020-12-22 14:44:29.164417
95	Self	S201222	0.8333333333333334	2	1	2	1	0.3	1500.000003	1283.3333359	2500.000005	2066.6666708	Minor	Wrong_doings	48	You have claimed doing things that you never did	C1_40	0.05	Hard	I1_5	9	Mozambique is the world's poorest country	0.833333333333333	No	LEFT	376.6427999998996	RIGHT	924.5917000000644	LEFT	2720.420299999887	LEFT	2454.745100000082	14.7	0.3	Probable_Lie	RIGHT	RIGHT	1	698.218499999939	28	2020-12-22 14:44:56.262039
24	Self	S201222	0.6666666666666666	2	1	1	2	0.6	1283.3333359	1500.000003	2500.000005	1783.3333369	Major	Wrong_doings	38	You have sign up to sponsor a needy child	C2_7	1.0	Hard	I1_46	26	The first Grammy awards was held in 1959	0.0	Yes	LEFT	551.7608000000109	RIGHT	1117.6545999999234	RIGHT	967.6277999999456	RIGHT	1211.5842999999131	14.1	0.6	Probable_Lie	LEFT	LEFT	5	1151.0531000001265	29	2020-12-22 14:45:20.901367
140	Computer	S201222	0.8333333333333334	2	1	2	1	0.6	1150.0000023	1350.0000027	1933.3333372	1933.3333372	Major	Wrong_doings	43	You have gossiped about your best friend	C2_43	0.55	Hard	I1_53	44	R. Amundsen discovered the South Pole	0.0555555555555556	Yes	RIGHT	296.29190000014205	LEFT	675.0746000000163	RIGHT	1710.6633999999303	LEFT	1374.6080000000802	14.1	0.6	Probable_Truth	LEFT	LEFT	1	993.557426535878	30	2020-12-22 14:45:44.892624
123	Computer	S201222	0.6666666666666666	2	1	1	2	0.2	1216.6666691	1066.6666688	1500.000003	1783.3333369	Major	Good_deeds	6	You have stolen something	C2_38	0.85	Hard	I1_40	8	Animals are living things	0.944444444444444	No	RIGHT	288.6776000000282	LEFT	472.8402000000642	RIGHT	631.5729000000374	LEFT	1339.941299999964	14.1	0.2	Probable_Truth	LEFT	LEFT	2	900.8799003770836	31	2020-12-22 14:46:06.661358
37	Self	S201222	0.8333333333333334	1	2	2	1	0.3	1150.0000023	1500.000003	2350.0000047	2500.000005	Major	Good_deeds	31	You have cursed at your loved ones	C2_25	0.7	Hard	I2_58	29	Christmas Day is in March	0.777777777777778	Yes	RIGHT	394.95080000006055	RIGHT	280.87860000005094	LEFT	911.2511000000724	LEFT	720.6757999999809	14.4	0.3	Probable_Truth	RIGHT	RIGHT	3	983.8291999999456	32	2020-12-22 14:46:30.020985
115	Computer	S201222	0.6666666666666666	1	2	1	2	0.7	1066.6666688	1066.6666688	1783.3333369	1500.000003	Minor	Good_deeds	30	You have shown your appreciation to your teachers	C2_20	0.05	Easy	I2_36	12	Dutch is the 6th Europe's most widely spoken language	0.0	Yes	LEFT	714.1684999999143	LEFT	272.9823999998189	RIGHT	1678.4574000000705	RIGHT	1287.0186000000103	14.4	0.7	Probable_Lie	RIGHT	RIGHT	2	630.9903126199172	33	2020-12-22 14:46:52.589999
60	Self	S201222	0.5	2	1	2	1	0.3	1500.000003	1000.000002	2216.6666711000003	2500.000005	Minor	Good_deeds	9	You have downloaded pirated movies	C2_9	0.0	Easy	I2_18	60	Teddy Roosevelt was the youngest US President	0.0	No	RIGHT	280.23579999990034	RIGHT	360.748299999841	RIGHT	1847.1870000000763	LEFT	1271.818200000098	14.7	0.3	Probable_Truth	RIGHT	LEFT	2	1441.037999999935	34	2020-12-22 14:47:17.581368
13	Self	S201222	0.5	2	1	2	1	0.8	1066.6666688	1500.000003	1933.3333372	1783.3333369	Minor	Wrong_doings	17	You have taken part in burglary	C2_47	0.0	Hard	I1_25	17	Milwaukee Art Museum is located in California	1.0	Yes	RIGHT	305.0414000001638	RIGHT	595.2333000000181	LEFT	2393.725300000142	LEFT	1238.1950999999844	15.500000000000002	0.8	Probable_Truth	LEFT	LEFT	3	1429.1493999999147	35	2020-12-22 14:47:42.404452
86	Self	S201222	0.8333333333333334	1	2	2	1	0.3	1066.6666688	1433.3333362	2216.6666711000003	1933.3333372	Major	Good_deeds	33	You have extorted money from anyone	C1_51	1.0	Hard	I2_16	16	Airbags in cars are filled with sodium azide	0.0	No	RIGHT	575.8543999997983	RIGHT	305.0241000000824	LEFT	2420.876600000156	LEFT	712.3407999999927	15.800000000000002	0.3	Probable_Truth	RIGHT	RIGHT	3	818.8052000000425	36	2020-12-22 14:48:06.460294
51	Self	S201222	0.5	1	2	1	2	0.1	1216.6666691	1500.000003	1500.000003	2500.000005	Minor	Good_deeds	26	You have engaged in drink-driving	C1_43	0.05	Hard	I1_21	59	Last day of the year is 30th December	0.944444444444444	No	RIGHT	357.1798000000399	RIGHT	265.0329000000511	LEFT	1759.0045000001735	LEFT	957.5205999999524	15.900000000000002	0.1	Probable_Truth	LEFT	LEFT	2	956.8606000000271	37	2020-12-22 14:48:30.044966
9	Self	S201222	0.5	2	1	1	2	0.2	1283.3333359	1066.6666688	1650.0000033	2350.0000047	Major	Wrong_doings	28	You have violated a traffic law	C1_49	0.0	Easy	I2_42	58	It sometimes snows in Singapore	0.0555555555555556	Yes	RIGHT	241.21089999994183	RIGHT	287.34110000004875	LEFT	848.8677999998799	LEFT	1508.772800000088	16.1	0.2	Probable_Truth	RIGHT	LEFT	1	1091.225199999826	38	2020-12-22 14:48:52.940463
54	Self	S201222	0.5	1	2	2	1	0.2	1066.6666688	1150.0000023	1783.3333369	2066.6666708	Minor	Good_deeds	11	You have risked your life to save another person's life	C1_11	0.95	Hard	I1_54	19	The Earth is round	0.666666666666667	No	LEFT	586.0470999998597	RIGHT	248.25370000007752	RIGHT	960.9278999998878	RIGHT	960.3273999998692	15.900000000000002	0.2	Probable_Lie	LEFT	LEFT	4	863.9571999999589	39	2020-12-22 14:49:15.196935
63	Self	S201222	0.5	2	1	2	1	0.5	1066.6666688	1500.000003	2500.000005	1650.0000033	Minor	Good_deeds	48	You have assisted in a crime	C1_14	1.0	Hard	I1_60	57	It is 20th Century now	0.833333333333333	Yes	LEFT	728.5589999999047	LEFT	629.5004000000972	LEFT	886.7976000001363	LEFT	952.5991999998952	15.900000000000002	0.5	Probable_Lie	RIGHT	LEFT	6	815.9971000000041	40	2020-12-22 14:49:38.501699
127	Computer	S201222	0.6666666666666666	2	1	2	1	0.5	1150.0000023	1500.000003	2216.6666711000003	1933.3333372	Minor	Wrong_doings	6	You have donated blood every 6 months for many years	C1_37	0.1	Easy	I2_46	54	French is Singapore's official language	0.0555555555555556	Yes	RIGHT	1312.339500000007	LEFT	1612.1617999999671	LEFT	1125.8015999999316	RIGHT	1447.1184999999878	15.900000000000002	0.5	Probable_Lie	LEFT	LEFT	5	728.9578496291256	41	2020-12-22 14:50:04.100070
80	Self	S201222	0.8333333333333334	1	2	1	2	0.5	1433.3333362	1216.6666691	1783.3333369	2066.6666708	Major	Wrong_doings	51	You have said thank you when you have received help	C2_28	0.0	Easy	I2_52	23	Today is a weekday	0.833333333333333	No	LEFT	650.5472000001191	RIGHT	336.0571999999138	RIGHT	1216.1151999998765	RIGHT	1084.994399999914	15.400000000000002	0.5	Probable_Lie	RIGHT	RIGHT	1	759.7950000001674	42	2020-12-22 14:50:27.220185
122	Computer	S201222	0.6666666666666666	2	1	1	2	0.8	1283.3333359	1150.0000023	2500.000005	2066.6666708	Major	Good_deeds	37	You have cursed at others	C1_6	0.95	Hard	I2_8	21	Marijuana is legal in Singapore	0.0	No	LEFT	320.8245000000716	LEFT	609.952800000201	LEFT	896.4375000000473	LEFT	767.8980000000593	15.400000000000002	0.8	Probable_Lie	LEFT	RIGHT	1	783.4199734597371	43	2020-12-22 14:50:50.165026
47	Self	S201222	0.8333333333333334	2	1	2	1	0.7	1500.000003	1283.3333359	2350.0000047	1500.000003	Minor	Good_deeds	42	You have provided shelter for stray animals	C2_2	0.2	Easy	I1_8	45	Brazil is in South America	1.0	No	RIGHT	328.5848000000442	RIGHT	476.5167999998994	RIGHT	1510.8549999999923	RIGHT	1128.0833000000712	16.1	0.7	Probable_Truth	LEFT	LEFT	1	796.6633999999431	44	2020-12-22 14:51:13.604463
19	Self	S201222	0.6666666666666666	1	2	1	2	0.2	1433.3333362	1066.6666688	2350.0000047	1933.3333372	Minor	Good_deeds	30	You have shown your appreciation to your teachers	C2_20	0.05	Easy	I2_36	12	Dutch is the 6th Europe's most widely spoken language	0.0	Yes	LEFT	778.427499999907	RIGHT	288.9208000001417	RIGHT	1951.7662000000653	RIGHT	844.1817999998875	15.900000000000002	0.2	Probable_Lie	RIGHT	RIGHT	2	1049.220200000036	45	2020-12-22 14:51:37.876344
81	Self	S201222	0.8333333333333334	1	2	1	2	0.2	1000.000002	1350.0000027	1933.3333372	1500.000003	Minor	Wrong_doings	8	You have watched a pirated movie	C1_34	0.1	Easy	I2_11	41	A triangle has three sides	0.888888888888889	No	LEFT	892.187100000001	RIGHT	288.7813999998343	RIGHT	1222.7175000000443	LEFT	1437.6701000001049	15.700000000000005	0.2	Probable_Lie	LEFT	LEFT	6	714.1458999999486	46	2020-12-22 14:52:00.788471
45	Self	S201222	0.8333333333333334	2	1	2	1	0.1	1066.6666688	1000.000002	2216.6666711000003	1783.3333369	Minor	Good_deeds	59	You have given directions to a lost tourist	C1_29	0.0	Hard	I2_2	28	There are 30 hours in a day	0.0	Yes	RIGHT	240.06519999989	RIGHT	304.32219999988774	LEFT	882.630699999936	RIGHT	958.678299999974	15.800000000000002	0.1	Probable_Truth	LEFT	LEFT	1	668.3682000000317	47	2020-12-22 14:52:22.485791
129	Computer	S201222	0.8333333333333334	1	2	1	2	0.1	1000.000002	1066.6666688	2350.0000047	2500.000005	Minor	Wrong_doings	16	You have cheated on a national exam	C2_46	0.85	Hard	I2_60	58	December is the last month of the year	0.0	No	LEFT	679.2731000000458	LEFT	185.332199999948	RIGHT	1071.9034000001102	LEFT	893.3535000001029	15.800000000000002	0.1	Probable_Lie	LEFT	RIGHT	1	528.481113343466	48	2020-12-22 14:53:24.940678
66	Self	S201222	0.6666666666666666	1	2	1	2	0.3	1350.0000027	1000.000002	1933.3333372	2350.0000047	Major	Good_deeds	53	You have taken months off to volunteer	C2_24	0.55	Hard	I1_31	34	North Korea is more developed than South Korea	0.777777777777778	No	LEFT	665.2246000001014	RIGHT	232.1865000001253	LEFT	1134.8820000000617	RIGHT	1361.012099999925	15.500000000000002	0.3	Probable_Lie	RIGHT	RIGHT	1	826.2676000001647	49	2020-12-22 14:53:48.372082
111	Computer	S201222	0.5	2	1	2	1	0.2	1350.0000027	1150.0000023	2500.000005	1500.000003	Minor	Wrong_doings	57	You have followed instructions	C1_28	0.95	Easy	I2_22	42	There is typically 0.6 grams of mercury in glass thermometer	0.0	No	RIGHT	184.2795000000024	LEFT	484.71790000007786	RIGHT	2126.2764999999035	RIGHT	904.600500000015	15.500000000000002	0.2	Probable_Truth	RIGHT	RIGHT	5	689.9899957152916	50	2020-12-22 14:54:11.820580
114	Computer	S201222	0.6666666666666666	1	2	1	2	0.2	1283.3333359	1433.3333362	1650.0000033	2500.000005	Major	Wrong_doings	56	You have participated in a scamming business	C1_30	0.0	Hard	I1_39	35	Africa is the continent with the least rainfall	0.0	No	LEFT	1216.6446999999607	LEFT	159.09929999997985	RIGHT	1575.3356000000167	LEFT	1011.4657999999964	15.500000000000002	0.2	Probable_Lie	RIGHT	LEFT	6	966.2357553073888	51	2020-12-22 14:54:36.189752
89	Self	S201222	0.8333333333333334	2	1	1	2	0.6	1283.3333359	1150.0000023	1783.3333369	2216.6666711000003	Minor	Good_deeds	22	You have bought cigarettes for a minor	C2_17	0.05	Easy	I1_44	44	The sun rises at night	0.0	Yes	LEFT	704.1996999998901	RIGHT	874.0953999999874	LEFT	1104.73560000014	LEFT	1146.2275000001227	14.900000000000002	0.6	Probable_Lie	RIGHT	RIGHT	1	737.3205000001235	52	2020-12-22 14:54:59.757361
55	Self	S201222	0.5	1	2	2	1	0.4	1350.0000027	1283.3333359	2500.000005	1500.000003	Major	Wrong_doings	23	You have held the elevator doors for others	C2_14	0.7	Easy	I2_25	21	Bears have the biggest eyes among mammals	0.0	Yes	RIGHT	898.7099000000853	RIGHT	263.92200000009325	LEFT	2230.301499999996	RIGHT	1104.726699999901	15.300000000000002	0.4	Probable_Truth	RIGHT	LEFT	2	1886.9414999999208	53	2020-12-22 14:55:25.348580
73	Self	S201222	0.6666666666666666	2	1	1	2	0.6	1500.000003	1000.000002	1500.000003	2216.6666711000003	Major	Wrong_doings	59	You have attended all lectures as a student	C1_31	0.0	Hard	I2_48	38	Slavery was abolished in Cuba in 1886	0.0	No	RIGHT	240.1259000000664	RIGHT	525.548100000151	RIGHT	1872.1184999999423	RIGHT	1241.4625000001251	15.900000000000002	0.6	Probable_Truth	LEFT	LEFT	1	784.3986000000314	54	2020-12-22 14:55:48.804980
96	Computer	S201222	0.5	1	2	1	2	0.3	1283.3333359	1500.000003	2500.000005	2066.6666708	Major	Good_deeds	9	You have watched an M18 movie when you were underage	C1_12	0.95	Easy	I2_55	43	The hardest bone in human body is the jawbone	0.722222222222222	No	LEFT	412.6352999999199	LEFT	120.33659999997326	LEFT	1817.2793000001093	LEFT	1372.758900000008	15.900000000000002	0.3	Probable_Lie	LEFT	LEFT	4	737.5905179181542	55	2020-12-22 14:56:13.190476
128	Computer	S201222	0.8333333333333334	1	2	1	2	0.6	1350.0000027	1433.3333362	2066.6666708	2350.0000047	Major	Good_deeds	33	You have thrown your trash into the bin	C1_7	0.85	Hard	I1_37	37	Cleopatra was born in Greece	0.0555555555555556	No	RIGHT	533.7733999999728	LEFT	776.0576999999103	LEFT	2231.197800000018	RIGHT	2540.9512999999606	15.900000000000002	0.6	Probable_Truth	LEFT	LEFT	1	714.6795269172112	56	2020-12-22 14:56:39.756174
79	Self	S201222	0.6666666666666666	2	1	2	1	0.3	1000.000002	1066.6666688	2500.000005	2350.0000047	Minor	Good_deeds	4	You have sorted your trash into recycling bin	C2_57	0.65	Hard	I2_38	4	Fibers in oranges can be used to make fabric	0.0	Yes	LEFT	357.53380000005563	RIGHT	980.8022999998228	LEFT	2396.293100000093	RIGHT	1383.2715000000917	15.6	0.3	Probable_Lie	LEFT	LEFT	6	949.3772000000718	57	2020-12-22 14:57:05.317139
142	Computer	S201222	0.8333333333333334	2	1	2	1	0.8	1500.000003	1283.3333359	2350.0000047	1783.3333369	Minor	Wrong_doings	8	You have sheltered others from disasters	C2_59	0.0	Hard	I1_17	8	Beer is an alcoholic drink	0.764705882352941	No	LEFT	265.39889999980915	LEFT	989.078900000095	RIGHT	857.519800000091	RIGHT	1207.650600000079	15.6	0.8	Probable_Lie	RIGHT	LEFT	3	866.1811501372497	58	2020-12-22 14:57:28.989223
75	Self	S201222	0.6666666666666666	2	1	1	2	0.7	1283.3333359	1216.6666691	2066.6666708	1500.000003	Major	Wrong_doings	3	You have engaged in arson	C2_1	0.0	Hard	I1_4	38	The Earth turns the closest to the sun in May	0.888888888888889	No	LEFT	368.9566999998988	RIGHT	1726.936700000124	RIGHT	2199.549100000013	LEFT	1022.463099999868	14.900000000000002	0.7	Probable_Lie	RIGHT	RIGHT	2	893.8091999998505	59	2020-12-22 14:57:53.836066
58	Self	S201222	0.5	2	1	1	2	0.1	1216.6666691	1283.3333359	1783.3333369	2216.6666711000003	Minor	Wrong_doings	39	You have used heroin	C2_37	0.15	Hard	I1_57	12	It is night time now	0.666666666666667	Yes	LEFT	535.0783000001229	RIGHT	882.4853000000985	LEFT	1735.0072000001546	LEFT	2935.846399999946	14.800000000000002	0.1	Probable_Lie	LEFT	LEFT	4	4092.261800000188	60	2020-12-22 14:58:23.092750
98	Computer	S201222	0.5	1	2	1	2	0.1	1500.000003	1216.6666691	1783.3333369	2500.000005	Major	Wrong_doings	23	You have told someone's secret to others	C2_27	0.45	Hard	I1_50	50	Malay is one of the races in Singapore	0.944444444444444	Yes	LEFT	2125.9819999997944	LEFT	279.7292999998717	RIGHT	1504.0989999997691	LEFT	1188.806999999997	14.800000000000002	0.1	Probable_Lie	LEFT	LEFT	6	613.8497438743989	61	2020-12-22 14:58:48.380927
32	Self	S201222	0.8333333333333334	1	2	1	2	0.2	1000.000002	1350.0000027	2500.000005	2066.6666708	Major	Good_deeds	33	You have thrown your trash into the bin	C1_7	0.85	Hard	I1_37	37	Cleopatra was born in Greece	0.0555555555555556	No	RIGHT	621.5139999999337	RIGHT	223.96260000004983	LEFT	880.8238999999958	RIGHT	1448.1943999999205	15.000000000000002	0.2	Probable_Truth	LEFT	LEFT	1	753.4044000003632	62	2020-12-22 14:59:11.796668
88	Self	S201222	0.8333333333333334	2	1	1	2	0.2	1150.0000023	1433.3333362	2350.0000047	2500.000005	Major	Good_deeds	40	You have made counterfeit money	C1_22	0.55	Easy	I1_36	27	China is a part of Asia	0.888888888888889	No	RIGHT	176.68430000003357	RIGHT	555.7308000002195	RIGHT	976.1599999997088	LEFT	1230.8797999999117	15.2	0.2	Probable_Truth	RIGHT	RIGHT	3	798.6254000002191	63	2020-12-22 14:59:35.540787
117	Computer	S201222	0.6666666666666666	1	2	2	1	0.4	1500.000003	1283.3333359	2066.6666708	2350.0000047	Major	Wrong_doings	27	You have coveted things that belong to others	C1_46	0.0	Hard	I2_12	27	Summer is hotter than winter	0.111111111111111	No	LEFT	341.6201000000001	LEFT	183.74499999981708	RIGHT	1228.4719999997833	LEFT	2000.1391999999212	15.2	0.4	Probable_Lie	LEFT	LEFT	6	709.791332873863	64	2020-12-22 14:59:59.780251
4	Self	S201222	0.5	1	2	2	1	0.8	1283.3333359	1216.6666691	2216.6666711000003	2066.6666708	Minor	Good_deeds	12	You have intentionally let others cut in line	C1_60	0.05	Hard	I1_3	55	Pyramid of Giza is 468 feet tall	0.0	Yes	LEFT	1232.3460999996314	RIGHT	528.5023000001274	RIGHT	1551.0549999999057	RIGHT	1369.4009999999253	14.4	0.8	Probable_Lie	RIGHT	RIGHT	1	2512.5883000000613	65	2020-12-22 15:00:26.334651
103	Computer	S201222	0.5	1	2	2	1	0.7	1150.0000023	1000.000002	1650.0000033	1783.3333369	Minor	Good_deeds	54	You have bribed a police officer	C1_9	0.8	Hard	I2_26	14	Cernan was the second last man to walk on the Moon	0.0	Yes	RIGHT	504.01130000000194	LEFT	342.8257999999005	RIGHT	2267.6531000001887	LEFT	760.0164000000404	14.4	0.7	Probable_Truth	LEFT	RIGHT	4	874.110277126611	66	2020-12-22 15:00:49.228951
2	Self	S201222	0.5	1	2	1	2	0.1	1216.6666691	1150.0000023	1500.000003	1500.000003	Major	Wrong_doings	23	You have told someone's secret to others	C2_27	0.45	Hard	I1_50	50	Malay is one of the races in Singapore	0.944444444444444	Yes	LEFT	516.826200000196	RIGHT	192.4247000001742	RIGHT	751.81160000011	LEFT	1223.5875000001215	14.3	0.1	Probable_Lie	LEFT	LEFT	4	905.6160000000092	67	2020-12-22 15:01:10.756436
138	Computer	S201222	0.8333333333333334	2	1	1	2	0.2	1433.3333362	1216.6666691	1650.0000033	2066.6666708	Minor	Wrong_doings	10	You have organized a violent protest	C1_8	1.0	Easy	I1_45	43	There are 20 bones in the human skull	0.944444444444444	No	LEFT	104.38310000017736	LEFT	829.7514999999294	LEFT	1663.4134000000813	LEFT	951.6873000002306	14.3	0.2	Probable_Lie	LEFT	RIGHT	1	686.0503416305953	68	2020-12-22 15:01:33.924891
76	Self	S201222	0.6666666666666666	2	1	2	1	0.5	1066.6666688	1500.000003	1783.3333369	2500.000005	Major	Good_deeds	52	You have lied to your parents	C1_59	0.2	Hard	I2_53	48	Beef comes from cows	0.0	Yes	LEFT	216.72350000017104	RIGHT	1138.5182000003624	RIGHT	1540.9209999997984	LEFT	847.3732999996173	13.8	0.5	Probable_Lie	RIGHT	RIGHT	1	822.6400999997168	69	2020-12-22 15:01:57.916811
97	Computer	S201222	0.5	1	2	1	2	0.8	1433.3333362	1283.3333359	1500.000003	2216.6666711000003	Minor	Good_deeds	36	You have given up your seat in the MRT	C2_54	0.85	Easy	I1_14	39	Red is a color	1.0	No	RIGHT	1546.9281999999112	LEFT	247.64290000030087	RIGHT	631.9492000002356	RIGHT	776.4537000002747	13.8	0.8	Probable_Truth	RIGHT	RIGHT	4	781.1476474351746	70	2020-12-22 15:02:20.908618
68	Self	S201222	0.6666666666666666	1	2	2	1	0.8	1500.000003	1066.6666688	1783.3333369	2066.6666708	Major	Good_deeds	53	You have been donating all your excess food to a food bank	C1_45	1.0	Easy	I1_48	48	Nanyang Technological University is in Australia	0.833333333333333	Yes	RIGHT	331.20240000016565	RIGHT	296.8505999997433	LEFT	1413.6393000003409	RIGHT	2270.688699999937	14.6	0.8	Probable_Truth	RIGHT	RIGHT	5	1088.4981999997765	71	2020-12-22 15:02:45.302045
42	Self	S201222	0.8333333333333334	2	1	1	2	0.8	1433.3333362	1433.3333362	1933.3333372	1650.0000033	Minor	Wrong_doings	10	You have organized a violent protest	C1_8	1.0	Easy	I1_45	43	There are 20 bones in the human skull	0.944444444444444	No	RIGHT	375.3676999999698	RIGHT	276.31769999970857	LEFT	1006.6499999998086	LEFT	791.9028999999682	15.400000000000002	0.8	Probable_Truth	RIGHT	RIGHT	6	776.8188000000009	72	2020-12-22 15:03:07.558077
50	Self	S201222	0.5	1	2	1	2	0.7	1500.000003	1350.0000027	2350.0000047	1933.3333372	Major	Wrong_doings	14	You have used a fake name online	C1_23	1.0	Hard	I2_40	54	The human's inner ear is larger than a pencil eraser	0.111111111111111	No	RIGHT	395.07700000012846	RIGHT	328.95369999960167	LEFT	4895.899100000406	LEFT	1019.2569000000732	16.1	0.7	Probable_Truth	LEFT	RIGHT	5	1347.5800000001072	73	2020-12-22 15:03:35.252974
59	Self	S201222	0.5	2	1	1	2	0.7	1350.0000027	1150.0000023	2066.6666708	2350.0000047	Major	Wrong_doings	18	You have given way to the handicapped	C1_48	0.95	Hard	I2_49	18	Vegetarians can eat vegetable products	0.0	No	LEFT	289.46510000014314	RIGHT	877.8530999998111	RIGHT	1880.4235000002336	RIGHT	801.9782000001214	15.400000000000002	0.7	Probable_Lie	LEFT	RIGHT	2	969.5117999999638	74	2020-12-22 15:03:59.564807
87	Self	S201222	0.8333333333333334	1	2	2	1	0.8	1500.000003	1066.6666688	1650.0000033	2216.6666711000003	Minor	Wrong_doings	13	You have been sued	C2_8	1.0	Hard	I1_32	11	Today is Sunday	0.666666666666667	Yes	RIGHT	246.28600000005463	RIGHT	272.59079999976166	LEFT	827.0695000001069	LEFT	1117.9815999998937	16.200000000000003	0.8	Probable_Truth	RIGHT	RIGHT	2	751.4811000000918	75	2020-12-22 15:04:21.788824
41	Self	S201222	0.8333333333333334	2	1	1	2	0.2	1216.6666691	1216.6666691	1500.000003	1933.3333372	Major	Wrong_doings	29	You have bought cocaine	C1_38	1.0	Easy	I2_28	53	Singapore is a poor country	0.0555555555555556	Yes	RIGHT	200.4624999999578	RIGHT	309.12090000038006	LEFT	1008.00130000016	LEFT	725.5173000003197	16.400000000000002	0.2	Probable_Truth	LEFT	LEFT	1	630.442099999982	76	2020-12-22 15:04:43.101726
44	Self	S201222	0.8333333333333334	2	1	2	1	0.4	1283.3333359	1066.6666688	1783.3333369	2066.6666708	Major	Wrong_doings	43	You have gossiped about your best friend	C2_43	0.55	Hard	I1_53	44	R. Amundsen discovered the South Pole	0.0555555555555556	Yes	RIGHT	208.5293999998612	RIGHT	538.6764999998377	RIGHT	1109.9841999998716	LEFT	1118.9368000000286	16.8	0.4	Probable_Truth	RIGHT	RIGHT	3	817.4688000003698	77	2020-12-22 15:05:05.668675
112	Computer	S201222	0.6666666666666666	1	2	1	2	0.3	1150.0000023	1216.6666691	1933.3333372	1650.0000033	Major	Good_deeds	20	You have blackmailed others for money	C1_58	0.7	Hard	I2_35	56	Singapore is a country	0.888888888888889	No	RIGHT	518.5366999999133	LEFT	288.3965000000899	RIGHT	1184.6783999999388	LEFT	790.5613999996604	16.8	0.3	Probable_Truth	LEFT	LEFT	1	811.2545032763032	78	2020-12-22 15:05:27.788470
107	Computer	S201222	0.5	2	1	1	2	0.6	1066.6666688	1283.3333359	1650.0000033	1783.3333369	Minor	Good_deeds	58	You have deceived a loved one	C1_17	0.0	Hard	I2_23	23	A square has 3 corners	0.666666666666667	No	RIGHT	176.87460000024657	LEFT	653.7868999998864	LEFT	920.0583000001644	LEFT	891.3585000000239	16.8	0.6	Probable_Truth	LEFT	LEFT	2	564.4289956685095	79	2020-12-22 15:05:49.348524
104	Computer	S201222	0.5	2	1	1	2	0.3	1000.000002	1216.6666691	2066.6666708	2216.6666711000003	Minor	Good_deeds	47	You have bribed someone to improve a grade	C1_57	0.75	Hard	I1_47	22	Statute of Liberty is in New York	0.944444444444444	No	LEFT	296.1225999997623	LEFT	446.7131000001245	RIGHT	1087.8889999999046	LEFT	1335.8467000002747	16.8	0.3	Probable_Lie	RIGHT	RIGHT	3	968.7204288363682	80	2020-12-22 15:06:12.557826
56	Self	S201222	0.5	2	1	1	2	0.8	1150.0000023	1350.0000027	1650.0000033	1500.000003	Minor	Good_deeds	14	You have lost everything just to help others	C2_18	0.7	Easy	I1_2	49	Hot chocolate was created by the Mayan culture	0.0	Yes	LEFT	198.6762000001363	RIGHT	1311.9414000002507	RIGHT	1224.4046000000708	RIGHT	2390.4806000000463	16.0	0.8	Probable_Lie	LEFT	LEFT	6	3714.780299999802	81	2020-12-22 15:06:39.620148
14	Self	S201222	0.5	2	1	2	1	0.5	1150.0000023	1216.6666691	2066.6666708	1500.000003	Major	Good_deeds	49	You have taken responsibility for your actions	C2_13	0.25	Hard	I2_17	11	Most plants emit oxygen in the day	0.0555555555555556	No	LEFT	319.7620000000825	RIGHT	812.5166999998328	RIGHT	2182.402700000239	RIGHT	919.9321999999484	15.5	0.5	Probable_Lie	RIGHT	RIGHT	3	1511.9518000001335	82	2020-12-22 15:07:03.876653
106	Computer	S201222	0.5	2	1	1	2	0.7	1216.6666691	1500.000003	1500.000003	1650.0000033	Major	Good_deeds	13	You have stopped using plastics completely	C2_3	0.65	Easy	I1_58	25	It takes 112 years to build the Pisa Tower	0.0	Yes	LEFT	191.8194999998377	LEFT	527.8301999996984	RIGHT	871.8888999997034	RIGHT	1279.9645999998577	15.5	0.7	Probable_Lie	LEFT	RIGHT	3	934.2516223062644	83	2020-12-22 15:07:26.118038
67	Self	S201222	0.6666666666666666	1	2	1	2	0.5	1216.6666691	1283.3333359	2500.000005	2216.6666711000003	Minor	Wrong_doings	19	You have kidnapped someone	C2_40	1.0	Easy	I2_34	41	South East Asia is currently free from polio	0.0	No	RIGHT	245.34099999982573	RIGHT	240.2975999998489	RIGHT	3935.419200000069	LEFT	792.2346000000289	16.0	0.5	Probable_Truth	RIGHT	RIGHT	6	827.2255000001678	84	2020-12-22 15:07:51.948147
7	Self	S201222	0.5	1	2	2	1	0.2	1433.3333362	1283.3333359	1933.3333372	1933.3333372	Minor	Good_deeds	54	You have bribed a police officer	C1_9	0.8	Hard	I2_26	14	Cernan was the second last man to walk on the Moon	0.0	Yes	RIGHT	594.7746000001644	RIGHT	537.0541000002049	RIGHT	1597.9105000001257	LEFT	720.2683999998953	16.2	0.2	Probable_Truth	LEFT	RIGHT	6	2101.4792000000853	85	2020-12-22 15:08:16.652612
27	Self	S201222	0.6666666666666666	2	1	1	2	0.4	1066.6666688	1350.0000027	2066.6666708	2500.000005	Major	Good_deeds	6	You have stolen something	C2_38	0.85	Hard	I1_40	8	Animals are living things	0.944444444444444	No	LEFT	320.7103999998253	RIGHT	910.788700000012	RIGHT	672.1622999998544	LEFT	988.332100000207	15.8	0.4	Probable_Lie	LEFT	LEFT	6	1004.5294000001376	86	2020-12-22 15:08:40.108324
90	Self	S201222	0.8333333333333334	2	1	1	2	0.7	1000.000002	1500.000003	2216.6666711000003	2350.0000047	Major	Good_deeds	45	You have adopted a zero-waste lifestyle	C2_48	0.45	Easy	I1_9	3	There are 9 rings in the Olympic flag	0.722222222222222	No	LEFT	256.5192000001844	RIGHT	415.1492999999391	LEFT	1703.9935000002515	RIGHT	1162.1845999998186	15.1	0.7	Probable_Lie	RIGHT	RIGHT	1	611.6625000004206	87	2020-12-22 15:09:03.900163
8	Self	S201222	0.5	2	1	1	2	0.6	1350.0000027	1350.0000027	1500.000003	1650.0000033	Minor	Good_deeds	47	You have bribed someone to improve a grade	C1_57	0.75	Hard	I1_47	22	Statute of Liberty is in New York	0.944444444444444	No	LEFT	455.7420999999522	RIGHT	796.8535999998494	RIGHT	783.3350000000792	LEFT	1000.6429999998544	14.5	0.6	Probable_Lie	LEFT	LEFT	6	1578.3813000002738	88	2020-12-22 15:09:26.940490
93	Self	S201222	0.8333333333333334	2	1	2	1	0.5	1350.0000027	1216.6666691	1500.000003	1500.000003	Major	Wrong_doings	35	You have confessed to your mistake	C1_35	0.95	Hard	I2_27	4	Polish is 20th most spoken language in the World	0.0	Yes	RIGHT	111.4476999996441	RIGHT	261.2587000003259	RIGHT	1356.9526000001133	RIGHT	1014.958100000058	15.0	0.5	Probable_Truth	LEFT	LEFT	1	745.1522999999725	89	2020-12-22 15:09:48.574506
143	Computer	S201222	0.8333333333333334	2	1	2	1	0.3	1000.000002	1433.3333362	2216.6666711000003	2500.000005	Minor	Good_deeds	42	You have provided shelter for stray animals	C2_2	0.2	Easy	I1_8	45	Brazil is in South America	1.0	No	RIGHT	184.80090000002747	LEFT	499.3921000000228	RIGHT	824.2270999999164	RIGHT	3006.148800000119	15.0	0.3	Probable_Lie	LEFT	LEFT	5	509.4343784351133	90	2020-12-22 15:10:13.325081
65	Self	S201222	0.6666666666666666	1	2	1	2	0.7	1000.000002	1433.3333362	1500.000003	1500.000003	Minor	Wrong_doings	19	You have pretended to be busy to avoid a social situation	C1_20	0.95	Hard	I2_41	50	Arabi is the oldest surviving breed of horse	0.0	Yes	RIGHT	549.2051999999603	RIGHT	185.30580000015107	RIGHT	1864.48560000008	LEFT	2990.2336000000105	15.7	0.7	Probable_Truth	RIGHT	RIGHT	3	826.9224000000577	91	2020-12-22 15:10:37.749115
131	Computer	S201222	0.8333333333333334	1	2	1	2	0.8	1216.6666691	1283.3333359	2216.6666711000003	1650.0000033	Minor	Wrong_doings	36	You have kept your promises	C2_16	0.0	Hard	I1_24	33	Astatine is the rarest element in the Earth's crust	0.944444444444444	Yes	RIGHT	461.7721000004167	LEFT	247.69530000003212	RIGHT	1864.4324000001689	RIGHT	999.2030000003068	15.7	0.8	Probable_Truth	RIGHT	RIGHT	6	596.3199537840045	92	2020-12-22 15:11:00.861031
15	Self	S201222	0.5	2	1	2	1	0.3	1433.3333362	1283.3333359	2216.6666711000003	2066.6666708	Minor	Wrong_doings	57	You have followed instructions	C1_28	0.95	Easy	I2_22	42	There is typically 0.6 grams of mercury in glass thermometer	0.0	No	RIGHT	222.94719999990772	RIGHT	568.7131000004229	RIGHT	1558.835799999997	RIGHT	823.1427999999141	16.0	0.3	Probable_Truth	RIGHT	RIGHT	4	2696.400599999833	93	2020-12-22 15:11:26.308865
53	Self	S201222	0.5	1	2	2	1	0.6	1433.3333362	1000.000002	1933.3333372	2350.0000047	Minor	Wrong_doings	35	You have sold illegal drugs	C2_35	0.9	Hard	I2_24	25	The Seine river is 50 feet above sea level	0.666666666666667	Yes	RIGHT	300.86100000016813	RIGHT	200.2292000001944	RIGHT	1341.5125999999873	LEFT	982.8838000003088	16.6	0.6	Probable_Truth	RIGHT	RIGHT	5	1317.795500000102	94	2020-12-22 15:11:49.740648
78	Self	S201222	0.6666666666666666	2	1	2	1	0.8	1433.3333362	1433.3333362	1933.3333372	1650.0000033	Minor	Good_deeds	11	You have been convicted in court	C1_3	0.2	Easy	I2_51	13	Chickens lay eggs	1.0	No	RIGHT	248.81589999995413	RIGHT	240.09520000026896	RIGHT	654.4094999999288	LEFT	750.5783999999949	17.400000000000002	0.8	Probable_Truth	RIGHT	RIGHT	6	715.7320999999683	95	2020-12-22 15:12:11.381043
28	Self	S201222	0.6666666666666666	2	1	2	1	0.3	1150.0000023	1000.000002	1500.000003	2066.6666708	Minor	Wrong_doings	7	You have engaged in money laundering	C2_6	0.0	Easy	I1_26	46	Singapore ranked 8th in World's smallest countries	0.0	No	LEFT	249.3973000000551	RIGHT	517.3030999999355	RIGHT	1453.6622999999054	LEFT	800.3426999998737	17.1	0.3	Probable_Lie	RIGHT	RIGHT	1	776.6452000000754	96	2020-12-22 15:13:32.812970
116	Computer	S201222	0.6666666666666666	1	2	2	1	0.6	1350.0000027	1150.0000023	2216.6666711000003	1933.3333372	Major	Good_deeds	39	You have volunteered for a disaster-related humanitarian mission	C2_30	1.0	Hard	I2_56	36	Lehman Brothers went bankrupt on 20th September	0.611111111111111	Yes	LEFT	664.8734999998851	LEFT	152.020900000025	RIGHT	2019.827200000236	RIGHT	1359.885100000156	17.1	0.6	Probable_Lie	LEFT	LEFT	5	568.046966958377	97	2020-12-22 15:13:56.796161
16	Self	S201222	0.6666666666666666	1	2	1	2	0.5	1283.3333359	1000.000002	1783.3333369	1650.0000033	Major	Good_deeds	20	You have blackmailed others for money	C1_58	0.7	Hard	I2_35	56	Singapore is a country	0.888888888888889	No	RIGHT	298.77070000020467	RIGHT	152.7301000000989	RIGHT	559.9437000000762	LEFT	1207.6329000001351	17.6	0.5	Probable_Truth	LEFT	LEFT	2	1043.101299999762	98	2020-12-22 15:14:18.348953
82	Self	S201222	0.8333333333333334	1	2	1	2	0.6	1283.3333359	1000.000002	2350.0000047	1783.3333369	Major	Good_deeds	34	You have helped your parents when asked to	C2_34	0.0	Easy	I2_30	30	There are 6 million animal species on Earth	0.0	Yes	RIGHT	275.59500000006665	RIGHT	488.6143000003358	RIGHT	1286.1981999999443	RIGHT	1450.9373999999298	18.200000000000003	0.6	Probable_Truth	RIGHT	RIGHT	3	714.8636000001716	99	2020-12-22 15:14:41.556194
30	Self	S201222	0.6666666666666666	2	1	2	1	0.5	1500.000003	1066.6666688	2350.0000047	1933.3333372	Minor	Wrong_doings	50	You have complimented others for good work	C1_47	0.05	Easy	I2_21	10	The Moon orbits around the Earth	0.777777777777778	No	RIGHT	63.13039999986359	RIGHT	803.090599999905	RIGHT	1236.0093000002053	RIGHT	822.6534999998876	18.700000000000003	0.5	Probable_Truth	LEFT	LEFT	2	689.0696000000389	100	2020-12-22 15:15:04.596818
33	Self	S201222	0.8333333333333334	1	2	1	2	0.1	1433.3333362	1283.3333359	1933.3333372	1650.0000033	Minor	Wrong_doings	16	You have cheated on a national exam	C2_46	0.85	Hard	I2_60	58	December is the last month of the year	0.0	No	LEFT	835.5056999998851	RIGHT	296.2658999999803	RIGHT	1431.2528000000384	LEFT	861.5032000002429	18.6	0.1	Probable_Lie	LEFT	LEFT	6	842.339599999832	101	2020-12-22 15:15:27.740398
94	Self	S201222	0.8333333333333334	2	1	2	1	0.8	1433.3333362	1066.6666688	1650.0000033	1933.3333372	Minor	Good_deeds	29	You have borrowed things and never returned	C1_24	0.0	Hard	I2_4	13	There are 6000 spoken languages in the World	0.0555555555555556	Yes	RIGHT	152.94589999984964	RIGHT	255.51980000000185	RIGHT	891.1167999999634	LEFT	919.9002000000291	19.4	0.8	Probable_Truth	LEFT	LEFT	1	1259.1797000000042	102	2020-12-22 15:15:49.877036
119	Computer	S201222	0.6666666666666666	1	2	2	1	0.5	1216.6666691	1000.000002	2350.0000047	1783.3333369	Minor	Wrong_doings	58	You have started an NGO using your savings	C1_27	0.5	Easy	I1_6	6	Acoustic Kitty refers to cat with implants	0.888888888888889	No	LEFT	808.050699999967	LEFT	151.00100000017846	LEFT	3130.1981000001438	RIGHT	1248.48830000019	19.4	0.5	Probable_Lie	RIGHT	LEFT	5	594.0044577928328	103	2020-12-22 15:16:14.732421
17	Self	S201222	0.6666666666666666	1	2	1	2	0.8	1066.6666688	1350.0000027	1933.3333372	2066.6666708	Minor	Good_deeds	30	You have fabricated facts about yourself	C2_56	0.0	Easy	I1_27	39	There are 10 continents in the World	0.0	Yes	RIGHT	396.7570000004344	RIGHT	248.65779999981896	LEFT	919.470100000126	LEFT	1988.437700000304	20.200000000000003	0.8	Probable_Truth	LEFT	LEFT	2	1582.5486999997338	104	2020-12-22 15:16:38.860310
21	Self	S201222	0.6666666666666666	1	2	2	1	0.4	1500.000003	1500.000003	2500.000005	2350.0000047	Major	Wrong_doings	27	You have coveted things that belong to others	C1_46	0.0	Hard	I2_12	27	Summer is hotter than winter	0.111111111111111	No	LEFT	637.3601999998755	RIGHT	24.537899999813817	RIGHT	1204.529900000125	LEFT	719.7700000001532	19.800000000000004	0.4	Probable_Lie	LEFT	LEFT	5	1089.185400000133	105	2020-12-22 15:17:02.957071
84	Self	S201222	0.8333333333333334	1	2	2	1	0.1	1150.0000023	1500.000003	2066.6666708	1650.0000033	Major	Wrong_doings	28	You have signed up as a bone marrow donor	C2_33	1.0	Easy	I1_1	32	Afghan Hound is the first cloned cat	0.833333333333333	No	RIGHT	223.7374000001182	RIGHT	223.29080000008616	LEFT	2870.310000000245	RIGHT	896.4746000001469	19.90000000000001	0.1	Probable_Truth	LEFT	LEFT	1	925.9192000004076	106	2020-12-22 15:17:27.037719
18	Self	S201222	0.6666666666666666	1	2	1	2	0.3	1350.0000027	1216.6666691	2066.6666708	2500.000005	Major	Wrong_doings	56	You have participated in a scamming business	C1_30	0.0	Hard	I1_39	35	Africa is the continent with the least rainfall	0.0	No	RIGHT	213.93330000000788	RIGHT	16.996500000004744	RIGHT	1392.3988999999892	LEFT	923.431900000196	20.200000000000006	0.3	Probable_Truth	LEFT	LEFT	1	1087.0797000002312	107	2020-12-22 15:17:50.380246
23	Self	S201222	0.6666666666666666	1	2	2	1	0.6	1000.000002	1433.3333362	2216.6666711000003	1500.000003	Minor	Wrong_doings	58	You have started an NGO using your savings	C1_27	0.5	Easy	I1_6	6	Acoustic Kitty refers to cat with implants	0.888888888888889	No	LEFT	615.8940999998777	RIGHT	8.424099999956525	LEFT	782.5161000000662	RIGHT	654.5649999998204	19.600000000000005	0.6	Probable_Lie	LEFT	LEFT	6	743.2248999998592	108	2020-12-22 15:18:11.908304
43	Self	S201222	0.8333333333333334	2	1	1	2	0.3	1150.0000023	1500.000003	2066.6666708	2216.6666711000003	Major	Good_deeds	2	You have made someone cry	C2_10	0.15	Easy	I2_43	2	Algeria is Africa's second largest country	0.0	Yes	LEFT	664.474700000028	LEFT	814.0800000001036	RIGHT	1064.566600000035	LEFT	969.9977999998736	19.600000000000005	0.3	Probable_Lie	LEFT	LEFT	6	750.4911000000902	109	2020-12-22 15:18:35.676684
134	Computer	S201222	0.8333333333333334	1	2	2	1	0.2	1500.000003	1216.6666691	1933.3333372	1500.000003	Major	Good_deeds	15	You have started a movement to support a cause	C1_33	0.0	Easy	I2_5	60	The Amazon forest covers an area of 1 billion acres	0.888888888888889	No	RIGHT	1408.92440000016	LEFT	176.3042000002315	RIGHT	1030.8915999999044	RIGHT	1471.617199999855	19.600000000000005	0.2	Probable_Truth	LEFT	LEFT	1	944.6720938405736	110	2020-12-22 15:18:59.436810
109	Computer	S201222	0.5	2	1	2	1	0.1	1283.3333359	1066.6666688	1933.3333372	2066.6666708	Minor	Wrong_doings	17	You have taken part in burglary	C2_47	0.0	Hard	I1_25	17	Milwaukee Art Museum is located in California	1.0	Yes	RIGHT	192.99999999975623	LEFT	651.4766000000236	LEFT	1253.1220999999275	LEFT	1040.355399999953	19.600000000000005	0.1	Probable_Truth	RIGHT	RIGHT	4	928.5942172619908	111	2020-12-22 15:19:22.429761
35	Self	S201222	0.8333333333333334	1	2	1	2	0.8	1500.000003	1000.000002	1783.3333369	2216.6666711000003	Minor	Wrong_doings	36	You have kept your promises	C2_16	0.0	Hard	I1_24	33	Astatine is the rarest element in the Earth's crust	0.944444444444444	Yes	RIGHT	513.4840999999142	RIGHT	287.98409999990326	RIGHT	967.5759000001564	RIGHT	1272.8360000000976	20.40000000000001	0.8	Probable_Lie	LEFT	LEFT	5	714.1341999999895	112	2020-12-22 15:19:45.260078
31	Self	S201222	0.6666666666666666	2	1	2	1	0.1	1216.6666691	1150.0000023	1933.3333372	1650.0000033	Minor	Wrong_doings	6	You have donated blood every 6 months for many years	C1_37	0.1	Easy	I2_46	54	French is Singapore's official language	0.0555555555555556	Yes	RIGHT	31.22380000013436	RIGHT	251.4658000000054	LEFT	1059.2845999999554	RIGHT	902.5661000000582	20.500000000000007	0.1	Probable_Truth	RIGHT	RIGHT	6	1634.4248999998854	113	2020-12-22 15:20:07.661626
70	Self	S201222	0.6666666666666666	1	2	2	1	0.1	1066.6666688	1500.000003	2350.0000047	1933.3333372	Major	Wrong_doings	24	You have illegally stayed in a country	C1_19	0.0	Hard	I2_50	31	Carnivore refers to meat-eater	0.0555555555555556	No	LEFT	916.0360000000765	RIGHT	78.41280000002371	RIGHT	918.399700000009	LEFT	767.728299999817	20.40000000000001	0.1	Probable_Lie	RIGHT	RIGHT	2	685.2744000002531	114	2020-12-22 15:20:30.452891
5	Self	S201222	0.5	1	2	2	1	0.3	1150.0000023	1066.6666688	1783.3333369	2500.000005	Major	Wrong_doings	50	You have been restricting your electricity consumption	C2_36	0.65	Easy	I1_43	26	Obama is the USA president now	0.0	No	RIGHT	641.4810999999645	RIGHT	31.33930000012697	LEFT	1228.0871000002662	RIGHT	1886.9651999998496	20.700000000000006	0.3	Probable_Truth	RIGHT	LEFT	1	1486.9665999999595	115	2020-12-22 15:20:54.804333
83	Self	S201222	0.8333333333333334	1	2	1	2	0.4	1216.6666691	1283.3333359	1500.000003	2500.000005	Minor	Good_deeds	34	You have failed to keep promises	C1_13	0.05	Hard	I1_23	52	Kangaroos live in Africa	0.0	Yes	RIGHT	605.5628000003708	RIGHT	297.1125999997639	RIGHT	775.7479000001695	LEFT	998.1371000003492	21.100000000000005	0.4	Probable_Truth	RIGHT	RIGHT	2	676.3737000001129	116	2020-12-22 15:21:17.228900
48	Self	S201222	0.5	1	2	1	2	0.3	1150.0000023	1216.6666691	2216.6666711000003	1650.0000033	Major	Good_deeds	60	You have faked an illness	C1_44	0.05	Easy	I1_19	40	Septicemia is a lung infection condition	0.944444444444444	Yes	LEFT	792.8581999999551	RIGHT	239.27649999995992	RIGHT	992.1629999998912	LEFT	896.2156000002324	20.800000000000004	0.3	Probable_Lie	RIGHT	RIGHT	3	2813.7833000000683	117	2020-12-22 15:21:41.772459
38	Self	S201222	0.8333333333333334	1	2	2	1	0.5	1066.6666688	1216.6666691	2216.6666711000003	1500.000003	Major	Good_deeds	15	You have started a movement to support a cause	C1_33	0.0	Easy	I2_5	60	The Amazon forest covers an area of 1 billion acres	0.888888888888889	No	RIGHT	288.3842000001096	RIGHT	24.502299999767278	RIGHT	1142.5633999997444	RIGHT	783.8775000000169	21.300000000000004	0.5	Probable_Truth	RIGHT	RIGHT	2	1097.9260000003703	118	2020-12-22 15:22:03.684156
22	Self	S201222	0.6666666666666666	1	2	2	1	0.7	1150.0000023	1283.3333359	1500.000003	1783.3333369	Minor	Wrong_doings	46	You have switched off appliances when not in use	C2_39	0.9	Easy	I1_35	35	Singapore has four seasons	0.722222222222222	Yes	LEFT	596.6723999999886	RIGHT	232.98609999983452	LEFT	1388.709899999867	RIGHT	1350.6472000003669	20.600000000000005	0.7	Probable_Lie	RIGHT	RIGHT	1	769.7342000001299	119	2020-12-22 15:22:26.316637
34	Self	S201222	0.8333333333333334	1	2	1	2	0.6	1350.0000027	1433.3333362	2066.6666708	1933.3333372	Minor	Good_deeds	7	You have taken part in violent demonstration	C1_15	0.0	Easy	I1_29	52	Penguin can fly with their wings	0.722222222222222	Yes	LEFT	1846.9551000002864	RIGHT	240.0319000003037	LEFT	1393.9892000003056	Time_Max_Exceeded	5000.131499999952	20.000000000000004	0.6	Probable_Lie	RIGHT	RIGHT	1	688.8489000002664	120	2020-12-22 15:22:54.845801
120	Computer	S201222	0.6666666666666666	2	1	1	2	0.4	1000.000002	1350.0000027	1933.3333372	2216.6666711000003	Major	Wrong_doings	38	You have sign up to sponsor a needy child	C2_7	1.0	Hard	I1_46	26	The first Grammy awards was held in 1959	0.0	Yes	RIGHT	289.09939999994094	LEFT	627.6257999998052	RIGHT	797.9562000000442	RIGHT	1281.368800000109	20.000000000000004	0.4	Probable_Truth	RIGHT	RIGHT	3	704.0473423182482	121	2020-12-22 15:23:17.612121
130	Computer	S201222	0.8333333333333334	1	2	1	2	0.4	1150.0000023	1350.0000027	1783.3333369	2216.6666711000003	Minor	Good_deeds	7	You have taken part in violent demonstration	C1_15	0.0	Easy	I1_29	52	Penguin can fly with their wings	0.722222222222222	Yes	LEFT	461.9450000000143	LEFT	168.24829999995927	LEFT	784.0226999996958	LEFT	833.7618000000475	20.000000000000004	0.4	Probable_Lie	RIGHT	RIGHT	1	880.0192815137314	122	2020-12-22 15:23:39.813999
113	Computer	S201222	0.6666666666666666	1	2	1	2	0.8	1433.3333362	1500.000003	2500.000005	2066.6666708	Minor	Good_deeds	30	You have fabricated facts about yourself	C2_56	0.0	Easy	I1_27	39	There are 10 continents in the World	0.0	Yes	LEFT	603.049800000008	LEFT	102.42410000000746	LEFT	671.9037000002572	LEFT	942.5390000001244	20.000000000000004	0.8	Probable_Truth	LEFT	RIGHT	3	608.4459128547346	123	2020-12-22 15:24:02.804187
49	Self	S201222	0.5	1	2	1	2	0.8	1283.3333359	1433.3333362	2066.6666708	1783.3333369	Minor	Wrong_doings	43	You have rescued others from a catastrophe	C2_26	0.0	Easy	I2_59	33	Cheese is an Asian staple	0.0555555555555556	Yes	LEFT	988.745800000288	RIGHT	120.3654999999344	LEFT	1400.404200000139	LEFT	1747.393699999975	19.200000000000003	0.8	Probable_Lie	RIGHT	LEFT	6	1170.79670000021	124	2020-12-22 15:24:27.372656
40	Self	S201222	0.8333333333333334	2	1	1	2	0.6	1000.000002	1350.0000027	2500.000005	2350.0000047	Major	Good_deeds	38	You have returned your trays in food courts	C1_42	0.95	Hard	I2_44	17	Mexico's National Day is September 16	1.0	No	RIGHT	23.91360000001441	RIGHT	270.2622000001611	RIGHT	1911.4765999997871	RIGHT	1738.3169999998245	19.800000000000004	0.6	Probable_Truth	RIGHT	RIGHT	4	744.334600000002	125	2020-12-22 15:24:51.836276
64	Self	S201222	0.6666666666666666	1	2	1	2	0.6	1150.0000023	1350.0000027	2066.6666708	1783.3333369	Minor	Good_deeds	40	You have offered a listening ear to a friend	C1_53	0.0	Hard	I1_28	28	"Statue of Liberty is 151 feet tall"	0.0	No	LEFT	733.6901000003309	RIGHT	112.08579999993162	RIGHT	847.1859000001132	LEFT	2426.7343000001347	19.200000000000003	0.6	Probable_Lie	LEFT	LEFT	5	864.6817000003466	126	2020-12-22 15:25:15.748824
0	Self	S201222	0.5	1	2	1	2	0.4	1350.0000027	1350.0000027	2350.0000047	2350.0000047	Major	Good_deeds	9	You have watched an M18 movie when you were underage	C1_12	0.95	Easy	I2_55	43	The hardest bone in human body is the jawbone	0.722222222222222	No	LEFT	770.7040999998753	RIGHT	320.2581000000464	LEFT	1023.259699999926	LEFT	955.0010000002658	18.800000000000004	0.4	Probable_Lie	RIGHT	RIGHT	2	1600.6388999999217	127	2020-12-22 15:25:40.397832
102	Computer	S201222	0.5	1	2	2	1	0.2	1216.6666691	1150.0000023	2216.6666711000003	1500.000003	Major	Wrong_doings	60	You have stopped using products tested on animals	C2_23	0.1	Easy	I2_39	6	It is snowing outside now	0.0	Yes	LEFT	1261.9565999998483	LEFT	1592.4457999999504	LEFT	3785.140699999829	RIGHT	1903.8338999998812	18.800000000000004	0.2	Probable_Lie	RIGHT	LEFT	5	595.5816242053992	128	2020-12-22 15:26:08.204618
136	Computer	S201222	0.8333333333333334	2	1	1	2	0.5	1350.0000027	1000.000002	2066.6666708	2216.6666711000003	Major	Good_deeds	38	You have returned your trays in food courts	C1_42	0.95	Hard	I2_44	17	Mexico's National Day is September 16	1.0	No	RIGHT	328.6319999997432	LEFT	693.5754999999517	LEFT	783.5463999999774	RIGHT	864.5121999998082	18.800000000000004	0.5	Probable_Lie	LEFT	LEFT	3	932.3852593145456	129	2020-12-22 15:26:31.012628
101	Computer	S201222	0.5	1	2	2	1	0.5	1066.6666688	1433.3333362	2350.0000047	1650.0000033	Major	Wrong_doings	50	You have been restricting your electricity consumption	C2_36	0.65	Easy	I1_43	26	Obama is the USA president now	0.0	No	LEFT	438.1045999998605	LEFT	191.82150000006004	LEFT	816.1800000002586	RIGHT	1168.095699999867	18.800000000000004	0.5	Probable_Lie	RIGHT	LEFT	4	733.7961526565566	130	2020-12-22 15:26:53.428652
20	Self	S201222	0.6666666666666666	1	2	2	1	0.1	1216.6666691	1150.0000023	1650.0000033	2216.6666711000003	Major	Good_deeds	39	You have volunteered for a disaster-related humanitarian mission	C2_30	1.0	Hard	I2_56	36	Lehman Brothers went bankrupt on 20th September	0.611111111111111	Yes	RIGHT	351.2804999995751	RIGHT	255.4480999997395	RIGHT	1312.4476000002687	RIGHT	1232.0176000002905	18.90000000000001	0.1	Probable_Truth	LEFT	LEFT	2	1582.334499999888	131	2020-12-22 15:27:16.972211
57	Self	S201222	0.5	2	1	1	2	0.4	1433.3333362	1066.6666688	1500.000003	2066.6666708	Major	Good_deeds	1	You have volunteered every week for many years	C2_42	0.0	Hard	I1_12	31	The Franco-Prussian War occurred in the 19th century	0.777777777777778	No	LEFT	528.6791999997149	LEFT	773.2328000001871	RIGHT	887.6605000000382	RIGHT	1415.5888999998751	18.90000000000001	0.4	Probable_Lie	LEFT	LEFT	5	1247.5736999999754	132	2020-12-22 15:27:40.468133
39	Self	S201222	0.8333333333333334	1	2	2	1	0.4	1283.3333359	1150.0000023	1500.000003	2350.0000047	Major	Wrong_doings	46	You have eaten something in the MRT train	C1_36	1.0	Easy	I1_52	5	The hyoid bone is the only jointless bone	0.0	Yes	RIGHT	326.73320000003514	RIGHT	111.95020000013756	LEFT	1132.161599999563	LEFT	959.4495000001187	19.300000000000004	0.4	Probable_Truth	LEFT	LEFT	1	747.863900000084	133	2020-12-22 15:28:02.604390
99	Computer	S201222	0.5	1	2	1	2	0.4	1000.000002	1350.0000027	2066.6666708	2350.0000047	Minor	Wrong_doings	27	You have engaged in underage smoking	C1_50	0.0	Hard	I2_6	3	It takes 500 days to travel from Earth to Mars	0.611111111111111	No	LEFT	715.8394000002772	LEFT	1120.7260000001042	RIGHT	1007.2743000000628	LEFT	1548.2701999999335	19.300000000000004	0.4	Probable_Lie	LEFT	LEFT	4	543.1468944481503	134	2020-12-22 15:28:26.884112
92	Self	S201222	0.8333333333333334	2	1	2	1	0.1	1066.6666688	1350.0000027	2066.6666708	1650.0000033	Major	Wrong_doings	24	You have been physically hurt to protect others	C2_45	0.8	Hard	I2_3	5	A caterpillar has more muscle than a human	0.0	No	RIGHT	103.94329999962792	RIGHT	30.71620000037001	RIGHT	1495.3964999999698	RIGHT	2166.5891999996347	19.40000000000001	0.1	Probable_Truth	RIGHT	RIGHT	6	974.2249999999332	135	2020-12-22 15:28:50.364982
71	Self	S201222	0.6666666666666666	1	2	2	1	0.2	1433.3333362	1216.6666691	1650.0000033	1650.0000033	Major	Wrong_doings	20	You have helped a friend in need	C2_19	0.0	Easy	I1_15	15	There are 7 days in a week	0.888888888888889	Yes	RIGHT	112.09520000011253	RIGHT	48.22590000003402	RIGHT	1166.2514999998166	RIGHT	743.7386999999944	19.600000000000005	0.2	Probable_Truth	LEFT	LEFT	1	778.5530999999537	136	2020-12-22 15:29:11.740947
12	Self	S201222	0.5	2	1	2	1	0.1	1500.000003	1433.3333362	2500.000005	2216.6666711000003	Major	Wrong_doings	3	You have a non-judgmental attitude towards everyone	C2_58	0.95	Easy	I1_11	47	Nomophobia is the fear of being without a phone or computer	0.833333333333333	Yes	RIGHT	191.98010000036447	RIGHT	277.2893999999724	RIGHT	4282.669199999873	RIGHT	1135.063799999898	19.700000000000006	0.1	Probable_Truth	RIGHT	LEFT	1	974.611300000106	137	2020-12-22 15:29:38.828952
126	Computer	S201222	0.6666666666666666	2	1	2	1	0.7	1066.6666688	1000.000002	2066.6666708	1500.000003	Minor	Wrong_doings	50	You have complimented others for good work	C1_47	0.05	Easy	I2_21	10	The Moon orbits around the Earth	0.777777777777778	No	RIGHT	104.30739999992512	LEFT	712.9419000002599	RIGHT	822.7335000001403	RIGHT	744.249100000161	19.700000000000006	0.7	Probable_Truth	LEFT	LEFT	1	882.30058067411	138	2020-12-22 15:30:00.300668
118	Computer	S201222	0.6666666666666666	1	2	2	1	0.1	1000.000002	1350.0000027	1500.000003	2216.6666711000003	Minor	Wrong_doings	46	You have switched off appliances when not in use	C2_39	0.9	Easy	I1_35	35	Singapore has four seasons	0.722222222222222	Yes	LEFT	1051.6989000002468	LEFT	920.3105000001416	LEFT	784.7561999997197	RIGHT	800.0612000000729	19.700000000000006	0.1	Probable_Lie	RIGHT	LEFT	6	530.0908734859838	139	2020-12-22 15:30:23.028668
85	Self	S201222	0.8333333333333334	1	2	2	1	0.7	1350.0000027	1150.0000023	2500.000005	2350.0000047	Minor	Good_deeds	5	You have started a hotline for victims of bully	C1_5	0.85	Hard	I1_41	1	Earth's atmosphere extends up to 10,000km into space	0.166666666666667	Yes	RIGHT	765.2732999999898	RIGHT	79.99319999998988	RIGHT	1170.6241000001685	RIGHT	1727.733900000203	20.40000000000001	0.7	Probable_Lie	LEFT	LEFT	2	562.9930000000058	140	2020-12-22 15:30:47.260270
141	Computer	S201222	0.8333333333333334	2	1	2	1	0.1	1283.3333359	1066.6666688	2500.000005	1650.0000033	Minor	Good_deeds	59	You have given directions to a lost tourist	C1_29	0.0	Hard	I2_2	28	There are 30 hours in a day	0.0	Yes	LEFT	120.07589999984702	LEFT	708.2979000001615	LEFT	943.6351999997896	RIGHT	655.6621999998242	20.40000000000001	0.1	Probable_Lie	LEFT	RIGHT	1	590.7631459868121	141	2020-12-22 15:31:09.339716
108	Computer	S201222	0.5	2	1	2	1	0.5	1150.0000023	1350.0000027	2216.6666711000003	2500.000005	Major	Wrong_doings	3	You have a non-judgmental attitude towards everyone	C2_58	0.95	Easy	I1_11	47	Nomophobia is the fear of being without a phone or computer	0.833333333333333	Yes	LEFT	136.7616999996244	LEFT	346.71650000018417	RIGHT	1430.828799999745	RIGHT	1278.3517000002576	20.40000000000001	0.5	Probable_Lie	LEFT	RIGHT	1	776.5030400060735	142	2020-12-22 15:31:33.100674
72	Self	S201222	0.6666666666666666	2	1	1	2	0.2	1216.6666691	1283.3333359	2350.0000047	2066.6666708	Minor	Good_deeds	31	You have helped with household chores	C2_52	0.85	Easy	I1_42	42	Singapore is in Africa	0.777777777777778	Yes	RIGHT	254.841899999974	RIGHT	186.23620000016672	LEFT	800.4237000000103	RIGHT	1108.8009000000056	20.600000000000005	0.2	Probable_Truth	LEFT	LEFT	1	1484.268699999575	143	2020-12-22 15:31:56.428495
