"Participant"	"Task"	"Stimulus_Side"	"Response"	"RT"	"ITI"	"Previous_Response"	"Previous_RT"	"Stop_Signal"	"Stop_Signal_RT"	"Conflict"	"Cue_Response"	"Cue_Response_RT"	"Trial_Onset"	"Trial_End"	"Trial_Order"	"Duration"
"S210209"	"Conflict_Resolution"	"RIGHT"	"RIGHT"	471.347400000013	1316.6666693	n/a	n/a	n/a	n/a	"False"	n/a	n/a	"2021-02-09 14:00:46.216153"	"2021-02-09 14:00:46.895026"	1	5.67798473333333
"S210209"	"Conflict_Resolution"	"RIGHT"	"RIGHT"	388.721400000009	983.3333353	n/a	n/a	n/a	n/a	"False"	n/a	n/a	"2021-02-09 14:00:47.898468"	"2021-02-09 14:00:48.495010"	2	5.67798473333333
"S210209"	"Conflict_Resolution"	"LEFT"	"LEFT"	475.698400000056	1216.6666691	n/a	n/a	n/a	n/a	"True"	n/a	n/a	"2021-02-09 14:00:49.731201"	"2021-02-09 14:00:50.416382"	3	5.67798473333333
"S210209"	"Conflict_Resolution"	"LEFT"	"LEFT"	441.802199999984	1416.6666695	n/a	n/a	n/a	n/a	"False"	n/a	n/a	"2021-02-09 14:00:51.853541"	"2021-02-09 14:00:52.502674"	4	5.67798473333333
"S210209"	"Conflict_Resolution"	"LEFT"	"LEFT"	512.638299999935	916.6666685	n/a	n/a	n/a	n/a	"True"	n/a	n/a	"2021-02-09 14:00:53.438225"	"2021-02-09 14:00:54.160127"	5	5.67798473333333
"S210209"	"Conflict_Resolution"	"RIGHT"	"RIGHT"	403.679499999953	550.0000011	n/a	n/a	n/a	n/a	"False"	n/a	n/a	"2021-02-09 14:00:54.731602"	"2021-02-09 14:00:55.344339"	6	5.67798473333333
"S210209"	"Conflict_Resolution"	"RIGHT"	"RIGHT"	601.526700000022	850.0000017	n/a	n/a	n/a	n/a	"True"	n/a	n/a	"2021-02-09 14:00:56.214061"	"2021-02-09 14:00:57.023197"	7	5.67798473333333
"S210209"	"Conflict_Resolution"	"RIGHT"	"RIGHT"	455.93759999997	500.000001	n/a	n/a	n/a	n/a	"True"	n/a	n/a	"2021-02-09 14:00:57.542809"	"2021-02-09 14:00:58.206731"	8	5.67798473333333
"S210209"	"Conflict_Resolution"	"LEFT"	"LEFT"	512.480799999935	1100.0000022	n/a	n/a	n/a	n/a	"True"	n/a	n/a	"2021-02-09 14:00:59.326495"	"2021-02-09 14:01:00.048545"	9	5.67798473333333
"S210209"	"Conflict_Resolution"	"LEFT"	"LEFT"	495.795300000054	900.0000018	n/a	n/a	n/a	n/a	"True"	n/a	n/a	"2021-02-09 14:01:00.967565"	"2021-02-09 14:01:01.670648"	10	5.67798473333333
"S210209"	"Conflict_Resolution"	"RIGHT"	"RIGHT"	560.41300000004	1100.0000022	n/a	n/a	n/a	n/a	"True"	n/a	n/a	"2021-02-09 14:01:02.791134"	"2021-02-09 14:01:03.558987"	11	5.67798473333333
"S210209"	"Conflict_Resolution"	"RIGHT"	"RIGHT"	533.89930000003	1150.0000023	n/a	n/a	n/a	n/a	"True"	n/a	n/a	"2021-02-09 14:01:04.729746"	"2021-02-09 14:01:05.470675"	12	5.67798473333333
"S210209"	"Conflict_Resolution"	"LEFT"	"LEFT"	517.156	1200.0000024	n/a	n/a	n/a	n/a	"True"	n/a	n/a	"2021-02-09 14:01:06.690559"	"2021-02-09 14:01:07.416233"	13	5.67798473333333
"S210209"	"Conflict_Resolution"	"RIGHT"	"RIGHT"	441.854299999932	1050.0000021	n/a	n/a	n/a	n/a	"False"	n/a	n/a	"2021-02-09 14:01:08.485051"	"2021-02-09 14:01:09.136472"	14	5.67798473333333
"S210209"	"Conflict_Resolution"	"LEFT"	"LEFT"	742.806299999984	1116.6666689	n/a	n/a	n/a	n/a	"False"	n/a	n/a	"2021-02-09 14:01:10.272856"	"2021-02-09 14:01:11.222765"	15	5.67798473333333
"S210209"	"Conflict_Resolution"	"RIGHT"	"RIGHT"	451.528800000006	1233.3333358	n/a	n/a	n/a	n/a	"True"	n/a	n/a	"2021-02-09 14:01:12.476232"	"2021-02-09 14:01:13.135675"	16	5.67798473333333
"S210209"	"Conflict_Resolution"	"LEFT"	"LEFT"	482.128900000021	1050.0000021	n/a	n/a	n/a	n/a	"True"	n/a	n/a	"2021-02-09 14:01:14.205324"	"2021-02-09 14:01:14.896468"	17	5.67798473333333
"S210209"	"Conflict_Resolution"	"LEFT"	"LEFT"	559.095299999967	1300.0000026	n/a	n/a	n/a	n/a	"True"	n/a	n/a	"2021-02-09 14:01:16.216021"	"2021-02-09 14:01:16.982690"	18	5.67798473333333
"S210209"	"Conflict_Resolution"	"LEFT"	"LEFT"	443.754000000013	816.6666683	n/a	n/a	n/a	n/a	"True"	n/a	n/a	"2021-02-09 14:01:17.819620"	"2021-02-09 14:01:18.472573"	19	5.67798473333333
"S210209"	"Conflict_Resolution"	"RIGHT"	"RIGHT"	490.184500000055	833.333335	n/a	n/a	n/a	n/a	"True"	n/a	n/a	"2021-02-09 14:01:19.325398"	"2021-02-09 14:01:20.024248"	20	5.67798473333333
"S210209"	"Conflict_Resolution"	"RIGHT"	"RIGHT"	438.530000000014	1133.3333356	n/a	n/a	n/a	n/a	"False"	n/a	n/a	"2021-02-09 14:01:21.176184"	"2021-02-09 14:01:21.823507"	21	5.67798473333333
"S210209"	"Conflict_Resolution"	"LEFT"	"LEFT"	410.367999999949	1450.0000029	n/a	n/a	n/a	n/a	"False"	n/a	n/a	"2021-02-09 14:01:23.293379"	"2021-02-09 14:01:23.911391"	22	5.67798473333333
"S210209"	"Conflict_Resolution"	"RIGHT"	"RIGHT"	402.494499999989	1000.000002	n/a	n/a	n/a	n/a	"False"	n/a	n/a	"2021-02-09 14:01:24.932267"	"2021-02-09 14:01:25.543214"	23	5.67798473333333
"S210209"	"Conflict_Resolution"	"LEFT"	"LEFT"	446.217300000058	733.3333348	n/a	n/a	n/a	n/a	"False"	n/a	n/a	"2021-02-09 14:01:26.296955"	"2021-02-09 14:01:26.951217"	24	5.67798473333333
"S210209"	"Conflict_Resolution"	"LEFT"	"LEFT"	446.208700000057	566.6666678	n/a	n/a	n/a	n/a	"False"	n/a	n/a	"2021-02-09 14:01:27.537360"	"2021-02-09 14:01:28.191647"	25	5.67798473333333
"S210209"	"Conflict_Resolution"	"LEFT"	"LEFT"	395.834000000036	583.3333345	n/a	n/a	n/a	n/a	"False"	n/a	n/a	"2021-02-09 14:01:28.795064"	"2021-02-09 14:01:29.399028"	26	5.67798473333333
"S210209"	"Conflict_Resolution"	"LEFT"	"LEFT"	508.836699999961	1000.000002	n/a	n/a	n/a	n/a	"True"	n/a	n/a	"2021-02-09 14:01:30.417951"	"2021-02-09 14:01:31.135091"	27	5.67798473333333
"S210209"	"Conflict_Resolution"	"LEFT"	"LEFT"	477.119000000016	950.0000019	n/a	n/a	n/a	n/a	"True"	n/a	n/a	"2021-02-09 14:01:32.106597"	"2021-02-09 14:01:32.792333"	28	5.67798473333333
"S210209"	"Conflict_Resolution"	"RIGHT"	"RIGHT"	525.665099999969	1133.3333356	n/a	n/a	n/a	n/a	"True"	n/a	n/a	"2021-02-09 14:01:33.945759"	"2021-02-09 14:01:34.680389"	29	5.67798473333333
"S210209"	"Conflict_Resolution"	"RIGHT"	"RIGHT"	405.974600000036	900.0000018	n/a	n/a	n/a	n/a	"False"	n/a	n/a	"2021-02-09 14:01:35.601066"	"2021-02-09 14:01:36.216063"	30	5.67798473333333
"S210209"	"Conflict_Resolution"	"LEFT"	"LEFT"	440.93410000005	766.6666682	n/a	n/a	n/a	n/a	"True"	n/a	n/a	"2021-02-09 14:01:37.005900"	"2021-02-09 14:01:37.656412"	31	5.67798473333333
"S210209"	"Conflict_Resolution"	"LEFT"	"LEFT"	468.060600000058	783.3333349	n/a	n/a	n/a	n/a	"True"	n/a	n/a	"2021-02-09 14:01:38.458920"	"2021-02-09 14:01:39.135616"	32	5.67798473333333
"S210209"	"Conflict_Resolution"	"RIGHT"	"RIGHT"	512.115900000026	1083.3333355	n/a	n/a	n/a	n/a	"True"	n/a	n/a	"2021-02-09 14:01:40.238619"	"2021-02-09 14:01:40.959149"	33	5.67798473333333
"S210209"	"Conflict_Resolution"	"RIGHT"	"RIGHT"	532.964600000014	1216.6666691	n/a	n/a	n/a	n/a	"True"	n/a	n/a	"2021-02-09 14:01:42.193794"	"2021-02-09 14:01:42.935605"	34	5.67798473333333
"S210209"	"Conflict_Resolution"	"LEFT"	"LEFT"	363.114099999962	1400.0000028	n/a	n/a	n/a	n/a	"False"	n/a	n/a	"2021-02-09 14:01:44.356348"	"2021-02-09 14:01:44.928002"	35	5.67798473333333
"S210209"	"Conflict_Resolution"	"RIGHT"	"RIGHT"	465.918299999998	833.333335	n/a	n/a	n/a	n/a	"False"	n/a	n/a	"2021-02-09 14:01:45.781209"	"2021-02-09 14:01:46.454821"	36	5.67798473333333
"S210209"	"Conflict_Resolution"	"LEFT"	"LEFT"	481.07200000004	1316.6666693	n/a	n/a	n/a	n/a	"True"	n/a	n/a	"2021-02-09 14:01:47.789811"	"2021-02-09 14:01:48.478966"	37	5.67798473333333
"S210209"	"Conflict_Resolution"	"RIGHT"	"RIGHT"	479.889400000047	900.0000018	n/a	n/a	n/a	n/a	"True"	n/a	n/a	"2021-02-09 14:01:49.399022"	"2021-02-09 14:01:50.086702"	38	5.67798473333333
"S210209"	"Conflict_Resolution"	"LEFT"	"LEFT"	556.405899999959	583.3333345	n/a	n/a	n/a	n/a	"True"	n/a	n/a	"2021-02-09 14:01:50.690111"	"2021-02-09 14:01:51.454955"	39	5.67798473333333
"S210209"	"Conflict_Resolution"	"RIGHT"	"RIGHT"	359.01530000001	1150.0000023	n/a	n/a	n/a	n/a	"False"	n/a	n/a	"2021-02-09 14:01:52.624522"	"2021-02-09 14:01:53.192283"	40	5.67798473333333
"S210209"	"Conflict_Resolution"	"RIGHT"	"RIGHT"	410.96959999993	1416.6666695	n/a	n/a	n/a	n/a	"False"	n/a	n/a	"2021-02-09 14:01:54.628363"	"2021-02-09 14:01:55.247081"	41	5.67798473333333
"S210209"	"Conflict_Resolution"	"RIGHT"	"RIGHT"	420.110899999941	1216.6666691	n/a	n/a	n/a	n/a	"False"	n/a	n/a	"2021-02-09 14:01:56.483373"	"2021-02-09 14:01:57.111344"	42	5.67798473333333
"S210209"	"Conflict_Resolution"	"LEFT"	"LEFT"	453.504199999998	533.3333344	n/a	n/a	n/a	n/a	"False"	n/a	n/a	"2021-02-09 14:01:57.665829"	"2021-02-09 14:01:58.327680"	43	5.67798473333333
"S210209"	"Conflict_Resolution"	"LEFT"	"LEFT"	442.642000000092	616.6666679	n/a	n/a	n/a	n/a	"False"	n/a	n/a	"2021-02-09 14:01:58.964798"	"2021-02-09 14:01:59.614766"	44	5.67798473333333
"S210209"	"Conflict_Resolution"	"RIGHT"	"RIGHT"	442.450199999939	1466.6666696	n/a	n/a	n/a	n/a	"False"	n/a	n/a	"2021-02-09 14:02:01.101476"	"2021-02-09 14:02:01.751046"	45	5.67798473333333
"S210209"	"Conflict_Resolution"	"RIGHT"	"RIGHT"	601.728700000081	883.3333351	n/a	n/a	n/a	n/a	"True"	n/a	n/a	"2021-02-09 14:02:02.653188"	"2021-02-09 14:02:03.463661"	46	5.67798473333333
"S210209"	"Conflict_Resolution"	"RIGHT"	"RIGHT"	465.65940000005	1266.6666692	n/a	n/a	n/a	n/a	"True"	n/a	n/a	"2021-02-09 14:02:04.749119"	"2021-02-09 14:02:05.424420"	47	5.67798473333333
"S210209"	"Conflict_Resolution"	"LEFT"	"LEFT"	416.285100000096	1266.6666692	n/a	n/a	n/a	n/a	"False"	n/a	n/a	"2021-02-09 14:02:06.711334"	"2021-02-09 14:02:07.334960"	48	5.67798473333333
"S210209"	"Conflict_Resolution"	"LEFT"	"LEFT"	459.020599999917	1250.0000025	n/a	n/a	n/a	n/a	"False"	n/a	n/a	"2021-02-09 14:02:08.603975"	"2021-02-09 14:02:09.271799"	49	5.67798473333333
"S210209"	"Conflict_Resolution"	"RIGHT"	"RIGHT"	500.330499999905	583.3333345	n/a	n/a	n/a	n/a	"True"	n/a	n/a	"2021-02-09 14:02:09.875040"	"2021-02-09 14:02:10.583078"	50	5.67798473333333
"S210209"	"Conflict_Resolution"	"RIGHT"	"RIGHT"	436.565599999994	933.3333352	n/a	n/a	n/a	n/a	"False"	n/a	n/a	"2021-02-09 14:02:11.538897"	"2021-02-09 14:02:12.182826"	51	5.67798473333333
"S210209"	"Conflict_Resolution"	"LEFT"	"LEFT"	422.591200000056	916.6666685	n/a	n/a	n/a	n/a	"False"	n/a	n/a	"2021-02-09 14:02:13.120688"	"2021-02-09 14:02:13.752245"	52	5.67798473333333
"S210209"	"Conflict_Resolution"	"RIGHT"	"RIGHT"	434.603799999991	1033.3333354	n/a	n/a	n/a	n/a	"True"	n/a	n/a	"2021-02-09 14:02:14.805024"	"2021-02-09 14:02:15.446665"	53	5.67798473333333
"S210209"	"Conflict_Resolution"	"RIGHT"	"RIGHT"	405.11939999999	750.0000015	n/a	n/a	n/a	n/a	"False"	n/a	n/a	"2021-02-09 14:02:16.217614"	"2021-02-09 14:02:16.830739"	54	5.67798473333333
"S210209"	"Conflict_Resolution"	"LEFT"	"LEFT"	410.733800000003	633.3333346	n/a	n/a	n/a	n/a	"False"	n/a	n/a	"2021-02-09 14:02:17.484723"	"2021-02-09 14:02:18.103315"	55	5.67798473333333
"S210209"	"Conflict_Resolution"	"LEFT"	"LEFT"	472.104899999977	900.0000018	n/a	n/a	n/a	n/a	"False"	n/a	n/a	"2021-02-09 14:02:19.023448"	"2021-02-09 14:02:19.703661"	56	5.67798473333333
"S210209"	"Conflict_Resolution"	"LEFT"	"LEFT"	411.824000000024	1216.6666691	n/a	n/a	n/a	n/a	"False"	n/a	n/a	"2021-02-09 14:02:20.939813"	"2021-02-09 14:02:21.560513"	57	5.67798473333333
"S210209"	"Conflict_Resolution"	"LEFT"	"LEFT"	576.882899999987	850.0000017	n/a	n/a	n/a	n/a	"True"	n/a	n/a	"2021-02-09 14:02:22.430637"	"2021-02-09 14:02:23.215327"	58	5.67798473333333
"S210209"	"Conflict_Resolution"	"LEFT"	"LEFT"	473.174599999993	683.3333347	n/a	n/a	n/a	n/a	"True"	n/a	n/a	"2021-02-09 14:02:23.918357"	"2021-02-09 14:02:24.600436"	59	5.67798473333333
"S210209"	"Conflict_Resolution"	"RIGHT"	"RIGHT"	486.621700000001	750.0000015	n/a	n/a	n/a	n/a	"True"	n/a	n/a	"2021-02-09 14:02:25.370025"	"2021-02-09 14:02:26.063921"	60	5.67798473333333
"S210209"	"Conflict_Resolution"	"LEFT"	"LEFT"	661.212699999965	1150.0000023	n/a	n/a	n/a	n/a	"True"	n/a	n/a	"2021-02-09 14:02:27.234320"	"2021-02-09 14:02:28.103888"	61	5.67798473333333
"S210209"	"Conflict_Resolution"	"LEFT"	"LEFT"	545.340199999941	1450.0000029	n/a	n/a	n/a	n/a	"True"	n/a	n/a	"2021-02-09 14:02:29.573733"	"2021-02-09 14:02:30.327343"	62	5.67798473333333
"S210209"	"Conflict_Resolution"	"RIGHT"	"RIGHT"	481.794799999989	850.0000017	n/a	n/a	n/a	n/a	"False"	n/a	n/a	"2021-02-09 14:02:31.196972"	"2021-02-09 14:02:31.886634"	63	5.67798473333333
"S210209"	"Conflict_Resolution"	"RIGHT"	"RIGHT"	564.943699999958	1183.3333357	n/a	n/a	n/a	n/a	"True"	n/a	n/a	"2021-02-09 14:02:33.090538"	"2021-02-09 14:02:33.863320"	64	5.67798473333333
"S210209"	"Conflict_Resolution"	"LEFT"	"LEFT"	427.853000000027	1166.666669	n/a	n/a	n/a	n/a	"False"	n/a	n/a	"2021-02-09 14:02:35.051738"	"2021-02-09 14:02:35.686667"	65	5.67798473333333
"S210209"	"Conflict_Resolution"	"RIGHT"	"RIGHT"	549.860999999964	700.0000014	n/a	n/a	n/a	n/a	"True"	n/a	n/a	"2021-02-09 14:02:36.409780"	"2021-02-09 14:02:37.167983"	66	5.67798473333333
"S210209"	"Conflict_Resolution"	"RIGHT"	"RIGHT"	583.062700000028	933.3333352	n/a	n/a	n/a	n/a	"True"	n/a	n/a	"2021-02-09 14:02:38.119713"	"2021-02-09 14:02:38.911419"	67	5.67798473333333
"S210209"	"Conflict_Resolution"	"RIGHT"	"RIGHT"	427.202899999997	1383.3333361	n/a	n/a	n/a	n/a	"False"	n/a	n/a	"2021-02-09 14:02:40.316342"	"2021-02-09 14:02:40.951376"	68	5.67798473333333
"S210209"	"Conflict_Resolution"	"LEFT"	"LEFT"	435.655200000042	1400.0000028	n/a	n/a	n/a	n/a	"True"	n/a	n/a	"2021-02-09 14:02:42.371226"	"2021-02-09 14:02:43.014041"	69	5.67798473333333
"S210209"	"Conflict_Resolution"	"LEFT"	"LEFT"	502.608799999962	966.6666686	n/a	n/a	n/a	n/a	"True"	n/a	n/a	"2021-02-09 14:02:44.000904"	"2021-02-09 14:02:44.711327"	70	5.67798473333333
"S210209"	"Conflict_Resolution"	"LEFT"	"LEFT"	512.463199999956	716.6666681	n/a	n/a	n/a	n/a	"False"	n/a	n/a	"2021-02-09 14:02:45.447437"	"2021-02-09 14:02:46.168312"	71	5.67798473333333
"S210209"	"Conflict_Resolution"	"RIGHT"	"RIGHT"	434.375899999964	633.3333346	n/a	n/a	n/a	n/a	"True"	n/a	n/a	"2021-02-09 14:02:46.820356"	"2021-02-09 14:02:47.463121"	72	5.67798473333333
"S210209"	"Conflict_Resolution"	"LEFT"	"LEFT"	537.218400000029	616.6666679	n/a	n/a	n/a	n/a	"True"	n/a	n/a	"2021-02-09 14:02:48.101908"	"2021-02-09 14:02:48.846844"	73	5.67798473333333
"S210209"	"Conflict_Resolution"	"RIGHT"	"RIGHT"	429.306699999984	783.3333349	n/a	n/a	n/a	n/a	"False"	n/a	n/a	"2021-02-09 14:02:49.649378"	"2021-02-09 14:02:50.287526"	74	5.67798473333333
"S210209"	"Conflict_Resolution"	"LEFT"	"LEFT"	743.736499999955	1116.6666689	n/a	n/a	n/a	n/a	"True"	n/a	n/a	"2021-02-09 14:02:51.423624"	"2021-02-09 14:02:52.375405"	75	5.67798473333333
"S210209"	"Conflict_Resolution"	"RIGHT"	"RIGHT"	375.318399999969	533.3333344	n/a	n/a	n/a	n/a	"False"	n/a	n/a	"2021-02-09 14:02:52.927475"	"2021-02-09 14:02:53.510645"	76	5.67798473333333
"S210209"	"Conflict_Resolution"	"LEFT"	"LEFT"	397.533400000043	1366.6666694	n/a	n/a	n/a	n/a	"False"	n/a	n/a	"2021-02-09 14:02:54.897317"	"2021-02-09 14:02:55.503343"	77	5.67798473333333
"S210209"	"Conflict_Resolution"	"LEFT"	"LEFT"	544.037800000069	716.6666681	n/a	n/a	n/a	n/a	"True"	n/a	n/a	"2021-02-09 14:02:56.239378"	"2021-02-09 14:02:56.992464"	78	5.67798473333333
"S210209"	"Conflict_Resolution"	"LEFT"	"LEFT"	451.236999999992	1016.6666687	n/a	n/a	n/a	n/a	"False"	n/a	n/a	"2021-02-09 14:02:58.028174"	"2021-02-09 14:02:58.687972"	79	5.67798473333333
"S210209"	"Conflict_Resolution"	"RIGHT"	"RIGHT"	411.471500000061	1366.6666694	n/a	n/a	n/a	n/a	"False"	n/a	n/a	"2021-02-09 14:03:00.075323"	"2021-02-09 14:03:00.694768"	80	5.67798473333333
"S210209"	"Conflict_Resolution"	"LEFT"	"LEFT"	397.976399999948	1316.6666693	n/a	n/a	n/a	n/a	"False"	n/a	n/a	"2021-02-09 14:03:02.033361"	"2021-02-09 14:03:02.638907"	81	5.67798473333333
"S210209"	"Conflict_Resolution"	"LEFT"	"LEFT"	590.624600000069	733.3333348	n/a	n/a	n/a	n/a	"True"	n/a	n/a	"2021-02-09 14:03:03.392952"	"2021-02-09 14:03:04.191616"	82	5.67798473333333
"S210209"	"Conflict_Resolution"	"LEFT"	"LEFT"	468.566199999941	1366.6666694	n/a	n/a	n/a	n/a	"True"	n/a	n/a	"2021-02-09 14:03:05.578069"	"2021-02-09 14:03:06.255101"	83	5.67798473333333
"S210209"	"Conflict_Resolution"	"LEFT"	"LEFT"	474.446299999954	1050.0000021	n/a	n/a	n/a	n/a	"False"	n/a	n/a	"2021-02-09 14:03:07.324751"	"2021-02-09 14:03:08.006305"	84	5.67798473333333
"S210209"	"Conflict_Resolution"	"RIGHT"	"RIGHT"	417.415800000072	1100.0000022	n/a	n/a	n/a	n/a	"False"	n/a	n/a	"2021-02-09 14:03:09.125388"	"2021-02-09 14:03:09.750703"	85	5.67798473333333
"S210209"	"Conflict_Resolution"	"RIGHT"	"RIGHT"	562.076599999955	650.0000013	n/a	n/a	n/a	n/a	"True"	n/a	n/a	"2021-02-09 14:03:10.420911"	"2021-02-09 14:03:11.191233"	86	5.67798473333333
"S210209"	"Conflict_Resolution"	"RIGHT"	"RIGHT"	509.97760000007	700.0000014	n/a	n/a	n/a	n/a	"False"	n/a	n/a	"2021-02-09 14:03:11.913366"	"2021-02-09 14:03:12.631104"	87	5.67798473333333
"S210209"	"Conflict_Resolution"	"LEFT"	"LEFT"	434.147900000085	666.666668	n/a	n/a	n/a	n/a	"True"	n/a	n/a	"2021-02-09 14:03:13.317291"	"2021-02-09 14:03:13.960260"	88	5.67798473333333
"S210209"	"Conflict_Resolution"	"RIGHT"	"RIGHT"	500.001699999984	800.0000016	n/a	n/a	n/a	n/a	"True"	n/a	n/a	"2021-02-09 14:03:14.778791"	"2021-02-09 14:03:15.486934"	89	5.67798473333333
"S210209"	"Conflict_Resolution"	"RIGHT"	"LEFT"	380.508899999995	1383.3333361	n/a	n/a	n/a	n/a	"True"	n/a	n/a	"2021-02-09 14:03:16.890816"	"2021-02-09 14:03:17.479697"	90	5.67798473333333
"S210209"	"Conflict_Resolution"	"LEFT"	"LEFT"	462.328899999989	1350.0000027	n/a	n/a	n/a	n/a	"False"	n/a	n/a	"2021-02-09 14:03:18.849259"	"2021-02-09 14:03:19.520447"	91	5.67798473333333
"S210209"	"Conflict_Resolution"	"LEFT"	"LEFT"	622.211500000049	1500.000003	n/a	n/a	n/a	n/a	"True"	n/a	n/a	"2021-02-09 14:03:21.041133"	"2021-02-09 14:03:21.870743"	92	5.67798473333333
"S210209"	"Conflict_Resolution"	"LEFT"	"LEFT"	484.185700000012	1000.000002	n/a	n/a	n/a	n/a	"False"	n/a	n/a	"2021-02-09 14:03:22.890567"	"2021-02-09 14:03:23.583080"	93	5.67798473333333
"S210209"	"Conflict_Resolution"	"RIGHT"	"RIGHT"	531.320499999993	1433.3333362	n/a	n/a	n/a	n/a	"False"	n/a	n/a	"2021-02-09 14:03:25.035350"	"2021-02-09 14:03:25.776393"	94	5.67798473333333
"S210209"	"Conflict_Resolution"	"LEFT"	"LEFT"	449.110000000019	1016.6666687	n/a	n/a	n/a	n/a	"True"	n/a	n/a	"2021-02-09 14:03:26.813726"	"2021-02-09 14:03:27.472571"	95	5.67798473333333
"S210209"	"Conflict_Resolution"	"RIGHT"	"RIGHT"	537.643899999921	633.3333346	n/a	n/a	n/a	n/a	"False"	n/a	n/a	"2021-02-09 14:03:28.125895"	"2021-02-09 14:03:28.872065"	96	5.67798473333333
"S210209"	"Conflict_Resolution"	"LEFT"	"LEFT"	538.366400000086	1066.6666688	n/a	n/a	n/a	n/a	"True"	n/a	n/a	"2021-02-09 14:03:29.956693"	"2021-02-09 14:03:30.703735"	97	5.67798473333333
"S210209"	"Conflict_Resolution"	"LEFT"	"LEFT"	547.793100000035	533.3333344	n/a	n/a	n/a	n/a	"True"	n/a	n/a	"2021-02-09 14:03:31.259219"	"2021-02-09 14:03:32.014019"	98	5.67798473333333
"S210209"	"Conflict_Resolution"	"LEFT"	"LEFT"	469.001100000014	766.6666682	n/a	n/a	n/a	n/a	"False"	n/a	n/a	"2021-02-09 14:03:32.801567"	"2021-02-09 14:03:33.480594"	99	5.67798473333333
"S210209"	"Conflict_Resolution"	"LEFT"	"LEFT"	466.848000000027	783.3333349	n/a	n/a	n/a	n/a	"False"	n/a	n/a	"2021-02-09 14:03:34.283949"	"2021-02-09 14:03:34.959041"	100	5.67798473333333
"S210209"	"Conflict_Resolution"	"RIGHT"	"RIGHT"	466.856500000063	1033.3333354	n/a	n/a	n/a	n/a	"False"	n/a	n/a	"2021-02-09 14:03:36.011933"	"2021-02-09 14:03:36.686781"	101	5.67798473333333
"S210209"	"Conflict_Resolution"	"LEFT"	"LEFT"	447.857900000031	1100.0000022	n/a	n/a	n/a	n/a	"False"	n/a	n/a	"2021-02-09 14:03:37.806808"	"2021-02-09 14:03:38.463501"	102	5.67798473333333
"S210209"	"Conflict_Resolution"	"LEFT"	"LEFT"	438.46880000001	516.6666677	n/a	n/a	n/a	n/a	"False"	n/a	n/a	"2021-02-09 14:03:39.000685"	"2021-02-09 14:03:39.647949"	103	5.67798473333333
"S210209"	"Conflict_Resolution"	"RIGHT"	"RIGHT"	542.894600000068	1316.6666693	n/a	n/a	n/a	n/a	"True"	n/a	n/a	"2021-02-09 14:03:40.984530"	"2021-02-09 14:03:41.736132"	104	5.67798473333333
"S210209"	"Conflict_Resolution"	"LEFT"	"LEFT"	685.996199999977	516.6666677	n/a	n/a	n/a	n/a	"True"	n/a	n/a	"2021-02-09 14:03:42.272670"	"2021-02-09 14:03:43.166856"	105	5.67798473333333
"S210209"	"Conflict_Resolution"	"RIGHT"	"RIGHT"	458.403100000055	1233.3333358	n/a	n/a	n/a	n/a	"False"	n/a	n/a	"2021-02-09 14:03:44.420094"	"2021-02-09 14:03:45.088192"	106	5.67798473333333
"S210209"	"Conflict_Resolution"	"LEFT"	"LEFT"	371.541499999921	1200.0000024	n/a	n/a	n/a	n/a	"False"	n/a	n/a	"2021-02-09 14:03:46.307622"	"2021-02-09 14:03:46.887571"	107	5.67798473333333
"S210209"	"Conflict_Resolution"	"RIGHT"	"RIGHT"	428.175600000031	583.3333345	n/a	n/a	n/a	n/a	"False"	n/a	n/a	"2021-02-09 14:03:47.490616"	"2021-02-09 14:03:48.126090"	108	5.67798473333333
"S210209"	"Conflict_Resolution"	"RIGHT"	"RIGHT"	664.966900000081	1283.3333359	n/a	n/a	n/a	n/a	"True"	n/a	n/a	"2021-02-09 14:03:49.430424"	"2021-02-09 14:03:50.302778"	109	5.67798473333333
"S210209"	"Conflict_Resolution"	"LEFT"	"LEFT"	517.257599999994	1166.666669	n/a	n/a	n/a	n/a	"True"	n/a	n/a	"2021-02-09 14:03:51.489768"	"2021-02-09 14:03:52.215144"	110	5.67798473333333
"S210209"	"Conflict_Resolution"	"RIGHT"	"RIGHT"	586.976899999968	1050.0000021	n/a	n/a	n/a	n/a	"True"	n/a	n/a	"2021-02-09 14:03:53.283680"	"2021-02-09 14:03:54.078669"	111	5.67798473333333
"S210209"	"Conflict_Resolution"	"LEFT"	"LEFT"	405.784499999982	950.0000019	n/a	n/a	n/a	n/a	"False"	n/a	n/a	"2021-02-09 14:03:55.049450"	"2021-02-09 14:03:55.662230"	112	5.67798473333333
"S210209"	"Conflict_Resolution"	"LEFT"	"LEFT"	610.459699999979	866.6666684	n/a	n/a	n/a	n/a	"True"	n/a	n/a	"2021-02-09 14:03:56.548183"	"2021-02-09 14:03:57.367333"	113	5.67798473333333
"S210209"	"Conflict_Resolution"	"LEFT"	"LEFT"	586.014299999988	633.3333346	n/a	n/a	n/a	n/a	"True"	n/a	n/a	"2021-02-09 14:03:58.020891"	"2021-02-09 14:03:58.815025"	114	5.67798473333333
"S210209"	"Conflict_Resolution"	"RIGHT"	"RIGHT"	521.224599999982	1483.3333363	n/a	n/a	n/a	n/a	"True"	n/a	n/a	"2021-02-09 14:04:00.317928"	"2021-02-09 14:04:01.045896"	115	5.67798473333333
"S210209"	"Conflict_Resolution"	"RIGHT"	"RIGHT"	577.181899999914	883.3333351	n/a	n/a	n/a	n/a	"False"	n/a	n/a	"2021-02-09 14:04:01.950190"	"2021-02-09 14:04:02.734675"	116	5.67798473333333
"S210209"	"Conflict_Resolution"	"RIGHT"	"RIGHT"	664.160700000025	683.3333347	n/a	n/a	n/a	n/a	"False"	n/a	n/a	"2021-02-09 14:04:03.439631"	"2021-02-09 14:04:04.313708"	117	5.67798473333333
"S210209"	"Conflict_Resolution"	"RIGHT"	"RIGHT"	585.75529999996	1000.000002	n/a	n/a	n/a	n/a	"True"	n/a	n/a	"2021-02-09 14:04:05.333257"	"2021-02-09 14:04:06.126879"	118	5.67798473333333
"S210209"	"Conflict_Resolution"	"RIGHT"	"RIGHT"	750.86859999999	733.3333348	n/a	n/a	n/a	n/a	"True"	n/a	n/a	"2021-02-09 14:04:06.880088"	"2021-02-09 14:04:07.840370"	119	5.67798473333333
"S210209"	"Conflict_Resolution"	"LEFT"	"LEFT"	487.11179999998	1500.000003	n/a	n/a	n/a	n/a	"False"	n/a	n/a	"2021-02-09 14:04:09.360354"	"2021-02-09 14:04:10.056189"	120	5.67798473333333
"S210209"	"Conflict_Resolution"	"LEFT"	"LEFT"	988.547400000016	566.6666678	n/a	n/a	n/a	n/a	"True"	n/a	n/a	"2021-02-09 14:04:10.642739"	"2021-02-09 14:04:11.839409"	121	5.67798473333333
"S210209"	"Conflict_Resolution"	"RIGHT"	"RIGHT"	539.614900000061	1416.6666695	n/a	n/a	n/a	n/a	"True"	n/a	n/a	"2021-02-09 14:04:13.275126"	"2021-02-09 14:04:14.024287"	122	5.67798473333333
"S210209"	"Conflict_Resolution"	"LEFT"	"LEFT"	529.320699999971	850.0000017	n/a	n/a	n/a	n/a	"False"	n/a	n/a	"2021-02-09 14:04:14.893931"	"2021-02-09 14:04:15.631579"	123	5.67798473333333
"S210209"	"Conflict_Resolution"	"RIGHT"	"RIGHT"	468.451100000038	600.0000012	n/a	n/a	n/a	n/a	"False"	n/a	n/a	"2021-02-09 14:04:16.250921"	"2021-02-09 14:04:16.928149"	124	5.67798473333333
"S210209"	"Conflict_Resolution"	"LEFT"	"LEFT"	472.712699999988	866.6666684	n/a	n/a	n/a	n/a	"False"	n/a	n/a	"2021-02-09 14:04:17.814353"	"2021-02-09 14:04:18.496315"	125	5.67798473333333
"S210209"	"Conflict_Resolution"	"RIGHT"	"RIGHT"	486.060199999997	533.3333344	n/a	n/a	n/a	n/a	"True"	n/a	n/a	"2021-02-09 14:04:19.048845"	"2021-02-09 14:04:19.743087"	126	5.67798473333333
"S210209"	"Conflict_Resolution"	"RIGHT"	"RIGHT"	432.160600000088	1083.3333355	n/a	n/a	n/a	n/a	"False"	n/a	n/a	"2021-02-09 14:04:20.847226"	"2021-02-09 14:04:21.486203"	127	5.67798473333333
"S210209"	"Conflict_Resolution"	"LEFT"	"LEFT"	553.894300000024	1466.6666696	n/a	n/a	n/a	n/a	"True"	n/a	n/a	"2021-02-09 14:04:22.973287"	"2021-02-09 14:04:23.733793"	128	5.67798473333333
"S210209"	"Conflict_Resolution"	"LEFT"	"LEFT"	519.286999999963	1266.6666692	n/a	n/a	n/a	n/a	"True"	n/a	n/a	"2021-02-09 14:04:25.023552"	"2021-02-09 14:04:25.750990"	129	5.67798473333333
"S210209"	"Conflict_Resolution"	"RIGHT"	"RIGHT"	597.984500000052	1333.333336	n/a	n/a	n/a	n/a	"True"	n/a	n/a	"2021-02-09 14:04:27.104924"	"2021-02-09 14:04:27.911135"	130	5.67798473333333
"S210209"	"Conflict_Resolution"	"RIGHT"	"RIGHT"	476.953900000012	950.0000019	n/a	n/a	n/a	n/a	"True"	n/a	n/a	"2021-02-09 14:04:28.882182"	"2021-02-09 14:04:29.566906"	131	5.67798473333333
"S210209"	"Conflict_Resolution"	"LEFT"	"LEFT"	383.581899999967	683.3333347	n/a	n/a	n/a	n/a	"False"	n/a	n/a	"2021-02-09 14:04:30.271635"	"2021-02-09 14:04:30.863075"	132	5.67798473333333
"S210209"	"Conflict_Resolution"	"RIGHT"	"RIGHT"	412.652600000001	1183.3333357	n/a	n/a	n/a	n/a	"False"	n/a	n/a	"2021-02-09 14:04:32.066374"	"2021-02-09 14:04:32.688296"	133	5.67798473333333
"S210209"	"Conflict_Resolution"	"RIGHT"	"RIGHT"	437.140100000079	950.0000019	n/a	n/a	n/a	n/a	"False"	n/a	n/a	"2021-02-09 14:04:33.657877"	"2021-02-09 14:04:34.302907"	134	5.67798473333333
"S210209"	"Conflict_Resolution"	"RIGHT"	"RIGHT"	401.633900000093	1483.3333363	n/a	n/a	n/a	n/a	"False"	n/a	n/a	"2021-02-09 14:04:35.806216"	"2021-02-09 14:04:36.416718"	135	5.67798473333333
"S210209"	"Conflict_Resolution"	"RIGHT"	"RIGHT"	802.072100000032	783.3333349	n/a	n/a	n/a	n/a	"True"	n/a	n/a	"2021-02-09 14:04:37.220614"	"2021-02-09 14:04:38.231259"	136	5.67798473333333
"S210209"	"Conflict_Resolution"	"RIGHT"	"RIGHT"	446.255599999972	733.3333348	n/a	n/a	n/a	n/a	"False"	n/a	n/a	"2021-02-09 14:04:38.984438"	"2021-02-09 14:04:39.640270"	137	5.67798473333333
"S210209"	"Conflict_Resolution"	"RIGHT"	"RIGHT"	548.178399999983	550.0000011	n/a	n/a	n/a	n/a	"True"	n/a	n/a	"2021-02-09 14:04:40.211180"	"2021-02-09 14:04:40.967148"	138	5.67798473333333
"S210209"	"Conflict_Resolution"	"LEFT"	"LEFT"	472.444599999903	666.666668	n/a	n/a	n/a	n/a	"False"	n/a	n/a	"2021-02-09 14:04:41.654390"	"2021-02-09 14:04:42.334850"	139	5.67798473333333
"S210209"	"Conflict_Resolution"	"LEFT"	"LEFT"	525.014899999974	966.6666686	n/a	n/a	n/a	n/a	"False"	n/a	n/a	"2021-02-09 14:04:43.321827"	"2021-02-09 14:04:44.055364"	140	5.67798473333333
"S210209"	"Conflict_Resolution"	"LEFT"	"LEFT"	667.2180999999	1416.6666695	n/a	n/a	n/a	n/a	"True"	n/a	n/a	"2021-02-09 14:04:45.492143"	"2021-02-09 14:04:46.365772"	141	5.67798473333333
"S210209"	"Conflict_Resolution"	"LEFT"	"LEFT"	427.194199999917	1066.6666688	n/a	n/a	n/a	n/a	"False"	n/a	n/a	"2021-02-09 14:04:47.451526"	"2021-02-09 14:04:48.085826"	142	5.67798473333333
"S210209"	"Conflict_Resolution"	"LEFT"	"LEFT"	579.114000000004	1250.0000025	n/a	n/a	n/a	n/a	"True"	n/a	n/a	"2021-02-09 14:04:49.355920"	"2021-02-09 14:04:50.143371"	143	5.67798473333333
"S210209"	"Conflict_Resolution"	"RIGHT"	"RIGHT"	435.40900000005	800.0000016	n/a	n/a	n/a	n/a	"False"	n/a	n/a	"2021-02-09 14:04:50.963409"	"2021-02-09 14:04:51.606924"	144	5.67798473333333
"S210209"	"Conflict_Resolution"	"RIGHT"	"RIGHT"	481.379800000013	683.3333347	n/a	n/a	n/a	n/a	"True"	n/a	n/a	"2021-02-09 14:04:52.309246"	"2021-02-09 14:04:52.999608"	145	5.67798473333333
"S210209"	"Conflict_Resolution"	"RIGHT"	"RIGHT"	724.1626	600.0000012	n/a	n/a	n/a	n/a	"True"	n/a	n/a	"2021-02-09 14:04:53.619088"	"2021-02-09 14:04:54.552372"	146	5.67798473333333
"S210209"	"Conflict_Resolution"	"LEFT"	"LEFT"	449.370700000031	816.6666683	n/a	n/a	n/a	n/a	"False"	n/a	n/a	"2021-02-09 14:04:55.389794"	"2021-02-09 14:04:56.046672"	147	5.67798473333333
"S210209"	"Conflict_Resolution"	"RIGHT"	"RIGHT"	555.838600000016	1433.3333362	n/a	n/a	n/a	n/a	"True"	n/a	n/a	"2021-02-09 14:04:57.498994"	"2021-02-09 14:04:58.263024"	148	5.67798473333333
"S210209"	"Conflict_Resolution"	"RIGHT"	"RIGHT"	472.560399999907	1283.3333359	n/a	n/a	n/a	n/a	"False"	n/a	n/a	"2021-02-09 14:04:59.565992"	"2021-02-09 14:05:00.248201"	149	5.67798473333333
"S210209"	"Conflict_Resolution"	"LEFT"	"LEFT"	532.137899999952	1350.0000027	n/a	n/a	n/a	n/a	"True"	n/a	n/a	"2021-02-09 14:05:01.618874"	"2021-02-09 14:05:02.358655"	150	5.67798473333333
"S210209"	"Conflict_Resolution"	"RIGHT"	"RIGHT"	442.607400000043	650.0000013	n/a	n/a	n/a	n/a	"False"	n/a	n/a	"2021-02-09 14:05:03.028917"	"2021-02-09 14:05:03.680411"	151	5.67798473333333
"S210209"	"Conflict_Resolution"	"RIGHT"	"RIGHT"	412.704699999949	1333.333336	n/a	n/a	n/a	n/a	"False"	n/a	n/a	"2021-02-09 14:05:05.034039"	"2021-02-09 14:05:05.656497"	152	5.67798473333333
"S210209"	"Conflict_Resolution"	"RIGHT"	"RIGHT"	463.06990000005	500.000001	n/a	n/a	n/a	n/a	"False"	n/a	n/a	"2021-02-09 14:05:06.175673"	"2021-02-09 14:05:06.847131"	153	5.67798473333333
"S210209"	"Conflict_Resolution"	"LEFT"	"LEFT"	552.370600000017	1300.0000026	n/a	n/a	n/a	n/a	"False"	n/a	n/a	"2021-02-09 14:05:08.166724"	"2021-02-09 14:05:08.926821"	154	5.67798473333333
"S210209"	"Conflict_Resolution"	"LEFT"	"LEFT"	658.841000000052	1466.6666696	n/a	n/a	n/a	n/a	"False"	n/a	n/a	"2021-02-09 14:05:10.412703"	"2021-02-09 14:05:11.279159"	155	5.67798473333333
"S210209"	"Conflict_Resolution"	"RIGHT"	"RIGHT"	509.961699999963	1366.6666694	n/a	n/a	n/a	n/a	"True"	n/a	n/a	"2021-02-09 14:05:12.665495"	"2021-02-09 14:05:13.383225"	156	5.67798473333333
"S210209"	"Conflict_Resolution"	"LEFT"	"LEFT"	414.018999999939	1150.0000023	n/a	n/a	n/a	n/a	"False"	n/a	n/a	"2021-02-09 14:05:14.553332"	"2021-02-09 14:05:15.176205"	157	5.67798473333333
"S210209"	"Conflict_Resolution"	"RIGHT"	"RIGHT"	515.846300000021	983.3333353	n/a	n/a	n/a	n/a	"True"	n/a	n/a	"2021-02-09 14:05:16.178663"	"2021-02-09 14:05:16.903148"	158	5.67798473333333
"S210209"	"Conflict_Resolution"	"RIGHT"	"RIGHT"	519.580000000019	1466.6666696	n/a	n/a	n/a	n/a	"True"	n/a	n/a	"2021-02-09 14:05:18.391713"	"2021-02-09 14:05:19.118724"	159	5.67798473333333
"S210209"	"Conflict_Resolution"	"RIGHT"	"RIGHT"	458.387799999969	1266.6666692	n/a	n/a	n/a	n/a	"False"	n/a	n/a	"2021-02-09 14:05:20.405010"	"2021-02-09 14:05:21.071210"	160	5.67798473333333
"S210209"	"Processing_Speed"	"RIGHT"	"DOWN"	1048.9692	983.3333353	n/a	n/a	n/a	n/a	n/a	n/a	n/a	"2021-02-09 13:50:03.047052"	"2021-02-09 13:50:04.324493"	1	1.77213446666667
"S210209"	"Processing_Speed"	"LEFT"	"DOWN"	418.740700000001	1400.0000028	n/a	n/a	n/a	n/a	n/a	n/a	n/a	"2021-02-09 13:50:05.733414"	"2021-02-09 13:50:06.359886"	2	1.77213446666667
"S210209"	"Processing_Speed"	"RIGHT"	"DOWN"	340.135099999998	883.3333351	n/a	n/a	n/a	n/a	n/a	n/a	n/a	"2021-02-09 13:50:07.252378"	"2021-02-09 13:50:07.800023"	3	1.77213446666667
"S210209"	"Processing_Speed"	"LEFT"	"DOWN"	276.849099999993	1050.0000021	n/a	n/a	n/a	n/a	n/a	n/a	n/a	"2021-02-09 13:50:08.859169"	"2021-02-09 13:50:09.344449"	4	1.77213446666667
"S210209"	"Processing_Speed"	"LEFT"	"DOWN"	299.047999999999	1466.6666696	n/a	n/a	n/a	n/a	n/a	n/a	n/a	"2021-02-09 13:50:10.821375"	"2021-02-09 13:50:11.329428"	5	1.77213446666667
"S210209"	"Processing_Speed"	"RIGHT"	"DOWN"	358.583500000009	533.3333344	n/a	n/a	n/a	n/a	n/a	n/a	n/a	"2021-02-09 13:50:11.873204"	"2021-02-09 13:50:12.442101"	6	1.77213446666667
"S210209"	"Processing_Speed"	"RIGHT"	"DOWN"	275.260199999991	950.0000019	n/a	n/a	n/a	n/a	n/a	n/a	n/a	"2021-02-09 13:50:13.404127"	"2021-02-09 13:50:13.888709"	7	1.77213446666667
"S210209"	"Processing_Speed"	"LEFT"	"DOWN"	242.6624	1266.6666692	n/a	n/a	n/a	n/a	n/a	n/a	n/a	"2021-02-09 13:50:15.165198"	"2021-02-09 13:50:15.615041"	8	1.77213446666667
"S210209"	"Processing_Speed"	"RIGHT"	"DOWN"	244.220400000003	1266.6666692	n/a	n/a	n/a	n/a	n/a	n/a	n/a	"2021-02-09 13:50:16.891575"	"2021-02-09 13:50:17.344525"	9	1.77213446666667
"S210209"	"Processing_Speed"	"RIGHT"	"DOWN"	352.493999999993	566.6666678	n/a	n/a	n/a	n/a	n/a	n/a	n/a	"2021-02-09 13:50:17.919953"	"2021-02-09 13:50:18.482645"	10	1.77213446666667
"S210209"	"Processing_Speed"	"LEFT"	"DOWN"	266.019600000007	666.666668	n/a	n/a	n/a	n/a	n/a	n/a	n/a	"2021-02-09 13:50:19.157769"	"2021-02-09 13:50:19.632609"	11	1.77213446666667
"S210209"	"Processing_Speed"	"LEFT"	"DOWN"	257.673999999994	1300.0000026	n/a	n/a	n/a	n/a	n/a	n/a	n/a	"2021-02-09 13:50:20.942762"	"2021-02-09 13:50:21.408586"	12	1.77213446666667
"S210209"	"Processing_Speed"	"RIGHT"	"DOWN"	331.026399999999	500.000001	n/a	n/a	n/a	n/a	n/a	n/a	n/a	"2021-02-09 13:50:21.917251"	"2021-02-09 13:50:22.457287"	13	1.77213446666667
"S210209"	"Processing_Speed"	"LEFT"	"DOWN"	311.433499999993	950.0000019	n/a	n/a	n/a	n/a	n/a	n/a	n/a	"2021-02-09 13:50:23.417046"	"2021-02-09 13:50:23.935245"	14	1.77213446666667
"S210209"	"Processing_Speed"	"RIGHT"	"DOWN"	285.982399999995	600.0000012	n/a	n/a	n/a	n/a	n/a	n/a	n/a	"2021-02-09 13:50:24.546090"	"2021-02-09 13:50:25.040467"	15	1.77213446666667
"S210209"	"Processing_Speed"	"LEFT"	"DOWN"	271.494300000001	1150.0000023	n/a	n/a	n/a	n/a	n/a	n/a	n/a	"2021-02-09 13:50:26.200655"	"2021-02-09 13:50:26.680428"	16	1.77213446666667
"S210209"	"Processing_Speed"	"RIGHT"	"DOWN"	227.429400000005	1466.6666696	n/a	n/a	n/a	n/a	n/a	n/a	n/a	"2021-02-09 13:50:28.156741"	"2021-02-09 13:50:28.593039"	17	1.77213446666667
"S210209"	"Processing_Speed"	"LEFT"	"DOWN"	316.314600000013	600.0000012	n/a	n/a	n/a	n/a	n/a	n/a	n/a	"2021-02-09 13:50:29.203381"	"2021-02-09 13:50:29.727912"	18	1.77213446666667
"S210209"	"Processing_Speed"	"LEFT"	"DOWN"	322.403500000007	533.3333344	n/a	n/a	n/a	n/a	n/a	n/a	n/a	"2021-02-09 13:50:30.269628"	"2021-02-09 13:50:30.800333"	19	1.77213446666667
"S210209"	"Processing_Speed"	"LEFT"	"DOWN"	285.529699999998	1433.3333362	n/a	n/a	n/a	n/a	n/a	n/a	n/a	"2021-02-09 13:50:32.242318"	"2021-02-09 13:50:32.737489"	20	1.77213446666667
"S210209"	"Processing_Speed"	"LEFT"	"DOWN"	286.224499999989	783.3333349	n/a	n/a	n/a	n/a	n/a	n/a	n/a	"2021-02-09 13:50:33.529781"	"2021-02-09 13:50:34.023753"	21	1.77213446666667
"S210209"	"Processing_Speed"	"RIGHT"	"DOWN"	267.727699999995	700.0000014	n/a	n/a	n/a	n/a	n/a	n/a	n/a	"2021-02-09 13:50:34.731904"	"2021-02-09 13:50:35.208669"	22	1.77213446666667
"S210209"	"Processing_Speed"	"RIGHT"	"DOWN"	278.338200000007	1183.3333357	n/a	n/a	n/a	n/a	n/a	n/a	n/a	"2021-02-09 13:50:36.401655"	"2021-02-09 13:50:36.888045"	23	1.77213446666667
"S210209"	"Processing_Speed"	"RIGHT"	"DOWN"	264.479100000003	1150.0000023	n/a	n/a	n/a	n/a	n/a	n/a	n/a	"2021-02-09 13:50:38.047414"	"2021-02-09 13:50:38.520185"	24	1.77213446666667
"S210209"	"Processing_Speed"	"LEFT"	"DOWN"	299.152800000002	500.000001	n/a	n/a	n/a	n/a	n/a	n/a	n/a	"2021-02-09 13:50:39.028794"	"2021-02-09 13:50:39.535076"	25	1.77213446666667
"S210209"	"Processing_Speed"	"RIGHT"	"DOWN"	214.797600000011	1016.6666687	n/a	n/a	n/a	n/a	n/a	n/a	n/a	"2021-02-09 13:50:40.560881"	"2021-02-09 13:50:40.983838"	26	1.77213446666667
"S210209"	"Processing_Speed"	"LEFT"	"DOWN"	333.216799999988	633.3333346	n/a	n/a	n/a	n/a	n/a	n/a	n/a	"2021-02-09 13:50:41.626782"	"2021-02-09 13:50:42.169308"	27	1.77213446666667
"S210209"	"Processing_Speed"	"LEFT"	"DOWN"	256.723100000002	916.6666685	n/a	n/a	n/a	n/a	n/a	n/a	n/a	"2021-02-09 13:50:43.095217"	"2021-02-09 13:50:43.560558"	28	1.77213446666667
"S210209"	"Processing_Speed"	"LEFT"	"DOWN"	247.67820000001	1366.6666694	n/a	n/a	n/a	n/a	n/a	n/a	n/a	"2021-02-09 13:50:44.936202"	"2021-02-09 13:50:45.392493"	29	1.77213446666667
"S210209"	"Processing_Speed"	"RIGHT"	"DOWN"	254.651300000006	783.3333349	n/a	n/a	n/a	n/a	n/a	n/a	n/a	"2021-02-09 13:50:46.185538"	"2021-02-09 13:50:46.648288"	30	1.77213446666667
"S210209"	"Processing_Speed"	"RIGHT"	"DOWN"	266.2282	1116.6666689	n/a	n/a	n/a	n/a	n/a	n/a	n/a	"2021-02-09 13:50:47.773342"	"2021-02-09 13:50:48.247636"	31	1.77213446666667
"S210209"	"Processing_Speed"	"RIGHT"	"DOWN"	312.81469999999	1366.6666694	n/a	n/a	n/a	n/a	n/a	n/a	n/a	"2021-02-09 13:50:49.623532"	"2021-02-09 13:50:50.142856"	32	1.77213446666667
"S210209"	"Processing_Speed"	"RIGHT"	"DOWN"	302.695800000009	1400.0000028	n/a	n/a	n/a	n/a	n/a	n/a	n/a	"2021-02-09 13:50:51.553149"	"2021-02-09 13:50:52.064060"	33	1.77213446666667
"S210209"	"Processing_Speed"	"LEFT"	"DOWN"	265.101499999986	1333.333336	n/a	n/a	n/a	n/a	n/a	n/a	n/a	"2021-02-09 13:50:53.407145"	"2021-02-09 13:50:53.881414"	34	1.77213446666667
"S210209"	"Processing_Speed"	"LEFT"	"DOWN"	325.299199999989	1216.6666691	n/a	n/a	n/a	n/a	n/a	n/a	n/a	"2021-02-09 13:50:55.106465"	"2021-02-09 13:50:55.639293"	35	1.77213446666667
"S210209"	"Processing_Speed"	"LEFT"	"DOWN"	395.739399999997	883.3333351	n/a	n/a	n/a	n/a	n/a	n/a	n/a	"2021-02-09 13:50:56.531961"	"2021-02-09 13:50:57.136604"	36	1.77213446666667
"S210209"	"Processing_Speed"	"LEFT"	"DOWN"	470.053199999995	566.6666678	n/a	n/a	n/a	n/a	n/a	n/a	n/a	"2021-02-09 13:50:57.713617"	"2021-02-09 13:50:58.391983"	37	1.77213446666667
"S210209"	"Processing_Speed"	"RIGHT"	"DOWN"	258.914800000014	1083.3333355	n/a	n/a	n/a	n/a	n/a	n/a	n/a	"2021-02-09 13:50:59.485082"	"2021-02-09 13:50:59.952523"	38	1.77213446666667
"S210209"	"Processing_Speed"	"LEFT"	"DOWN"	277.217300000018	816.6666683	n/a	n/a	n/a	n/a	n/a	n/a	n/a	"2021-02-09 13:51:00.779069"	"2021-02-09 13:51:01.264349"	39	1.77213446666667
"S210209"	"Processing_Speed"	"RIGHT"	"DOWN"	267.027399999989	1300.0000026	n/a	n/a	n/a	n/a	n/a	n/a	n/a	"2021-02-09 13:51:02.572950"	"2021-02-09 13:51:03.047668"	40	1.77213446666667
"S210209"	"Processing_Speed"	"RIGHT"	"DOWN"	389.285199999989	1433.3333362	n/a	n/a	n/a	n/a	n/a	n/a	n/a	"2021-02-09 13:51:04.490594"	"2021-02-09 13:51:05.088710"	41	1.77213446666667
"S210209"	"Processing_Speed"	"LEFT"	"DOWN"	246.550400000018	983.3333353	n/a	n/a	n/a	n/a	n/a	n/a	n/a	"2021-02-09 13:51:06.081160"	"2021-02-09 13:51:06.536448"	42	1.77213446666667
"S210209"	"Processing_Speed"	"LEFT"	"DOWN"	270.476700000017	1183.3333357	n/a	n/a	n/a	n/a	n/a	n/a	n/a	"2021-02-09 13:51:07.729362"	"2021-02-09 13:51:08.207657"	43	1.77213446666667
"S210209"	"Processing_Speed"	"RIGHT"	"DOWN"	322.233399999988	666.666668	n/a	n/a	n/a	n/a	n/a	n/a	n/a	"2021-02-09 13:51:08.885830"	"2021-02-09 13:51:09.415039"	44	1.77213446666667
"S210209"	"Processing_Speed"	"RIGHT"	"DOWN"	300.863599999985	816.6666683	n/a	n/a	n/a	n/a	n/a	n/a	n/a	"2021-02-09 13:51:10.243326"	"2021-02-09 13:51:10.752475"	45	1.77213446666667
"S210209"	"Processing_Speed"	"RIGHT"	"DOWN"	292.902099999992	1216.6666691	n/a	n/a	n/a	n/a	n/a	n/a	n/a	"2021-02-09 13:51:11.978459"	"2021-02-09 13:51:12.480147"	46	1.77213446666667
"S210209"	"Processing_Speed"	"RIGHT"	"DOWN"	292.123900000007	1050.0000021	n/a	n/a	n/a	n/a	n/a	n/a	n/a	"2021-02-09 13:51:13.540148"	"2021-02-09 13:51:14.039788"	47	1.77213446666667
"S210209"	"Processing_Speed"	"LEFT"	"DOWN"	361.415099999988	733.3333348	n/a	n/a	n/a	n/a	n/a	n/a	n/a	"2021-02-09 13:51:14.782792"	"2021-02-09 13:51:15.352054"	48	1.77213446666667
"S210209"	"Processing_Speed"	"LEFT"	"DOWN"	310.036599999989	1016.6666687	n/a	n/a	n/a	n/a	n/a	n/a	n/a	"2021-02-09 13:51:16.378085"	"2021-02-09 13:51:16.898913"	49	1.77213446666667
"S210209"	"Processing_Speed"	"LEFT"	"DOWN"	319.113700000003	1083.3333355	n/a	n/a	n/a	n/a	n/a	n/a	n/a	"2021-02-09 13:51:17.992510"	"2021-02-09 13:51:18.520599"	50	1.77213446666667
"S210209"	"Processing_Speed"	"RIGHT"	"DOWN"	280.323199999998	733.3333348	n/a	n/a	n/a	n/a	n/a	n/a	n/a	"2021-02-09 13:51:19.263154"	"2021-02-09 13:51:19.752190"	51	1.77213446666667
"S210209"	"Processing_Speed"	"RIGHT"	"DOWN"	299.00139999998	1500.000003	n/a	n/a	n/a	n/a	n/a	n/a	n/a	"2021-02-09 13:51:21.261026"	"2021-02-09 13:51:21.767837"	52	1.77213446666667
"S210209"	"Processing_Speed"	"RIGHT"	"DOWN"	309.164500000009	633.3333346	n/a	n/a	n/a	n/a	n/a	n/a	n/a	"2021-02-09 13:51:22.411244"	"2021-02-09 13:51:22.927876"	53	1.77213446666667
"S210209"	"Processing_Speed"	"LEFT"	"DOWN"	258.993299999986	1500.000003	n/a	n/a	n/a	n/a	n/a	n/a	n/a	"2021-02-09 13:51:24.437258"	"2021-02-09 13:51:24.904034"	54	1.77213446666667
"S210209"	"Processing_Speed"	"LEFT"	"DOWN"	311.738899999995	1116.6666689	n/a	n/a	n/a	n/a	n/a	n/a	n/a	"2021-02-09 13:51:26.032283"	"2021-02-09 13:51:26.552922"	55	1.77213446666667
"S210209"	"Processing_Speed"	"RIGHT"	"DOWN"	248.681799999986	916.6666685	n/a	n/a	n/a	n/a	n/a	n/a	n/a	"2021-02-09 13:51:27.479267"	"2021-02-09 13:51:27.935046"	56	1.77213446666667
"S210209"	"Processing_Speed"	"LEFT"	"DOWN"	267.328800000001	700.0000014	n/a	n/a	n/a	n/a	n/a	n/a	n/a	"2021-02-09 13:51:28.644712"	"2021-02-09 13:51:29.120530"	57	1.77213446666667
"S210209"	"Processing_Speed"	"RIGHT"	"DOWN"	236.856299999999	850.0000017	n/a	n/a	n/a	n/a	n/a	n/a	n/a	"2021-02-09 13:51:29.979210"	"2021-02-09 13:51:30.422940"	58	1.77213446666667
"S210209"	"Processing_Speed"	"LEFT"	"DOWN"	318.253599999991	850.0000017	n/a	n/a	n/a	n/a	n/a	n/a	n/a	"2021-02-09 13:51:31.281180"	"2021-02-09 13:51:31.808954"	59	1.77213446666667
"S210209"	"Processing_Speed"	"RIGHT"	"DOWN"	240.591899999998	1333.333336	n/a	n/a	n/a	n/a	n/a	n/a	n/a	"2021-02-09 13:51:33.151255"	"2021-02-09 13:51:33.599057"	60	1.77213446666667
"S210209"	"Response_Inhibition"	"LEFT"	"LEFT"	435.81439999997	1116.6666689	n/a	n/a	n/a	n/a	n/a	n/a	n/a	"2021-02-09 13:54:41.419952"	"2021-02-09 13:54:42.063602"	1	5.54448931666667
"S210209"	"Response_Inhibition"	"LEFT"	"LEFT"	331.659000000002	1100.0000022	n/a	n/a	n/a	n/a	n/a	n/a	n/a	"2021-02-09 13:54:43.171784"	"2021-02-09 13:54:43.711874"	2	5.54448931666667
"S210209"	"Response_Inhibition"	"RIGHT"	"RIGHT"	295.891500000039	783.3333349	n/a	n/a	n/a	n/a	n/a	n/a	n/a	"2021-02-09 13:54:44.504068"	"2021-02-09 13:54:45.008458"	3	5.54448931666667
"S210209"	"Response_Inhibition"	"RIGHT"	"RIGHT"	326.511633699988	700.0000014	n/a	n/a	n/a	n/a	n/a	n/a	n/a	"2021-02-09 13:54:45.718228"	"2021-02-09 13:54:46.255701"	4	5.54448931666667
"S210209"	"Response_Inhibition"	"LEFT"	"LEFT"	362.096400599973	800.0000016	n/a	n/a	n/a	n/a	n/a	n/a	n/a	"2021-02-09 13:54:47.066067"	"2021-02-09 13:54:47.639784"	5	5.54448931666667
"S210209"	"Response_Inhibition"	"RIGHT"	"RIGHT"	390.687200300025	1133.3333356	n/a	n/a	n/a	n/a	n/a	n/a	n/a	"2021-02-09 13:54:48.782036"	"2021-02-09 13:54:49.384526"	6	5.54448931666667
"S210209"	"Response_Inhibition"	"RIGHT"	"RIGHT"	952.466700000002	533.3333344	n/a	n/a	n/a	n/a	n/a	n/a	n/a	"2021-02-09 13:54:49.927323"	"2021-02-09 13:54:51.086924"	7	5.54448931666667
"S210209"	"Response_Inhibition"	"RIGHT"	"RIGHT"	349.309700599981	1366.6666694	n/a	n/a	n/a	n/a	n/a	n/a	n/a	"2021-02-09 13:54:52.462801"	"2021-02-09 13:54:53.022760"	8	5.54448931666667
"S210209"	"Response_Inhibition"	"RIGHT"	"RIGHT"	598.229100000026	650.0000013	n/a	n/a	n/a	n/a	n/a	n/a	n/a	"2021-02-09 13:54:53.680955"	"2021-02-09 13:54:54.488483"	9	5.54448931666667
"S210209"	"Response_Inhibition"	"LEFT"	"LEFT"	314.525100000026	1483.3333363	n/a	n/a	n/a	n/a	n/a	n/a	n/a	"2021-02-09 13:54:55.981223"	"2021-02-09 13:54:56.503583"	10	5.54448931666667
"S210209"	"Response_Inhibition"	"LEFT"	"LEFT"	387.750400000016	883.3333351	n/a	n/a	n/a	n/a	n/a	n/a	n/a	"2021-02-09 13:54:57.395667"	"2021-02-09 13:54:57.991732"	11	5.54448931666667
"S210209"	"Response_Inhibition"	"RIGHT"	"RIGHT"	394.400899999994	1116.6666689	n/a	n/a	n/a	n/a	n/a	n/a	n/a	"2021-02-09 13:54:59.118001"	"2021-02-09 13:54:59.720400"	12	5.54448931666667
"S210209"	"Response_Inhibition"	"LEFT"	"LEFT"	262.643700000012	1400.0000028	n/a	n/a	n/a	n/a	n/a	n/a	n/a	"2021-02-09 13:55:01.128530"	"2021-02-09 13:55:01.599765"	13	5.54448931666667
"S210209"	"Response_Inhibition"	"RIGHT"	"RIGHT"	246.603566799973	1316.6666693	n/a	n/a	n/a	n/a	n/a	n/a	n/a	"2021-02-09 13:55:02.925363"	"2021-02-09 13:55:03.382910"	14	5.54448931666667
"S210209"	"Response_Inhibition"	"RIGHT"	"Time_Max_Exceeded"	1500.0637	633.3333346	n/a	n/a	n/a	n/a	n/a	n/a	n/a	"2021-02-09 13:55:04.024950"	"2021-02-09 13:55:05.524657"	15	5.54448931666667
"S210209"	"Response_Inhibition"	"RIGHT"	"RIGHT"	410.84390060002	683.3333347	n/a	n/a	n/a	n/a	n/a	n/a	n/a	"2021-02-09 13:55:06.217087"	"2021-02-09 13:55:06.840028"	16	5.54448931666667
"S210209"	"Response_Inhibition"	"RIGHT"	"RIGHT"	351.765900399987	866.6666684	n/a	n/a	n/a	n/a	n/a	n/a	n/a	"2021-02-09 13:55:07.716669"	"2021-02-09 13:55:08.278868"	17	5.54448931666667
"S210209"	"Response_Inhibition"	"RIGHT"	"RIGHT"	436.365799999976	1266.6666692	n/a	n/a	n/a	n/a	n/a	n/a	n/a	"2021-02-09 13:55:09.555341"	"2021-02-09 13:55:10.202353"	18	5.54448931666667
"S210209"	"Response_Inhibition"	"LEFT"	"LEFT"	389.176299999974	1416.6666695	n/a	n/a	n/a	n/a	n/a	n/a	n/a	"2021-02-09 13:55:11.627328"	"2021-02-09 13:55:12.225102"	19	5.54448931666667
"S210209"	"Response_Inhibition"	"RIGHT"	"RIGHT"	749.978199999987	1166.666669	n/a	n/a	n/a	n/a	n/a	n/a	n/a	"2021-02-09 13:55:13.401722"	"2021-02-09 13:55:14.359986"	20	5.54448931666667
"S210209"	"Response_Inhibition"	"LEFT"	"LEFT"	330.705099999989	916.6666685	n/a	n/a	n/a	n/a	n/a	n/a	n/a	"2021-02-09 13:55:15.286551"	"2021-02-09 13:55:15.826603"	21	5.54448931666667
"S210209"	"Response_Inhibition"	"LEFT"	"LEFT"	335.559067000004	833.333335	n/a	n/a	n/a	n/a	n/a	n/a	n/a	"2021-02-09 13:55:16.668972"	"2021-02-09 13:55:17.217333"	22	5.54448931666667
"S210209"	"Response_Inhibition"	"RIGHT"	"RIGHT"	502.955900000018	966.6666686	n/a	n/a	n/a	n/a	n/a	n/a	n/a	"2021-02-09 13:55:18.192832"	"2021-02-09 13:55:18.903077"	23	5.54448931666667
"S210209"	"Response_Inhibition"	"RIGHT"	"RIGHT"	626.870999999994	1300.0000026	n/a	n/a	n/a	n/a	n/a	n/a	n/a	"2021-02-09 13:55:20.212336"	"2021-02-09 13:55:21.047362"	24	5.54448931666667
"S210209"	"Response_Inhibition"	"LEFT"	"LEFT"	513.056800000015	566.6666678	n/a	n/a	n/a	n/a	n/a	n/a	n/a	"2021-02-09 13:55:21.622899"	"2021-02-09 13:55:22.343789"	25	5.54448931666667
"S210209"	"Response_Inhibition"	"LEFT"	"LEFT"	843.210399999975	500.000001	n/a	n/a	n/a	n/a	n/a	n/a	n/a	"2021-02-09 13:55:22.852921"	"2021-02-09 13:55:23.904447"	26	5.54448931666667
"S210209"	"Response_Inhibition"	"LEFT"	"LEFT"	414.739633799992	666.666668	n/a	n/a	n/a	n/a	n/a	n/a	n/a	"2021-02-09 13:55:24.581772"	"2021-02-09 13:55:25.207614"	27	5.54448931666667
"S210209"	"Response_Inhibition"	"LEFT"	"LEFT"	790.268700000013	1216.6666691	n/a	n/a	n/a	n/a	n/a	n/a	n/a	"2021-02-09 13:55:26.433303"	"2021-02-09 13:55:27.432050"	28	5.54448931666667
"S210209"	"Response_Inhibition"	"LEFT"	"LEFT"	773.77180000002	1216.6666691	n/a	n/a	n/a	n/a	n/a	n/a	n/a	"2021-02-09 13:55:28.658208"	"2021-02-09 13:55:29.638664"	29	5.54448931666667
"S210209"	"Response_Inhibition"	"RIGHT"	"RIGHT"	662.884200000008	1433.3333362	n/a	n/a	n/a	n/a	n/a	n/a	n/a	"2021-02-09 13:55:31.080592"	"2021-02-09 13:55:31.952399"	30	5.54448931666667
"S210209"	"Response_Inhibition"	"RIGHT"	"RIGHT"	585.723499999972	916.6666685	n/a	n/a	n/a	n/a	n/a	n/a	n/a	"2021-02-09 13:55:32.877967"	"2021-02-09 13:55:33.671392"	31	5.54448931666667
"S210209"	"Response_Inhibition"	"RIGHT"	"RIGHT"	674.801500000001	1466.6666696	n/a	n/a	n/a	n/a	n/a	n/a	n/a	"2021-02-09 13:55:35.148976"	"2021-02-09 13:55:36.030992"	32	5.54448931666667
"S210209"	"Response_Inhibition"	"LEFT"	"LEFT"	466.39719999996	1133.3333356	n/a	n/a	n/a	n/a	n/a	n/a	n/a	"2021-02-09 13:55:37.173004"	"2021-02-09 13:55:37.849389"	33	5.54448931666667
"S210209"	"Response_Inhibition"	"LEFT"	"LEFT"	336.789499999952	1316.6666693	n/a	n/a	n/a	n/a	n/a	n/a	n/a	"2021-02-09 13:55:39.174557"	"2021-02-09 13:55:39.718644"	34	5.54448931666667
"S210209"	"Response_Inhibition"	"RIGHT"	"RIGHT"	478.420700000015	816.6666683	n/a	n/a	n/a	n/a	n/a	n/a	n/a	"2021-02-09 13:55:40.545561"	"2021-02-09 13:55:41.232222"	35	5.54448931666667
"S210209"	"Response_Inhibition"	"LEFT"	"LEFT"	452.720600000021	1233.3333358	n/a	n/a	n/a	n/a	n/a	n/a	n/a	"2021-02-09 13:55:42.475052"	"2021-02-09 13:55:43.135284"	36	5.54448931666667
"S210209"	"Response_Inhibition"	"LEFT"	"Time_Max_Exceeded"	1500.05036719999	1466.6666696	n/a	n/a	n/a	n/a	n/a	n/a	n/a	"2021-02-09 13:55:44.612216"	"2021-02-09 13:55:46.115171"	37	5.54448931666667
"S210209"	"Response_Inhibition"	"LEFT"	"LEFT"	575.171699999999	1266.6666692	n/a	n/a	n/a	n/a	n/a	n/a	n/a	"2021-02-09 13:55:47.392012"	"2021-02-09 13:55:48.174992"	38	5.54448931666667
"S210209"	"Response_Inhibition"	"RIGHT"	"Time_Max_Exceeded"	1500.06043369998	550.0000011	n/a	n/a	n/a	n/a	n/a	n/a	n/a	"2021-02-09 13:55:48.734503"	"2021-02-09 13:55:50.238198"	39	5.54448931666667
"S210209"	"Response_Inhibition"	"RIGHT"	"RIGHT"	707.319199999972	1066.6666688	n/a	n/a	n/a	n/a	n/a	n/a	n/a	"2021-02-09 13:55:51.316673"	"2021-02-09 13:55:52.230755"	40	5.54448931666667
"S210209"	"Response_Inhibition"	"LEFT"	"Time_Max_Exceeded"	1500.19240040001	950.0000019	n/a	n/a	n/a	n/a	n/a	n/a	n/a	"2021-02-09 13:55:53.189720"	"2021-02-09 13:55:54.692886"	41	5.54448931666667
"S210209"	"Response_Inhibition"	"RIGHT"	"RIGHT"	523.886599999969	733.3333348	n/a	n/a	n/a	n/a	n/a	n/a	n/a	"2021-02-09 13:55:55.435907"	"2021-02-09 13:55:56.166661"	42	5.54448931666667
"S210209"	"Response_Inhibition"	"LEFT"	"LEFT"	520.676299999991	1366.6666694	n/a	n/a	n/a	n/a	n/a	n/a	n/a	"2021-02-09 13:55:57.542775"	"2021-02-09 13:55:58.271665"	43	5.54448931666667
"S210209"	"Response_Inhibition"	"RIGHT"	"RIGHT"	412.717399999963	1233.3333358	n/a	n/a	n/a	n/a	n/a	n/a	n/a	"2021-02-09 13:55:59.514981"	"2021-02-09 13:56:00.136038"	44	5.54448931666667
"S210209"	"Response_Inhibition"	"RIGHT"	"LEFT"	565.139299999998	1450.0000029	n/a	n/a	n/a	n/a	n/a	n/a	n/a	"2021-02-09 13:56:01.594827"	"2021-02-09 13:56:02.368594"	45	5.54448931666667
"S210209"	"Response_Inhibition"	"LEFT"	"LEFT"	412.385799999981	1416.6666695	n/a	n/a	n/a	n/a	n/a	n/a	n/a	"2021-02-09 13:56:03.795373"	"2021-02-09 13:56:04.416521"	46	5.54448931666667
"S210209"	"Response_Inhibition"	"RIGHT"	"RIGHT"	389.888400000018	1416.6666695	n/a	n/a	n/a	n/a	n/a	n/a	n/a	"2021-02-09 13:56:05.842011"	"2021-02-09 13:56:06.439919"	47	5.54448931666667
"S210209"	"Response_Inhibition"	"RIGHT"	"RIGHT"	395.647199999985	1050.0000021	n/a	n/a	n/a	n/a	n/a	n/a	n/a	"2021-02-09 13:56:07.500158"	"2021-02-09 13:56:08.102850"	48	5.54448931666667
"S210209"	"Response_Inhibition"	"LEFT"	"LEFT"	401.502600000015	1166.666669	n/a	n/a	n/a	n/a	n/a	n/a	n/a	"2021-02-09 13:56:09.278209"	"2021-02-09 13:56:09.887366"	49	5.54448931666667
"S210209"	"Response_Inhibition"	"RIGHT"	"RIGHT"	392.022767300022	1283.3333359	n/a	n/a	n/a	n/a	n/a	n/a	n/a	"2021-02-09 13:56:11.179886"	"2021-02-09 13:56:11.784567"	50	5.54448931666667
"S210209"	"Response_Inhibition"	"RIGHT"	"RIGHT"	538.774699999976	850.0000017	n/a	n/a	n/a	n/a	n/a	n/a	n/a	"2021-02-09 13:56:12.644530"	"2021-02-09 13:56:13.393522"	51	5.54448931666667
"S210209"	"Response_Inhibition"	"RIGHT"	"RIGHT"	647.010599999987	950.0000019	n/a	n/a	n/a	n/a	n/a	n/a	n/a	"2021-02-09 13:56:14.353015"	"2021-02-09 13:56:15.207199"	52	5.54448931666667
"S210209"	"Response_Inhibition"	"RIGHT"	"Time_Max_Exceeded"	1500.05820049996	933.3333352	n/a	n/a	n/a	n/a	n/a	n/a	n/a	"2021-02-09 13:56:16.152034"	"2021-02-09 13:56:17.654994"	53	5.54448931666667
"S210209"	"Response_Inhibition"	"LEFT"	"LEFT"	455.570799999975	1383.3333361	n/a	n/a	n/a	n/a	n/a	n/a	n/a	"2021-02-09 13:56:19.048091"	"2021-02-09 13:56:19.711957"	54	5.54448931666667
"S210209"	"Response_Inhibition"	"LEFT"	"LEFT"	433.786800000007	1333.333336	n/a	n/a	n/a	n/a	n/a	n/a	n/a	"2021-02-09 13:56:21.053919"	"2021-02-09 13:56:21.696209"	55	5.54448931666667
"S210209"	"Response_Inhibition"	"LEFT"	"LEFT"	569.708900000023	533.3333344	n/a	n/a	n/a	n/a	n/a	n/a	n/a	"2021-02-09 13:56:22.237870"	"2021-02-09 13:56:23.016060"	56	5.54448931666667
"S210209"	"Response_Inhibition"	"RIGHT"	"RIGHT"	494.451599999991	1216.6666691	n/a	n/a	n/a	n/a	n/a	n/a	n/a	"2021-02-09 13:56:24.241028"	"2021-02-09 13:56:24.944247"	57	5.54448931666667
"S210209"	"Response_Inhibition"	"RIGHT"	"RIGHT"	379.590500000006	800.0000016	n/a	n/a	n/a	n/a	n/a	n/a	n/a	"2021-02-09 13:56:25.755880"	"2021-02-09 13:56:26.345007"	58	5.54448931666667
"S210209"	"Response_Inhibition"	"LEFT"	"LEFT"	388.666000500001	1150.0000023	n/a	n/a	n/a	n/a	n/a	n/a	n/a	"2021-02-09 13:56:27.503470"	"2021-02-09 13:56:28.104162"	59	5.54448931666667
"S210209"	"Response_Inhibition"	"LEFT"	"Time_Max_Exceeded"	1500.0593669	1200.0000024	n/a	n/a	n/a	n/a	n/a	n/a	n/a	"2021-02-09 13:56:29.314093"	"2021-02-09 13:56:30.816672"	60	5.54448931666667
"S210209"	"Response_Inhibition"	"RIGHT"	"RIGHT"	385.057000000018	1100.0000022	n/a	n/a	n/a	n/a	n/a	n/a	n/a	"2021-02-09 13:56:31.926354"	"2021-02-09 13:56:32.519682"	61	5.54448931666667
"S210209"	"Response_Inhibition"	"RIGHT"	"Time_Max_Exceeded"	1500.05013369999	1483.3333363	n/a	n/a	n/a	n/a	n/a	n/a	n/a	"2021-02-09 13:56:34.012505"	"2021-02-09 13:56:35.516425"	62	5.54448931666667
"S210209"	"Response_Inhibition"	"LEFT"	"LEFT"	356.516666999979	1183.3333357	n/a	n/a	n/a	n/a	n/a	n/a	n/a	"2021-02-09 13:56:36.711450"	"2021-02-09 13:56:37.279107"	63	5.54448931666667
"S210209"	"Response_Inhibition"	"RIGHT"	"RIGHT"	538.454399999978	733.3333348	n/a	n/a	n/a	n/a	n/a	n/a	n/a	"2021-02-09 13:56:38.020857"	"2021-02-09 13:56:38.767443"	64	5.54448931666667
"S210209"	"Response_Inhibition"	"RIGHT"	"RIGHT"	665.13180000004	1366.6666694	n/a	n/a	n/a	n/a	n/a	n/a	n/a	"2021-02-09 13:56:40.142361"	"2021-02-09 13:56:41.017392"	65	5.54448931666667
"S210209"	"Response_Inhibition"	"LEFT"	"LEFT"	773.7889	783.3333349	n/a	n/a	n/a	n/a	n/a	n/a	n/a	"2021-02-09 13:56:41.809444"	"2021-02-09 13:56:42.793581"	66	5.54448931666667
"S210209"	"Response_Inhibition"	"RIGHT"	"Time_Max_Exceeded"	1500.22890040004	533.3333344	n/a	n/a	n/a	n/a	n/a	n/a	n/a	"2021-02-09 13:56:43.336618"	"2021-02-09 13:56:44.840257"	67	5.54448931666667
"S210209"	"Response_Inhibition"	"RIGHT"	"RIGHT"	599.408399999959	566.6666678	n/a	n/a	n/a	n/a	n/a	n/a	n/a	"2021-02-09 13:56:45.416235"	"2021-02-09 13:56:46.222963"	68	5.54448931666667
"S210209"	"Response_Inhibition"	"LEFT"	"Time_Max_Exceeded"	1500.07873360001	1283.3333359	n/a	n/a	n/a	n/a	n/a	n/a	n/a	"2021-02-09 13:56:47.514674"	"2021-02-09 13:56:49.018718"	69	5.54448931666667
"S210209"	"Response_Inhibition"	"RIGHT"	"RIGHT"	489.131900000018	683.3333347	n/a	n/a	n/a	n/a	n/a	n/a	n/a	"2021-02-09 13:56:49.710048"	"2021-02-09 13:56:50.408459"	70	5.54448931666667
"S210209"	"Response_Inhibition"	"RIGHT"	"RIGHT"	488.176899999985	950.0000019	n/a	n/a	n/a	n/a	n/a	n/a	n/a	"2021-02-09 13:56:51.367545"	"2021-02-09 13:56:52.062958"	71	5.54448931666667
"S210209"	"Response_Inhibition"	"LEFT"	"Time_Max_Exceeded"	1500.05006690001	900.0000018	n/a	n/a	n/a	n/a	n/a	n/a	n/a	"2021-02-09 13:56:52.971737"	"2021-02-09 13:56:54.476228"	72	5.54448931666667
"S210209"	"Response_Inhibition"	"LEFT"	"LEFT"	508.341800000039	533.3333344	n/a	n/a	n/a	n/a	n/a	n/a	n/a	"2021-02-09 13:56:55.019331"	"2021-02-09 13:56:55.735911"	73	5.54448931666667
"S210209"	"Response_Inhibition"	"LEFT"	"LEFT"	441.284033799969	1250.0000025	n/a	n/a	n/a	n/a	n/a	n/a	n/a	"2021-02-09 13:56:56.995423"	"2021-02-09 13:56:57.649347"	74	5.54448931666667
"S210209"	"Response_Inhibition"	"LEFT"	"LEFT"	698.329300000012	1050.0000021	n/a	n/a	n/a	n/a	n/a	n/a	n/a	"2021-02-09 13:56:58.709066"	"2021-02-09 13:56:59.614858"	75	5.54448931666667
"S210209"	"Response_Inhibition"	"RIGHT"	"RIGHT"	705.088600000011	583.3333345	n/a	n/a	n/a	n/a	n/a	n/a	n/a	"2021-02-09 13:57:00.207383"	"2021-02-09 13:57:01.119714"	76	5.54448931666667
"S210209"	"Response_Inhibition"	"RIGHT"	"Time_Max_Exceeded"	1500.04990010001	1033.3333354	n/a	n/a	n/a	n/a	n/a	n/a	n/a	"2021-02-09 13:57:02.162097"	"2021-02-09 13:57:03.665670"	77	5.54448931666667
"S210209"	"Response_Inhibition"	"RIGHT"	"RIGHT"	641.198200000019	1050.0000021	n/a	n/a	n/a	n/a	n/a	n/a	n/a	"2021-02-09 13:57:04.725973"	"2021-02-09 13:57:05.575668"	78	5.54448931666667
"S210209"	"Response_Inhibition"	"RIGHT"	"Time_Max_Exceeded"	1500.1351002	833.333335	n/a	n/a	n/a	n/a	n/a	n/a	n/a	"2021-02-09 13:57:06.419663"	"2021-02-09 13:57:07.922894"	79	5.54448931666667
"S210209"	"Response_Inhibition"	"LEFT"	"LEFT"	544.186599999989	1050.0000021	n/a	n/a	n/a	n/a	n/a	n/a	n/a	"2021-02-09 13:57:08.983687"	"2021-02-09 13:57:09.736313"	80	5.54448931666667
"S210209"	"Response_Inhibition"	"LEFT"	"LEFT"	506.40599999997	1500.000003	n/a	n/a	n/a	n/a	n/a	n/a	n/a	"2021-02-09 13:57:11.245455"	"2021-02-09 13:57:11.959776"	81	5.54448931666667
"S210209"	"Response_Inhibition"	"LEFT"	"LEFT"	647.373300000027	600.0000012	n/a	n/a	n/a	n/a	n/a	n/a	n/a	"2021-02-09 13:57:12.567798"	"2021-02-09 13:57:13.422987"	82	5.54448931666667
"S210209"	"Response_Inhibition"	"LEFT"	"LEFT"	399.816500000043	966.6666686	n/a	n/a	n/a	n/a	n/a	n/a	n/a	"2021-02-09 13:57:14.399464"	"2021-02-09 13:57:15.006905"	83	5.54448931666667
"S210209"	"Response_Inhibition"	"RIGHT"	"RIGHT"	719.489100000033	1183.3333357	n/a	n/a	n/a	n/a	n/a	n/a	n/a	"2021-02-09 13:57:16.199768"	"2021-02-09 13:57:17.127979"	84	5.54448931666667
"S210209"	"Response_Inhibition"	"RIGHT"	"RIGHT"	385.644899999988	1350.0000027	n/a	n/a	n/a	n/a	n/a	n/a	n/a	"2021-02-09 13:57:18.486391"	"2021-02-09 13:57:19.080008"	85	5.54448931666667
"S210209"	"Response_Inhibition"	"RIGHT"	"RIGHT"	400.980833600066	1250.0000025	n/a	n/a	n/a	n/a	n/a	n/a	n/a	"2021-02-09 13:57:20.338895"	"2021-02-09 13:57:20.953214"	86	5.54448931666667
"S210209"	"Response_Inhibition"	"LEFT"	"LEFT"	477.640899999983	783.3333349	n/a	n/a	n/a	n/a	n/a	n/a	n/a	"2021-02-09 13:57:21.746280"	"2021-02-09 13:57:22.430972"	87	5.54448931666667
"S210209"	"Response_Inhibition"	"LEFT"	"Time_Max_Exceeded"	1500.05366709995	650.0000013	n/a	n/a	n/a	n/a	n/a	n/a	n/a	"2021-02-09 13:57:23.090256"	"2021-02-09 13:57:24.593679"	88	5.54448931666667
"S210209"	"Response_Inhibition"	"LEFT"	"LEFT"	523.151299999995	633.3333346	n/a	n/a	n/a	n/a	n/a	n/a	n/a	"2021-02-09 13:57:25.235818"	"2021-02-09 13:57:25.966952"	89	5.54448931666667
"S210209"	"Response_Inhibition"	"LEFT"	"Time_Max_Exceeded"	1500.06770000005	583.3333345	n/a	n/a	n/a	n/a	n/a	n/a	n/a	"2021-02-09 13:57:26.558412"	"2021-02-09 13:57:28.058590"	90	5.54448931666667
"S210209"	"Response_Inhibition"	"LEFT"	"LEFT"	479.164400000059	683.3333347	n/a	n/a	n/a	n/a	n/a	n/a	n/a	"2021-02-09 13:57:28.752423"	"2021-02-09 13:57:29.440616"	91	5.54448931666667
"S210209"	"Response_Inhibition"	"RIGHT"	"Time_Max_Exceeded"	1500.0526672	983.3333353	n/a	n/a	n/a	n/a	n/a	n/a	n/a	"2021-02-09 13:57:30.433450"	"2021-02-09 13:57:31.936541"	92	5.54448931666667
"S210209"	"Response_Inhibition"	"RIGHT"	"RIGHT"	576.147300000002	1316.6666693	n/a	n/a	n/a	n/a	n/a	n/a	n/a	"2021-02-09 13:57:33.263932"	"2021-02-09 13:57:34.048634"	93	5.54448931666667
"S210209"	"Response_Inhibition"	"LEFT"	"LEFT"	334.590800000001	933.3333352	n/a	n/a	n/a	n/a	n/a	n/a	n/a	"2021-02-09 13:57:34.993267"	"2021-02-09 13:57:35.536337"	94	5.54448931666667
"S210209"	"Response_Inhibition"	"RIGHT"	"RIGHT"	366.538699999978	1016.6666687	n/a	n/a	n/a	n/a	n/a	n/a	n/a	"2021-02-09 13:57:36.561196"	"2021-02-09 13:57:37.134704"	95	5.54448931666667
"S210209"	"Response_Inhibition"	"RIGHT"	"Time_Max_Exceeded"	1500.04796700004	783.3333349	n/a	n/a	n/a	n/a	n/a	n/a	n/a	"2021-02-09 13:57:37.928107"	"2021-02-09 13:57:39.430792"	96	5.54448931666667
"S210209"	"Response_Inhibition"	"LEFT"	"LEFT"	334.694799999966	1433.3333362	n/a	n/a	n/a	n/a	n/a	n/a	n/a	"2021-02-09 13:57:40.873725"	"2021-02-09 13:57:41.416639"	97	5.54448931666667
"S210209"	"Response_Inhibition"	"RIGHT"	"Time_Max_Exceeded"	1500.05113380004	1400.0000028	n/a	n/a	n/a	n/a	n/a	n/a	n/a	"2021-02-09 13:57:42.825358"	"2021-02-09 13:57:44.328936"	98	5.54448931666667
"S210209"	"Response_Inhibition"	"LEFT"	"Time_Max_Exceeded"	1500.08403349997	850.0000017	n/a	n/a	n/a	n/a	n/a	n/a	n/a	"2021-02-09 13:57:45.188610"	"2021-02-09 13:57:46.692620"	99	5.54448931666667
"S210209"	"Response_Inhibition"	"LEFT"	"LEFT"	511.164099999974	850.0000017	n/a	n/a	n/a	n/a	n/a	n/a	n/a	"2021-02-09 13:57:47.552448"	"2021-02-09 13:57:48.272625"	100	5.54448931666667
"S210209"	"Response_Inhibition"	"RIGHT"	"RIGHT"	500.884999999926	616.6666679	n/a	n/a	n/a	n/a	n/a	n/a	n/a	"2021-02-09 13:57:48.898131"	"2021-02-09 13:57:49.607053"	101	5.54448931666667
"S210209"	"Response_Inhibition"	"LEFT"	"Time_Max_Exceeded"	1500.06163359998	1083.3333355	n/a	n/a	n/a	n/a	n/a	n/a	n/a	"2021-02-09 13:57:50.698652"	"2021-02-09 13:57:52.201706"	102	5.54448931666667
"S210209"	"Response_Inhibition"	"RIGHT"	"Time_Max_Exceeded"	1500.04796680006	600.0000012	n/a	n/a	n/a	n/a	n/a	n/a	n/a	"2021-02-09 13:57:52.812334"	"2021-02-09 13:57:54.315527"	103	5.54448931666667
"S210209"	"Response_Inhibition"	"LEFT"	"LEFT"	496.041699999978	866.6666684	n/a	n/a	n/a	n/a	n/a	n/a	n/a	"2021-02-09 13:57:55.191763"	"2021-02-09 13:57:55.894978"	104	5.54448931666667
"S210209"	"Response_Inhibition"	"LEFT"	"LEFT"	966.138800000067	816.6666683	n/a	n/a	n/a	n/a	n/a	n/a	n/a	"2021-02-09 13:57:56.721799"	"2021-02-09 13:57:57.894879"	105	5.54448931666667
"S210209"	"Response_Inhibition"	"RIGHT"	"RIGHT"	572.727799999939	883.3333351	n/a	n/a	n/a	n/a	n/a	n/a	n/a	"2021-02-09 13:57:58.787096"	"2021-02-09 13:57:59.568108"	106	5.54448931666667
"S210209"	"Response_Inhibition"	"LEFT"	"LEFT"	436.224567199973	583.3333345	n/a	n/a	n/a	n/a	n/a	n/a	n/a	"2021-02-09 13:58:00.159807"	"2021-02-09 13:58:00.807541"	107	5.54448931666667
"S210209"	"Response_Inhibition"	"RIGHT"	"Time_Max_Exceeded"	1500.06050010006	750.0000015	n/a	n/a	n/a	n/a	n/a	n/a	n/a	"2021-02-09 13:58:01.566260"	"2021-02-09 13:58:03.069035"	108	5.54448931666667
"S210209"	"Response_Inhibition"	"LEFT"	"LEFT"	437.712400000009	1466.6666696	n/a	n/a	n/a	n/a	n/a	n/a	n/a	"2021-02-09 13:58:04.545876"	"2021-02-09 13:58:05.192311"	109	5.54448931666667
"S210209"	"Response_Inhibition"	"LEFT"	"Time_Max_Exceeded"	1500.06223340002	1450.0000029	n/a	n/a	n/a	n/a	n/a	n/a	n/a	"2021-02-09 13:58:06.652568"	"2021-02-09 13:58:08.155935"	110	5.54448931666667
"S210209"	"Response_Inhibition"	"RIGHT"	"RIGHT"	415.598300499942	1150.0000023	n/a	n/a	n/a	n/a	n/a	n/a	n/a	"2021-02-09 13:58:09.316377"	"2021-02-09 13:58:09.944456"	111	5.54448931666667
"S210209"	"Response_Inhibition"	"RIGHT"	"RIGHT"	509.586600000034	1216.6666691	n/a	n/a	n/a	n/a	n/a	n/a	n/a	"2021-02-09 13:58:11.169869"	"2021-02-09 13:58:11.888395"	112	5.54448931666667
"S210209"	"Response_Inhibition"	"LEFT"	"LEFT"	530.730699999935	900.0000018	n/a	n/a	n/a	n/a	n/a	n/a	n/a	"2021-02-09 13:58:12.797066"	"2021-02-09 13:58:13.537920"	113	5.54448931666667
"S210209"	"Response_Inhibition"	"RIGHT"	"Time_Max_Exceeded"	1500.0808334	1000.000002	n/a	n/a	n/a	n/a	n/a	n/a	n/a	"2021-02-09 13:58:14.547290"	"2021-02-09 13:58:16.050668"	114	5.54448931666667
"S210209"	"Response_Inhibition"	"LEFT"	"LEFT"	392.395099999931	1266.6666692	n/a	n/a	n/a	n/a	n/a	n/a	n/a	"2021-02-09 13:58:17.327539"	"2021-02-09 13:58:17.927984"	115	5.54448931666667
"S210209"	"Response_Inhibition"	"LEFT"	"LEFT"	510.053200000016	1016.6666687	n/a	n/a	n/a	n/a	n/a	n/a	n/a	"2021-02-09 13:58:18.953290"	"2021-02-09 13:58:19.672440"	116	5.54448931666667
"S210209"	"Response_Inhibition"	"RIGHT"	"RIGHT"	514.61130000007	900.0000018	n/a	n/a	n/a	n/a	n/a	n/a	n/a	"2021-02-09 13:58:20.580562"	"2021-02-09 13:58:21.303092"	117	5.54448931666667
"S210209"	"Response_Inhibition"	"LEFT"	"LEFT"	752.513399999998	983.3333353	n/a	n/a	n/a	n/a	n/a	n/a	n/a	"2021-02-09 13:58:22.294944"	"2021-02-09 13:58:23.256443"	118	5.54448931666667
"S210209"	"Response_Inhibition"	"LEFT"	"Time_Max_Exceeded"	1500.05053349999	1000.000002	n/a	n/a	n/a	n/a	n/a	n/a	n/a	"2021-02-09 13:58:24.266198"	"2021-02-09 13:58:25.770107"	119	5.54448931666667
"S210209"	"Response_Inhibition"	"RIGHT"	"RIGHT"	440.472600000021	1100.0000022	n/a	n/a	n/a	n/a	n/a	n/a	n/a	"2021-02-09 13:58:26.879906"	"2021-02-09 13:58:27.528138"	120	5.54448931666667
"S210209"	"Response_Inhibition"	"RIGHT"	"RIGHT"	561.988499999984	1500.000003	n/a	n/a	n/a	n/a	n/a	n/a	n/a	"2021-02-09 13:58:29.037115"	"2021-02-09 13:58:29.806689"	121	5.54448931666667
"S210209"	"Response_Inhibition"	"LEFT"	"LEFT"	473.724033899966	1066.6666688	n/a	n/a	n/a	n/a	n/a	n/a	n/a	"2021-02-09 13:58:30.881776"	"2021-02-09 13:58:31.566869"	122	5.54448931666667
"S210209"	"Response_Inhibition"	"RIGHT"	"RIGHT"	518.113299999982	633.3333346	n/a	n/a	n/a	n/a	n/a	n/a	n/a	"2021-02-09 13:58:32.209302"	"2021-02-09 13:58:32.936004"	123	5.54448931666667
"S210209"	"Response_Inhibition"	"RIGHT"	"Time_Max_Exceeded"	1500.06466669997	1416.6666695	n/a	n/a	n/a	n/a	n/a	n/a	n/a	"2021-02-09 13:58:34.362691"	"2021-02-09 13:58:35.867904"	124	5.54448931666667
"S210209"	"Response_Inhibition"	"RIGHT"	"Time_Max_Exceeded"	1500.05870020004	1083.3333355	n/a	n/a	n/a	n/a	n/a	n/a	n/a	"2021-02-09 13:58:36.961467"	"2021-02-09 13:58:38.464722"	125	5.54448931666667
"S210209"	"Response_Inhibition"	"LEFT"	"LEFT"	502.360800000019	766.6666682	n/a	n/a	n/a	n/a	n/a	n/a	n/a	"2021-02-09 13:58:39.240698"	"2021-02-09 13:58:39.953863"	126	5.54448931666667
"S210209"	"Response_Inhibition"	"RIGHT"	"RIGHT"	704.089599999975	716.6666681	n/a	n/a	n/a	n/a	n/a	n/a	n/a	"2021-02-09 13:58:40.679552"	"2021-02-09 13:58:41.592353"	127	5.54448931666667
"S210209"	"Response_Inhibition"	"LEFT"	"LEFT"	361.161899999956	683.3333347	n/a	n/a	n/a	n/a	n/a	n/a	n/a	"2021-02-09 13:58:42.286505"	"2021-02-09 13:58:42.856009"	128	5.54448931666667
"S210209"	"Response_Inhibition"	"RIGHT"	"RIGHT"	456.353799999988	1333.333336	n/a	n/a	n/a	n/a	n/a	n/a	n/a	"2021-02-09 13:58:44.198719"	"2021-02-09 13:58:44.863187"	129	5.54448931666667
"S210209"	"Response_Inhibition"	"LEFT"	"LEFT"	414.512099999911	633.3333346	n/a	n/a	n/a	n/a	n/a	n/a	n/a	"2021-02-09 13:58:45.505005"	"2021-02-09 13:58:46.128337"	130	5.54448931666667
"S210209"	"Response_Inhibition"	"RIGHT"	"RIGHT"	359.597199999939	1150.0000023	n/a	n/a	n/a	n/a	n/a	n/a	n/a	"2021-02-09 13:58:47.287850"	"2021-02-09 13:58:47.855924"	131	5.54448931666667
"S210209"	"Response_Inhibition"	"LEFT"	"LEFT"	357.246333499993	516.6666677	n/a	n/a	n/a	n/a	n/a	n/a	n/a	"2021-02-09 13:58:48.382102"	"2021-02-09 13:58:48.952502"	132	5.54448931666667
"S210209"	"Response_Inhibition"	"RIGHT"	"RIGHT"	414.455799999928	1000.000002	n/a	n/a	n/a	n/a	n/a	n/a	n/a	"2021-02-09 13:58:49.960710"	"2021-02-09 13:58:50.584250"	133	5.54448931666667
"S210209"	"Response_Inhibition"	"LEFT"	"Time_Max_Exceeded"	1500.05080009999	733.3333348	n/a	n/a	n/a	n/a	n/a	n/a	n/a	"2021-02-09 13:58:51.327768"	"2021-02-09 13:58:52.831098"	134	5.54448931666667
"S210209"	"Response_Inhibition"	"LEFT"	"LEFT"	545.360899999991	550.0000011	n/a	n/a	n/a	n/a	n/a	n/a	n/a	"2021-02-09 13:58:53.390309"	"2021-02-09 13:58:54.143721"	135	5.54448931666667
"S210209"	"Response_Inhibition"	"RIGHT"	"RIGHT"	567.356399999994	1383.3333361	n/a	n/a	n/a	n/a	n/a	n/a	n/a	"2021-02-09 13:58:55.535464"	"2021-02-09 13:58:56.311285"	136	5.54448931666667
"S210209"	"Response_Inhibition"	"RIGHT"	"RIGHT"	404.756099999986	850.0000017	n/a	n/a	n/a	n/a	n/a	n/a	n/a	"2021-02-09 13:58:57.170232"	"2021-02-09 13:58:57.783863"	137	5.54448931666667
"S210209"	"Response_Inhibition"	"LEFT"	"LEFT"	383.971999999972	1366.6666694	n/a	n/a	n/a	n/a	n/a	n/a	n/a	"2021-02-09 13:58:59.159191"	"2021-02-09 13:58:59.750908"	138	5.54448931666667
"S210209"	"Response_Inhibition"	"LEFT"	"LEFT"	512.97390000002	733.3333348	n/a	n/a	n/a	n/a	n/a	n/a	n/a	"2021-02-09 13:59:00.494511"	"2021-02-09 13:59:01.215632"	139	5.54448931666667
"S210209"	"Response_Inhibition"	"LEFT"	"LEFT"	423.70470000003	750.0000015	n/a	n/a	n/a	n/a	n/a	n/a	n/a	"2021-02-09 13:59:01.975156"	"2021-02-09 13:59:02.607279"	140	5.54448931666667
"S210209"	"Response_Inhibition"	"LEFT"	"LEFT"	379.070700000057	1100.0000022	n/a	n/a	n/a	n/a	n/a	n/a	n/a	"2021-02-09 13:59:03.716889"	"2021-02-09 13:59:04.303923"	141	5.54448931666667
"S210209"	"Response_Inhibition"	"RIGHT"	"RIGHT"	391.257900300051	900.0000018	n/a	n/a	n/a	n/a	n/a	n/a	n/a	"2021-02-09 13:59:05.212777"	"2021-02-09 13:59:05.816219"	142	5.54448931666667
"S210209"	"Response_Inhibition"	"LEFT"	"LEFT"	407.883900000002	1150.0000023	n/a	n/a	n/a	n/a	n/a	n/a	n/a	"2021-02-09 13:59:06.975663"	"2021-02-09 13:59:07.592287"	143	5.54448931666667
"S210209"	"Response_Inhibition"	"LEFT"	"Time_Max_Exceeded"	1500.06996669996	716.6666681	n/a	n/a	n/a	n/a	n/a	n/a	n/a	"2021-02-09 13:59:08.318310"	"2021-02-09 13:59:09.822657"	144	5.54448931666667
"S210209"	"Response_Inhibition"	"RIGHT"	"RIGHT"	447.456700000089	583.3333345	n/a	n/a	n/a	n/a	n/a	n/a	n/a	"2021-02-09 13:59:10.415601"	"2021-02-09 13:59:11.071610"	145	5.54448931666667
"S210209"	"Response_Inhibition"	"RIGHT"	"RIGHT"	573.661799999968	1266.6666692	n/a	n/a	n/a	n/a	n/a	n/a	n/a	"2021-02-09 13:59:12.346367"	"2021-02-09 13:59:13.129727"	146	5.54448931666667
"S210209"	"Response_Inhibition"	"LEFT"	"LEFT"	548.572400000012	616.6666679	n/a	n/a	n/a	n/a	n/a	n/a	n/a	"2021-02-09 13:59:13.755009"	"2021-02-09 13:59:14.512279"	147	5.54448931666667
"S210209"	"Response_Inhibition"	"LEFT"	"LEFT"	522.583700000041	1300.0000026	n/a	n/a	n/a	n/a	n/a	n/a	n/a	"2021-02-09 13:59:15.820623"	"2021-02-09 13:59:16.550885"	148	5.54448931666667
"S210209"	"Response_Inhibition"	"LEFT"	"LEFT"	647.746799999936	1000.000002	n/a	n/a	n/a	n/a	n/a	n/a	n/a	"2021-02-09 13:59:17.559666"	"2021-02-09 13:59:18.415606"	149	5.54448931666667
"S210209"	"Response_Inhibition"	"LEFT"	"LEFT"	426.261899999986	700.0000014	n/a	n/a	n/a	n/a	n/a	n/a	n/a	"2021-02-09 13:59:19.125772"	"2021-02-09 13:59:19.761229"	150	5.54448931666667
"S210209"	"Response_Inhibition"	"RIGHT"	"RIGHT"	625.059899999997	500.000001	n/a	n/a	n/a	n/a	n/a	n/a	n/a	"2021-02-09 13:59:20.270472"	"2021-02-09 13:59:21.104602"	151	5.54448931666667
"S210209"	"Response_Inhibition"	"RIGHT"	"Time_Max_Exceeded"	1500.32336680003	1200.0000024	n/a	n/a	n/a	n/a	n/a	n/a	n/a	"2021-02-09 13:59:22.313696"	"2021-02-09 13:59:23.816938"	152	5.54448931666667
"S210209"	"Response_Inhibition"	"LEFT"	"Time_Max_Exceeded"	1500.05446690004	1350.0000027	n/a	n/a	n/a	n/a	n/a	n/a	n/a	"2021-02-09 13:59:25.176637"	"2021-02-09 13:59:26.679131"	153	5.54448931666667
"S210209"	"Response_Inhibition"	"LEFT"	"LEFT"	664.707000000021	950.0000019	n/a	n/a	n/a	n/a	n/a	n/a	n/a	"2021-02-09 13:59:27.638934"	"2021-02-09 13:59:28.511422"	154	5.54448931666667
"S210209"	"Response_Inhibition"	"RIGHT"	"Time_Max_Exceeded"	1500.05466709995	1466.6666696	n/a	n/a	n/a	n/a	n/a	n/a	n/a	"2021-02-09 13:59:29.986606"	"2021-02-09 13:59:31.489524"	155	5.54448931666667
"S210209"	"Response_Inhibition"	"LEFT"	"LEFT"	448.023967299991	1033.3333354	n/a	n/a	n/a	n/a	n/a	n/a	n/a	"2021-02-09 13:59:32.533192"	"2021-02-09 13:59:33.193156"	156	5.54448931666667
"S210209"	"Response_Inhibition"	"RIGHT"	"RIGHT"	632.797100000062	516.6666677	n/a	n/a	n/a	n/a	n/a	n/a	n/a	"2021-02-09 13:59:33.718752"	"2021-02-09 13:59:34.558986"	157	5.54448931666667
"S210209"	"Response_Inhibition"	"LEFT"	"Time_Max_Exceeded"	1500.07366669994	1316.6666693	n/a	n/a	n/a	n/a	n/a	n/a	n/a	"2021-02-09 13:59:35.886498"	"2021-02-09 13:59:37.389620"	158	5.54448931666667
"S210209"	"Response_Inhibition"	"RIGHT"	"RIGHT"	519.691500000022	766.6666682	n/a	n/a	n/a	n/a	n/a	n/a	n/a	"2021-02-09 13:59:38.167555"	"2021-02-09 13:59:38.895138"	159	5.54448931666667
"S210209"	"Response_Inhibition"	"RIGHT"	"RIGHT"	517.048399999908	666.666668	n/a	n/a	n/a	n/a	n/a	n/a	n/a	"2021-02-09 13:59:39.570297"	"2021-02-09 13:59:40.294914"	160	5.54448931666667
"S210209"	"Response_Selection"	"LEFT"	"LEFT"	435.491000000013	1450.0000029	n/a	n/a	n/a	n/a	n/a	n/a	n/a	"2021-02-09 13:52:05.500292"	"2021-02-09 13:52:06.144596"	1	2.53352425
"S210209"	"Response_Selection"	"LEFT"	"LEFT"	390.215299999994	600.0000012	n/a	n/a	n/a	n/a	n/a	n/a	n/a	"2021-02-09 13:52:06.753543"	"2021-02-09 13:52:07.353346"	2	2.53352425
"S210209"	"Response_Selection"	"LEFT"	"LEFT"	295.974900000004	1350.0000027	n/a	n/a	n/a	n/a	n/a	n/a	n/a	"2021-02-09 13:52:08.711312"	"2021-02-09 13:52:09.216298"	3	2.53352425
"S210209"	"Response_Selection"	"LEFT"	"LEFT"	448.527299999995	533.3333344	n/a	n/a	n/a	n/a	n/a	n/a	n/a	"2021-02-09 13:52:09.758813"	"2021-02-09 13:52:10.414875"	4	2.53352425
"S210209"	"Response_Selection"	"RIGHT"	"RIGHT"	328.759600000012	1350.0000027	n/a	n/a	n/a	n/a	n/a	n/a	n/a	"2021-02-09 13:52:11.775388"	"2021-02-09 13:52:12.312197"	5	2.53352425
"S210209"	"Response_Selection"	"RIGHT"	"RIGHT"	299.705700000004	1450.0000029	n/a	n/a	n/a	n/a	n/a	n/a	n/a	"2021-02-09 13:52:13.771491"	"2021-02-09 13:52:14.280333"	6	2.53352425
"S210209"	"Response_Selection"	"RIGHT"	"RIGHT"	337.945700000006	1500.000003	n/a	n/a	n/a	n/a	n/a	n/a	n/a	"2021-02-09 13:52:15.789897"	"2021-02-09 13:52:16.337407"	7	2.53352425
"S210209"	"Response_Selection"	"RIGHT"	"RIGHT"	414.629899999994	583.3333345	n/a	n/a	n/a	n/a	n/a	n/a	n/a	"2021-02-09 13:52:16.928846"	"2021-02-09 13:52:17.553245"	8	2.53352425
"S210209"	"Response_Selection"	"RIGHT"	"RIGHT"	317.539300000021	966.6666686	n/a	n/a	n/a	n/a	n/a	n/a	n/a	"2021-02-09 13:52:18.530615"	"2021-02-09 13:52:19.055783"	9	2.53352425
"S210209"	"Response_Selection"	"LEFT"	"LEFT"	282.699100000002	1300.0000026	n/a	n/a	n/a	n/a	n/a	n/a	n/a	"2021-02-09 13:52:20.364877"	"2021-02-09 13:52:20.856181"	10	2.53352425
"S210209"	"Response_Selection"	"RIGHT"	"RIGHT"	287.684600000006	983.3333353	n/a	n/a	n/a	n/a	n/a	n/a	n/a	"2021-02-09 13:52:21.847887"	"2021-02-09 13:52:22.343737"	11	2.53352425
"S210209"	"Response_Selection"	"RIGHT"	"RIGHT"	314.4049	1316.6666693	n/a	n/a	n/a	n/a	n/a	n/a	n/a	"2021-02-09 13:52:23.669748"	"2021-02-09 13:52:24.191856"	12	2.53352425
"S210209"	"Response_Selection"	"LEFT"	"LEFT"	307.146999999986	500.000001	n/a	n/a	n/a	n/a	n/a	n/a	n/a	"2021-02-09 13:52:24.700464"	"2021-02-09 13:52:25.216601"	13	2.53352425
"S210209"	"Response_Selection"	"RIGHT"	"RIGHT"	289.832200000006	916.6666685	n/a	n/a	n/a	n/a	n/a	n/a	n/a	"2021-02-09 13:52:26.142214"	"2021-02-09 13:52:26.639914"	14	2.53352425
"S210209"	"Response_Selection"	"RIGHT"	"RIGHT"	371.393900000015	700.0000014	n/a	n/a	n/a	n/a	n/a	n/a	n/a	"2021-02-09 13:52:27.348563"	"2021-02-09 13:52:27.926994"	15	2.53352425
"S210209"	"Response_Selection"	"LEFT"	"LEFT"	285.262700000004	833.333335	n/a	n/a	n/a	n/a	n/a	n/a	n/a	"2021-02-09 13:52:28.770355"	"2021-02-09 13:52:29.264209"	16	2.53352425
"S210209"	"Response_Selection"	"LEFT"	"LEFT"	342.979100000008	800.0000016	n/a	n/a	n/a	n/a	n/a	n/a	n/a	"2021-02-09 13:52:30.072780"	"2021-02-09 13:52:30.625354"	17	2.53352425
"S210209"	"Response_Selection"	"LEFT"	"LEFT"	295.536400000003	1133.3333356	n/a	n/a	n/a	n/a	n/a	n/a	n/a	"2021-02-09 13:52:31.767984"	"2021-02-09 13:52:32.271997"	18	2.53352425
"S210209"	"Response_Selection"	"RIGHT"	"RIGHT"	318.326900000017	600.0000012	n/a	n/a	n/a	n/a	n/a	n/a	n/a	"2021-02-09 13:52:32.881897"	"2021-02-09 13:52:33.407047"	19	2.53352425
"S210209"	"Response_Selection"	"LEFT"	"LEFT"	285.652699999986	1466.6666696	n/a	n/a	n/a	n/a	n/a	n/a	n/a	"2021-02-09 13:52:34.882627"	"2021-02-09 13:52:35.376570"	20	2.53352425
"S210209"	"Response_Selection"	"RIGHT"	"RIGHT"	343.044100000014	1366.6666694	n/a	n/a	n/a	n/a	n/a	n/a	n/a	"2021-02-09 13:52:36.753080"	"2021-02-09 13:52:37.303914"	21	2.53352425
"S210209"	"Response_Selection"	"LEFT"	"LEFT"	294.535499999995	966.6666686	n/a	n/a	n/a	n/a	n/a	n/a	n/a	"2021-02-09 13:52:38.281412"	"2021-02-09 13:52:38.784464"	22	2.53352425
"S210209"	"Response_Selection"	"LEFT"	"LEFT"	286.66149999998	1400.0000028	n/a	n/a	n/a	n/a	n/a	n/a	n/a	"2021-02-09 13:52:40.193532"	"2021-02-09 13:52:40.687855"	23	2.53352425
"S210209"	"Response_Selection"	"LEFT"	"LEFT"	359.466099999992	1200.0000024	n/a	n/a	n/a	n/a	n/a	n/a	n/a	"2021-02-09 13:52:41.896292"	"2021-02-09 13:52:42.464317"	24	2.53352425
"S210209"	"Response_Selection"	"LEFT"	"LEFT"	283.992699999999	1416.6666695	n/a	n/a	n/a	n/a	n/a	n/a	n/a	"2021-02-09 13:52:43.892254"	"2021-02-09 13:52:44.383259"	25	2.53352425
"S210209"	"Response_Selection"	"LEFT"	"LEFT"	318.505399999992	1216.6666691	n/a	n/a	n/a	n/a	n/a	n/a	n/a	"2021-02-09 13:52:45.609283"	"2021-02-09 13:52:46.135549"	26	2.53352425
"S210209"	"Response_Selection"	"LEFT"	"LEFT"	304.508400000003	933.3333352	n/a	n/a	n/a	n/a	n/a	n/a	n/a	"2021-02-09 13:52:47.079141"	"2021-02-09 13:52:47.592423"	27	2.53352425
"S210209"	"Response_Selection"	"LEFT"	"LEFT"	282.077600000008	1266.6666692	n/a	n/a	n/a	n/a	n/a	n/a	n/a	"2021-02-09 13:52:48.869233"	"2021-02-09 13:52:49.358870"	28	2.53352425
"S210209"	"Response_Selection"	"LEFT"	"LEFT"	256.611899999996	983.3333353	n/a	n/a	n/a	n/a	n/a	n/a	n/a	"2021-02-09 13:52:50.351247"	"2021-02-09 13:52:50.816308"	29	2.53352425
"S210209"	"Response_Selection"	"RIGHT"	"RIGHT"	363.401799999991	683.3333347	n/a	n/a	n/a	n/a	n/a	n/a	n/a	"2021-02-09 13:52:51.508255"	"2021-02-09 13:52:52.079042"	30	2.53352425
"S210209"	"Response_Selection"	"RIGHT"	"RIGHT"	319.248099999982	1416.6666695	n/a	n/a	n/a	n/a	n/a	n/a	n/a	"2021-02-09 13:52:53.504770"	"2021-02-09 13:52:54.032599"	31	2.53352425
"S210209"	"Response_Selection"	"LEFT"	"LEFT"	266.789999999958	1500.000003	n/a	n/a	n/a	n/a	n/a	n/a	n/a	"2021-02-09 13:52:55.540638"	"2021-02-09 13:52:56.017317"	32	2.53352425
"S210209"	"Response_Selection"	"RIGHT"	"RIGHT"	320.921799999951	1300.0000026	n/a	n/a	n/a	n/a	n/a	n/a	n/a	"2021-02-09 13:52:57.326510"	"2021-02-09 13:52:57.857514"	33	2.53352425
"S210209"	"Response_Selection"	"LEFT"	"LEFT"	267.591000000039	1016.6666687	n/a	n/a	n/a	n/a	n/a	n/a	n/a	"2021-02-09 13:52:58.883757"	"2021-02-09 13:52:59.359523"	34	2.53352425
"S210209"	"Response_Selection"	"LEFT"	"LEFT"	330.898600000012	916.6666685	n/a	n/a	n/a	n/a	n/a	n/a	n/a	"2021-02-09 13:53:00.285384"	"2021-02-09 13:53:00.823943"	35	2.53352425
"S210209"	"Response_Selection"	"LEFT"	"LEFT"	335.703800000033	1366.6666694	n/a	n/a	n/a	n/a	n/a	n/a	n/a	"2021-02-09 13:53:02.200010"	"2021-02-09 13:53:02.745596"	36	2.53352425
"S210209"	"Response_Selection"	"RIGHT"	"RIGHT"	381.777	550.0000011	n/a	n/a	n/a	n/a	n/a	n/a	n/a	"2021-02-09 13:53:03.306270"	"2021-02-09 13:53:03.895320"	37	2.53352425
"S210209"	"Response_Selection"	"LEFT"	"LEFT"	332.937300000026	1066.6666688	n/a	n/a	n/a	n/a	n/a	n/a	n/a	"2021-02-09 13:53:04.970496"	"2021-02-09 13:53:05.512276"	38	2.53352425
"S210209"	"Response_Selection"	"LEFT"	"LEFT"	390.603300000009	583.3333345	n/a	n/a	n/a	n/a	n/a	n/a	n/a	"2021-02-09 13:53:06.104745"	"2021-02-09 13:53:06.704134"	39	2.53352425
"S210209"	"Response_Selection"	"LEFT"	"LEFT"	340.370399999983	650.0000013	n/a	n/a	n/a	n/a	n/a	n/a	n/a	"2021-02-09 13:53:07.363707"	"2021-02-09 13:53:07.912428"	40	2.53352425
"S210209"	"Response_Selection"	"LEFT"	"LEFT"	305.962699999952	700.0000014	n/a	n/a	n/a	n/a	n/a	n/a	n/a	"2021-02-09 13:53:08.622176"	"2021-02-09 13:53:09.136336"	41	2.53352425
"S210209"	"Response_Selection"	"RIGHT"	"RIGHT"	318.933700000002	633.3333346	n/a	n/a	n/a	n/a	n/a	n/a	n/a	"2021-02-09 13:53:09.777873"	"2021-02-09 13:53:10.304768"	42	2.53352425
"S210209"	"Response_Selection"	"RIGHT"	"RIGHT"	386.7257	1466.6666696	n/a	n/a	n/a	n/a	n/a	n/a	n/a	"2021-02-09 13:53:11.780951"	"2021-02-09 13:53:12.376610"	43	2.53352425
"S210209"	"Response_Selection"	"RIGHT"	"RIGHT"	368.143299999986	533.3333344	n/a	n/a	n/a	n/a	n/a	n/a	n/a	"2021-02-09 13:53:12.919575"	"2021-02-09 13:53:13.496309"	44	2.53352425
"S210209"	"Response_Selection"	"RIGHT"	"RIGHT"	330.69230000001	1250.0000025	n/a	n/a	n/a	n/a	n/a	n/a	n/a	"2021-02-09 13:53:14.757557"	"2021-02-09 13:53:15.296145"	45	2.53352425
"S210209"	"Response_Selection"	"RIGHT"	"RIGHT"	284.761199999991	1033.3333354	n/a	n/a	n/a	n/a	n/a	n/a	n/a	"2021-02-09 13:53:16.339565"	"2021-02-09 13:53:16.833654"	46	2.53352425
"S210209"	"Response_Selection"	"RIGHT"	"RIGHT"	377.474699999993	500.000001	n/a	n/a	n/a	n/a	n/a	n/a	n/a	"2021-02-09 13:53:17.342172"	"2021-02-09 13:53:17.927502"	47	2.53352425
"S210209"	"Response_Selection"	"RIGHT"	"RIGHT"	297.712499999989	933.3333352	n/a	n/a	n/a	n/a	n/a	n/a	n/a	"2021-02-09 13:53:18.870242"	"2021-02-09 13:53:19.375603"	48	2.53352425
"S210209"	"Response_Selection"	"LEFT"	"LEFT"	321.848799999998	1116.6666689	n/a	n/a	n/a	n/a	n/a	n/a	n/a	"2021-02-09 13:53:20.502304"	"2021-02-09 13:53:21.031929"	49	2.53352425
"S210209"	"Response_Selection"	"RIGHT"	"RIGHT"	295.158700000002	1200.0000024	n/a	n/a	n/a	n/a	n/a	n/a	n/a	"2021-02-09 13:53:22.240767"	"2021-02-09 13:53:22.743724"	50	2.53352425
"S210209"	"Response_Selection"	"LEFT"	"LEFT"	294.574399999988	783.3333349	n/a	n/a	n/a	n/a	n/a	n/a	n/a	"2021-02-09 13:53:23.537730"	"2021-02-09 13:53:24.041046"	51	2.53352425
"S210209"	"Response_Selection"	"RIGHT"	"RIGHT"	281.90920000003	1266.6666692	n/a	n/a	n/a	n/a	n/a	n/a	n/a	"2021-02-09 13:53:25.317476"	"2021-02-09 13:53:25.807751"	52	2.53352425
"S210209"	"Response_Selection"	"LEFT"	"LEFT"	322.485499999971	683.3333347	n/a	n/a	n/a	n/a	n/a	n/a	n/a	"2021-02-09 13:53:26.501257"	"2021-02-09 13:53:27.030999"	53	2.53352425
"S210209"	"Response_Selection"	"LEFT"	"LEFT"	349.34149999998	866.6666684	n/a	n/a	n/a	n/a	n/a	n/a	n/a	"2021-02-09 13:53:27.906643"	"2021-02-09 13:53:28.467258"	54	2.53352425
"S210209"	"Response_Selection"	"RIGHT"	"RIGHT"	352.727500000015	866.6666684	n/a	n/a	n/a	n/a	n/a	n/a	n/a	"2021-02-09 13:53:29.343384"	"2021-02-09 13:53:29.903022"	55	2.53352425
"S210209"	"Response_Selection"	"RIGHT"	"RIGHT"	367.356799999982	1216.6666691	n/a	n/a	n/a	n/a	n/a	n/a	n/a	"2021-02-09 13:53:31.128730"	"2021-02-09 13:53:31.703843"	56	2.53352425
"S210209"	"Response_Selection"	"LEFT"	"LEFT"	318.609600000002	633.3333346	n/a	n/a	n/a	n/a	n/a	n/a	n/a	"2021-02-09 13:53:32.345908"	"2021-02-09 13:53:32.872511"	57	2.53352425
"S210209"	"Response_Selection"	"LEFT"	"LEFT"	294.525399999998	1166.666669	n/a	n/a	n/a	n/a	n/a	n/a	n/a	"2021-02-09 13:53:34.048925"	"2021-02-09 13:53:34.551642"	58	2.53352425
"S210209"	"Response_Selection"	"RIGHT"	"RIGHT"	548.399300000028	1083.3333355	n/a	n/a	n/a	n/a	n/a	n/a	n/a	"2021-02-09 13:53:35.642916"	"2021-02-09 13:53:36.400520"	59	2.53352425
"S210209"	"Response_Selection"	"RIGHT"	"RIGHT"	344.190699999956	1166.666669	n/a	n/a	n/a	n/a	n/a	n/a	n/a	"2021-02-09 13:53:37.575159"	"2021-02-09 13:53:38.128401"	60	2.53352425
"S210209"	"Response_Selection"	"RIGHT"	"RIGHT"	348.857599999974	1016.6666687	n/a	n/a	n/a	n/a	n/a	n/a	n/a	"2021-02-09 13:53:39.154751"	"2021-02-09 13:53:39.712302"	61	2.53352425
"S210209"	"Response_Selection"	"RIGHT"	"RIGHT"	323.534499999994	650.0000013	n/a	n/a	n/a	n/a	n/a	n/a	n/a	"2021-02-09 13:53:40.372642"	"2021-02-09 13:53:40.905577"	62	2.53352425
"S210209"	"Response_Selection"	"RIGHT"	"RIGHT"	264.513799999975	883.3333351	n/a	n/a	n/a	n/a	n/a	n/a	n/a	"2021-02-09 13:53:41.799226"	"2021-02-09 13:53:42.272514"	63	2.53352425
"S210209"	"Response_Selection"	"RIGHT"	"RIGHT"	249.347599999965	1133.3333356	n/a	n/a	n/a	n/a	n/a	n/a	n/a	"2021-02-09 13:53:43.414454"	"2021-02-09 13:53:43.872320"	64	2.53352425
"S210209"	"Response_Selection"	"LEFT"	"LEFT"	297.159000000022	1316.6666693	n/a	n/a	n/a	n/a	n/a	n/a	n/a	"2021-02-09 13:53:45.198477"	"2021-02-09 13:53:45.704619"	65	2.53352425
"S210209"	"Response_Selection"	"RIGHT"	"RIGHT"	304.911899999979	1116.6666689	n/a	n/a	n/a	n/a	n/a	n/a	n/a	"2021-02-09 13:53:46.830686"	"2021-02-09 13:53:47.343613"	66	2.53352425
"S210209"	"Response_Selection"	"RIGHT"	"RIGHT"	311.035400000037	1400.0000028	n/a	n/a	n/a	n/a	n/a	n/a	n/a	"2021-02-09 13:53:48.752691"	"2021-02-09 13:53:49.272289"	67	2.53352425
"S210209"	"Response_Selection"	"RIGHT"	"RIGHT"	359.489200000041	733.3333348	n/a	n/a	n/a	n/a	n/a	n/a	n/a	"2021-02-09 13:53:50.015970"	"2021-02-09 13:53:50.584142"	68	2.53352425
"S210209"	"Response_Selection"	"LEFT"	"LEFT"	353.034799999989	750.0000015	n/a	n/a	n/a	n/a	n/a	n/a	n/a	"2021-02-09 13:53:51.342639"	"2021-02-09 13:53:51.903885"	69	2.53352425
"S210209"	"Response_Selection"	"LEFT"	"LEFT"	353.45460000002	550.0000011	n/a	n/a	n/a	n/a	n/a	n/a	n/a	"2021-02-09 13:53:52.462520"	"2021-02-09 13:53:53.024333"	70	2.53352425
"S210209"	"Response_Selection"	"RIGHT"	"RIGHT"	284.180400000025	1066.6666688	n/a	n/a	n/a	n/a	n/a	n/a	n/a	"2021-02-09 13:53:54.100244"	"2021-02-09 13:53:54.594019"	71	2.53352425
"S210209"	"Response_Selection"	"RIGHT"	"RIGHT"	367.003099999977	750.0000015	n/a	n/a	n/a	n/a	n/a	n/a	n/a	"2021-02-09 13:53:55.352679"	"2021-02-09 13:53:55.929140"	72	2.53352425
"S210209"	"Response_Selection"	"RIGHT"	"RIGHT"	292.11360000005	783.3333349	n/a	n/a	n/a	n/a	n/a	n/a	n/a	"2021-02-09 13:53:56.723277"	"2021-02-09 13:53:57.224178"	73	2.53352425
"S210209"	"Response_Selection"	"LEFT"	"LEFT"	312.886999999989	883.3333351	n/a	n/a	n/a	n/a	n/a	n/a	n/a	"2021-02-09 13:53:58.118542"	"2021-02-09 13:53:58.640794"	74	2.53352425
"S210209"	"Response_Selection"	"LEFT"	"LEFT"	323.130100000014	1083.3333355	n/a	n/a	n/a	n/a	n/a	n/a	n/a	"2021-02-09 13:53:59.733055"	"2021-02-09 13:54:00.264200"	75	2.53352425
"S210209"	"Response_Selection"	"RIGHT"	"RIGHT"	307.947999999953	833.333335	n/a	n/a	n/a	n/a	n/a	n/a	n/a	"2021-02-09 13:54:01.107557"	"2021-02-09 13:54:01.623347"	76	2.53352425
"S210209"	"Response_Selection"	"RIGHT"	"RIGHT"	342.90279999999	800.0000016	n/a	n/a	n/a	n/a	n/a	n/a	n/a	"2021-02-09 13:54:02.432683"	"2021-02-09 13:54:02.984387"	77	2.53352425
"S210209"	"Response_Selection"	"LEFT"	"LEFT"	267.661099999998	1250.0000025	n/a	n/a	n/a	n/a	n/a	n/a	n/a	"2021-02-09 13:54:04.243684"	"2021-02-09 13:54:04.718803"	78	2.53352425
"S210209"	"Response_Selection"	"LEFT"	"LEFT"	323.199799999998	733.3333348	n/a	n/a	n/a	n/a	n/a	n/a	n/a	"2021-02-09 13:54:05.460914"	"2021-02-09 13:54:05.991662"	79	2.53352425
"S210209"	"Response_Selection"	"LEFT"	"LEFT"	292.115300000034	1033.3333354	n/a	n/a	n/a	n/a	n/a	n/a	n/a	"2021-02-09 13:54:07.035419"	"2021-02-09 13:54:07.535658"	80	2.53352425
