Participant	Task	Stimulus_Side	Response	RT	ITI	Previous_Response	Previous_RT	Trial_Onset	Trial_End	Trial_Order	Duration	Conflict	Cue_Response	Cue_Response_RT	Stop_Signal	Stop_Signal_RT
S210209	Conflict_Resolution	RIGHT	RIGHT	471.347400000013	1316.6666693	n/a	n/a	2021-02-09 14:00:46.216153	2021-02-09 14:00:46.895026	1	5.67798473333333	False	n/a	n/a	n/a	n/a
S210209	Conflict_Resolution	RIGHT	RIGHT	388.721400000009	983.3333353	n/a	n/a	2021-02-09 14:00:47.898468	2021-02-09 14:00:48.495010	2	5.67798473333333	False	n/a	n/a	n/a	n/a
S210209	Conflict_Resolution	LEFT	LEFT	475.698400000056	1216.6666691	n/a	n/a	2021-02-09 14:00:49.731201	2021-02-09 14:00:50.416382	3	5.67798473333333	True	n/a	n/a	n/a	n/a
S210209	Conflict_Resolution	LEFT	LEFT	441.802199999984	1416.6666695	n/a	n/a	2021-02-09 14:00:51.853541	2021-02-09 14:00:52.502674	4	5.67798473333333	False	n/a	n/a	n/a	n/a
S210209	Conflict_Resolution	LEFT	LEFT	512.638299999935	916.6666685	n/a	n/a	2021-02-09 14:00:53.438225	2021-02-09 14:00:54.160127	5	5.67798473333333	True	n/a	n/a	n/a	n/a
S210209	Conflict_Resolution	RIGHT	RIGHT	403.679499999953	550.0000011	n/a	n/a	2021-02-09 14:00:54.731602	2021-02-09 14:00:55.344339	6	5.67798473333333	False	n/a	n/a	n/a	n/a
S210209	Conflict_Resolution	RIGHT	RIGHT	601.526700000022	850.0000017	n/a	n/a	2021-02-09 14:00:56.214061	2021-02-09 14:00:57.023197	7	5.67798473333333	True	n/a	n/a	n/a	n/a
S210209	Conflict_Resolution	RIGHT	RIGHT	455.93759999997	500.000001	n/a	n/a	2021-02-09 14:00:57.542809	2021-02-09 14:00:58.206731	8	5.67798473333333	True	n/a	n/a	n/a	n/a
S210209	Conflict_Resolution	LEFT	LEFT	512.480799999935	1100.0000022	n/a	n/a	2021-02-09 14:00:59.326495	2021-02-09 14:01:00.048545	9	5.67798473333333	True	n/a	n/a	n/a	n/a
S210209	Conflict_Resolution	LEFT	LEFT	495.795300000054	900.0000018	n/a	n/a	2021-02-09 14:01:00.967565	2021-02-09 14:01:01.670648	10	5.67798473333333	True	n/a	n/a	n/a	n/a
S210209	Conflict_Resolution	RIGHT	RIGHT	560.41300000004	1100.0000022	n/a	n/a	2021-02-09 14:01:02.791134	2021-02-09 14:01:03.558987	11	5.67798473333333	True	n/a	n/a	n/a	n/a
S210209	Conflict_Resolution	RIGHT	RIGHT	533.89930000003	1150.0000023	n/a	n/a	2021-02-09 14:01:04.729746	2021-02-09 14:01:05.470675	12	5.67798473333333	True	n/a	n/a	n/a	n/a
S210209	Conflict_Resolution	LEFT	LEFT	517.156	1200.0000024	n/a	n/a	2021-02-09 14:01:06.690559	2021-02-09 14:01:07.416233	13	5.67798473333333	True	n/a	n/a	n/a	n/a
S210209	Conflict_Resolution	RIGHT	RIGHT	441.854299999932	1050.0000021	n/a	n/a	2021-02-09 14:01:08.485051	2021-02-09 14:01:09.136472	14	5.67798473333333	False	n/a	n/a	n/a	n/a
S210209	Conflict_Resolution	LEFT	LEFT	742.806299999984	1116.6666689	n/a	n/a	2021-02-09 14:01:10.272856	2021-02-09 14:01:11.222765	15	5.67798473333333	False	n/a	n/a	n/a	n/a
S210209	Conflict_Resolution	RIGHT	RIGHT	451.528800000006	1233.3333358	n/a	n/a	2021-02-09 14:01:12.476232	2021-02-09 14:01:13.135675	16	5.67798473333333	True	n/a	n/a	n/a	n/a
S210209	Conflict_Resolution	LEFT	LEFT	482.128900000021	1050.0000021	n/a	n/a	2021-02-09 14:01:14.205324	2021-02-09 14:01:14.896468	17	5.67798473333333	True	n/a	n/a	n/a	n/a
S210209	Conflict_Resolution	LEFT	LEFT	559.095299999967	1300.0000026	n/a	n/a	2021-02-09 14:01:16.216021	2021-02-09 14:01:16.982690	18	5.67798473333333	True	n/a	n/a	n/a	n/a
S210209	Conflict_Resolution	LEFT	LEFT	443.754000000013	816.6666683	n/a	n/a	2021-02-09 14:01:17.819620	2021-02-09 14:01:18.472573	19	5.67798473333333	True	n/a	n/a	n/a	n/a
S210209	Conflict_Resolution	RIGHT	RIGHT	490.184500000055	833.333335	n/a	n/a	2021-02-09 14:01:19.325398	2021-02-09 14:01:20.024248	20	5.67798473333333	True	n/a	n/a	n/a	n/a
S210209	Conflict_Resolution	RIGHT	RIGHT	438.530000000014	1133.3333356	n/a	n/a	2021-02-09 14:01:21.176184	2021-02-09 14:01:21.823507	21	5.67798473333333	False	n/a	n/a	n/a	n/a
S210209	Conflict_Resolution	LEFT	LEFT	410.367999999949	1450.0000029	n/a	n/a	2021-02-09 14:01:23.293379	2021-02-09 14:01:23.911391	22	5.67798473333333	False	n/a	n/a	n/a	n/a
S210209	Conflict_Resolution	RIGHT	RIGHT	402.494499999989	1000.000002	n/a	n/a	2021-02-09 14:01:24.932267	2021-02-09 14:01:25.543214	23	5.67798473333333	False	n/a	n/a	n/a	n/a
S210209	Conflict_Resolution	LEFT	LEFT	446.217300000058	733.3333348	n/a	n/a	2021-02-09 14:01:26.296955	2021-02-09 14:01:26.951217	24	5.67798473333333	False	n/a	n/a	n/a	n/a
S210209	Conflict_Resolution	LEFT	LEFT	446.208700000057	566.6666678	n/a	n/a	2021-02-09 14:01:27.537360	2021-02-09 14:01:28.191647	25	5.67798473333333	False	n/a	n/a	n/a	n/a
S210209	Conflict_Resolution	LEFT	LEFT	395.834000000036	583.3333345	n/a	n/a	2021-02-09 14:01:28.795064	2021-02-09 14:01:29.399028	26	5.67798473333333	False	n/a	n/a	n/a	n/a
S210209	Conflict_Resolution	LEFT	LEFT	508.836699999961	1000.000002	n/a	n/a	2021-02-09 14:01:30.417951	2021-02-09 14:01:31.135091	27	5.67798473333333	True	n/a	n/a	n/a	n/a
S210209	Conflict_Resolution	LEFT	LEFT	477.119000000016	950.0000019	n/a	n/a	2021-02-09 14:01:32.106597	2021-02-09 14:01:32.792333	28	5.67798473333333	True	n/a	n/a	n/a	n/a
S210209	Conflict_Resolution	RIGHT	RIGHT	525.665099999969	1133.3333356	n/a	n/a	2021-02-09 14:01:33.945759	2021-02-09 14:01:34.680389	29	5.67798473333333	True	n/a	n/a	n/a	n/a
S210209	Conflict_Resolution	RIGHT	RIGHT	405.974600000036	900.0000018	n/a	n/a	2021-02-09 14:01:35.601066	2021-02-09 14:01:36.216063	30	5.67798473333333	False	n/a	n/a	n/a	n/a
S210209	Conflict_Resolution	LEFT	LEFT	440.93410000005	766.6666682	n/a	n/a	2021-02-09 14:01:37.005900	2021-02-09 14:01:37.656412	31	5.67798473333333	True	n/a	n/a	n/a	n/a
S210209	Conflict_Resolution	LEFT	LEFT	468.060600000058	783.3333349	n/a	n/a	2021-02-09 14:01:38.458920	2021-02-09 14:01:39.135616	32	5.67798473333333	True	n/a	n/a	n/a	n/a
S210209	Conflict_Resolution	RIGHT	RIGHT	512.115900000026	1083.3333355	n/a	n/a	2021-02-09 14:01:40.238619	2021-02-09 14:01:40.959149	33	5.67798473333333	True	n/a	n/a	n/a	n/a
S210209	Conflict_Resolution	RIGHT	RIGHT	532.964600000014	1216.6666691	n/a	n/a	2021-02-09 14:01:42.193794	2021-02-09 14:01:42.935605	34	5.67798473333333	True	n/a	n/a	n/a	n/a
S210209	Conflict_Resolution	LEFT	LEFT	363.114099999962	1400.0000028	n/a	n/a	2021-02-09 14:01:44.356348	2021-02-09 14:01:44.928002	35	5.67798473333333	False	n/a	n/a	n/a	n/a
S210209	Conflict_Resolution	RIGHT	RIGHT	465.918299999998	833.333335	n/a	n/a	2021-02-09 14:01:45.781209	2021-02-09 14:01:46.454821	36	5.67798473333333	False	n/a	n/a	n/a	n/a
S210209	Conflict_Resolution	LEFT	LEFT	481.07200000004	1316.6666693	n/a	n/a	2021-02-09 14:01:47.789811	2021-02-09 14:01:48.478966	37	5.67798473333333	True	n/a	n/a	n/a	n/a
S210209	Conflict_Resolution	RIGHT	RIGHT	479.889400000047	900.0000018	n/a	n/a	2021-02-09 14:01:49.399022	2021-02-09 14:01:50.086702	38	5.67798473333333	True	n/a	n/a	n/a	n/a
S210209	Conflict_Resolution	LEFT	LEFT	556.405899999959	583.3333345	n/a	n/a	2021-02-09 14:01:50.690111	2021-02-09 14:01:51.454955	39	5.67798473333333	True	n/a	n/a	n/a	n/a
S210209	Conflict_Resolution	RIGHT	RIGHT	359.01530000001	1150.0000023	n/a	n/a	2021-02-09 14:01:52.624522	2021-02-09 14:01:53.192283	40	5.67798473333333	False	n/a	n/a	n/a	n/a
S210209	Conflict_Resolution	RIGHT	RIGHT	410.96959999993	1416.6666695	n/a	n/a	2021-02-09 14:01:54.628363	2021-02-09 14:01:55.247081	41	5.67798473333333	False	n/a	n/a	n/a	n/a
S210209	Conflict_Resolution	RIGHT	RIGHT	420.110899999941	1216.6666691	n/a	n/a	2021-02-09 14:01:56.483373	2021-02-09 14:01:57.111344	42	5.67798473333333	False	n/a	n/a	n/a	n/a
S210209	Conflict_Resolution	LEFT	LEFT	453.504199999998	533.3333344	n/a	n/a	2021-02-09 14:01:57.665829	2021-02-09 14:01:58.327680	43	5.67798473333333	False	n/a	n/a	n/a	n/a
S210209	Conflict_Resolution	LEFT	LEFT	442.642000000092	616.6666679	n/a	n/a	2021-02-09 14:01:58.964798	2021-02-09 14:01:59.614766	44	5.67798473333333	False	n/a	n/a	n/a	n/a
S210209	Conflict_Resolution	RIGHT	RIGHT	442.450199999939	1466.6666696	n/a	n/a	2021-02-09 14:02:01.101476	2021-02-09 14:02:01.751046	45	5.67798473333333	False	n/a	n/a	n/a	n/a
S210209	Conflict_Resolution	RIGHT	RIGHT	601.728700000081	883.3333351	n/a	n/a	2021-02-09 14:02:02.653188	2021-02-09 14:02:03.463661	46	5.67798473333333	True	n/a	n/a	n/a	n/a
S210209	Conflict_Resolution	RIGHT	RIGHT	465.65940000005	1266.6666692	n/a	n/a	2021-02-09 14:02:04.749119	2021-02-09 14:02:05.424420	47	5.67798473333333	True	n/a	n/a	n/a	n/a
S210209	Conflict_Resolution	LEFT	LEFT	416.285100000096	1266.6666692	n/a	n/a	2021-02-09 14:02:06.711334	2021-02-09 14:02:07.334960	48	5.67798473333333	False	n/a	n/a	n/a	n/a
S210209	Conflict_Resolution	LEFT	LEFT	459.020599999917	1250.0000025	n/a	n/a	2021-02-09 14:02:08.603975	2021-02-09 14:02:09.271799	49	5.67798473333333	False	n/a	n/a	n/a	n/a
S210209	Conflict_Resolution	RIGHT	RIGHT	500.330499999905	583.3333345	n/a	n/a	2021-02-09 14:02:09.875040	2021-02-09 14:02:10.583078	50	5.67798473333333	True	n/a	n/a	n/a	n/a
S210209	Conflict_Resolution	RIGHT	RIGHT	436.565599999994	933.3333352	n/a	n/a	2021-02-09 14:02:11.538897	2021-02-09 14:02:12.182826	51	5.67798473333333	False	n/a	n/a	n/a	n/a
S210209	Conflict_Resolution	LEFT	LEFT	422.591200000056	916.6666685	n/a	n/a	2021-02-09 14:02:13.120688	2021-02-09 14:02:13.752245	52	5.67798473333333	False	n/a	n/a	n/a	n/a
S210209	Conflict_Resolution	RIGHT	RIGHT	434.603799999991	1033.3333354	n/a	n/a	2021-02-09 14:02:14.805024	2021-02-09 14:02:15.446665	53	5.67798473333333	True	n/a	n/a	n/a	n/a
S210209	Conflict_Resolution	RIGHT	RIGHT	405.11939999999	750.0000015	n/a	n/a	2021-02-09 14:02:16.217614	2021-02-09 14:02:16.830739	54	5.67798473333333	False	n/a	n/a	n/a	n/a
S210209	Conflict_Resolution	LEFT	LEFT	410.733800000003	633.3333346	n/a	n/a	2021-02-09 14:02:17.484723	2021-02-09 14:02:18.103315	55	5.67798473333333	False	n/a	n/a	n/a	n/a
S210209	Conflict_Resolution	LEFT	LEFT	472.104899999977	900.0000018	n/a	n/a	2021-02-09 14:02:19.023448	2021-02-09 14:02:19.703661	56	5.67798473333333	False	n/a	n/a	n/a	n/a
S210209	Conflict_Resolution	LEFT	LEFT	411.824000000024	1216.6666691	n/a	n/a	2021-02-09 14:02:20.939813	2021-02-09 14:02:21.560513	57	5.67798473333333	False	n/a	n/a	n/a	n/a
S210209	Conflict_Resolution	LEFT	LEFT	576.882899999987	850.0000017	n/a	n/a	2021-02-09 14:02:22.430637	2021-02-09 14:02:23.215327	58	5.67798473333333	True	n/a	n/a	n/a	n/a
S210209	Conflict_Resolution	LEFT	LEFT	473.174599999993	683.3333347	n/a	n/a	2021-02-09 14:02:23.918357	2021-02-09 14:02:24.600436	59	5.67798473333333	True	n/a	n/a	n/a	n/a
S210209	Conflict_Resolution	RIGHT	RIGHT	486.621700000001	750.0000015	n/a	n/a	2021-02-09 14:02:25.370025	2021-02-09 14:02:26.063921	60	5.67798473333333	True	n/a	n/a	n/a	n/a
S210209	Conflict_Resolution	LEFT	LEFT	661.212699999965	1150.0000023	n/a	n/a	2021-02-09 14:02:27.234320	2021-02-09 14:02:28.103888	61	5.67798473333333	True	n/a	n/a	n/a	n/a
S210209	Conflict_Resolution	LEFT	LEFT	545.340199999941	1450.0000029	n/a	n/a	2021-02-09 14:02:29.573733	2021-02-09 14:02:30.327343	62	5.67798473333333	True	n/a	n/a	n/a	n/a
S210209	Conflict_Resolution	RIGHT	RIGHT	481.794799999989	850.0000017	n/a	n/a	2021-02-09 14:02:31.196972	2021-02-09 14:02:31.886634	63	5.67798473333333	False	n/a	n/a	n/a	n/a
S210209	Conflict_Resolution	RIGHT	RIGHT	564.943699999958	1183.3333357	n/a	n/a	2021-02-09 14:02:33.090538	2021-02-09 14:02:33.863320	64	5.67798473333333	True	n/a	n/a	n/a	n/a
S210209	Conflict_Resolution	LEFT	LEFT	427.853000000027	1166.666669	n/a	n/a	2021-02-09 14:02:35.051738	2021-02-09 14:02:35.686667	65	5.67798473333333	False	n/a	n/a	n/a	n/a
S210209	Conflict_Resolution	RIGHT	RIGHT	549.860999999964	700.0000014	n/a	n/a	2021-02-09 14:02:36.409780	2021-02-09 14:02:37.167983	66	5.67798473333333	True	n/a	n/a	n/a	n/a
S210209	Conflict_Resolution	RIGHT	RIGHT	583.062700000028	933.3333352	n/a	n/a	2021-02-09 14:02:38.119713	2021-02-09 14:02:38.911419	67	5.67798473333333	True	n/a	n/a	n/a	n/a
S210209	Conflict_Resolution	RIGHT	RIGHT	427.202899999997	1383.3333361	n/a	n/a	2021-02-09 14:02:40.316342	2021-02-09 14:02:40.951376	68	5.67798473333333	False	n/a	n/a	n/a	n/a
S210209	Conflict_Resolution	LEFT	LEFT	435.655200000042	1400.0000028	n/a	n/a	2021-02-09 14:02:42.371226	2021-02-09 14:02:43.014041	69	5.67798473333333	True	n/a	n/a	n/a	n/a
S210209	Conflict_Resolution	LEFT	LEFT	502.608799999962	966.6666686	n/a	n/a	2021-02-09 14:02:44.000904	2021-02-09 14:02:44.711327	70	5.67798473333333	True	n/a	n/a	n/a	n/a
S210209	Conflict_Resolution	LEFT	LEFT	512.463199999956	716.6666681	n/a	n/a	2021-02-09 14:02:45.447437	2021-02-09 14:02:46.168312	71	5.67798473333333	False	n/a	n/a	n/a	n/a
S210209	Conflict_Resolution	RIGHT	RIGHT	434.375899999964	633.3333346	n/a	n/a	2021-02-09 14:02:46.820356	2021-02-09 14:02:47.463121	72	5.67798473333333	True	n/a	n/a	n/a	n/a
S210209	Conflict_Resolution	LEFT	LEFT	537.218400000029	616.6666679	n/a	n/a	2021-02-09 14:02:48.101908	2021-02-09 14:02:48.846844	73	5.67798473333333	True	n/a	n/a	n/a	n/a
S210209	Conflict_Resolution	RIGHT	RIGHT	429.306699999984	783.3333349	n/a	n/a	2021-02-09 14:02:49.649378	2021-02-09 14:02:50.287526	74	5.67798473333333	False	n/a	n/a	n/a	n/a
S210209	Conflict_Resolution	LEFT	LEFT	743.736499999955	1116.6666689	n/a	n/a	2021-02-09 14:02:51.423624	2021-02-09 14:02:52.375405	75	5.67798473333333	True	n/a	n/a	n/a	n/a
S210209	Conflict_Resolution	RIGHT	RIGHT	375.318399999969	533.3333344	n/a	n/a	2021-02-09 14:02:52.927475	2021-02-09 14:02:53.510645	76	5.67798473333333	False	n/a	n/a	n/a	n/a
S210209	Conflict_Resolution	LEFT	LEFT	397.533400000043	1366.6666694	n/a	n/a	2021-02-09 14:02:54.897317	2021-02-09 14:02:55.503343	77	5.67798473333333	False	n/a	n/a	n/a	n/a
S210209	Conflict_Resolution	LEFT	LEFT	544.037800000069	716.6666681	n/a	n/a	2021-02-09 14:02:56.239378	2021-02-09 14:02:56.992464	78	5.67798473333333	True	n/a	n/a	n/a	n/a
S210209	Conflict_Resolution	LEFT	LEFT	451.236999999992	1016.6666687	n/a	n/a	2021-02-09 14:02:58.028174	2021-02-09 14:02:58.687972	79	5.67798473333333	False	n/a	n/a	n/a	n/a
S210209	Conflict_Resolution	RIGHT	RIGHT	411.471500000061	1366.6666694	n/a	n/a	2021-02-09 14:03:00.075323	2021-02-09 14:03:00.694768	80	5.67798473333333	False	n/a	n/a	n/a	n/a
S210209	Conflict_Resolution	LEFT	LEFT	397.976399999948	1316.6666693	n/a	n/a	2021-02-09 14:03:02.033361	2021-02-09 14:03:02.638907	81	5.67798473333333	False	n/a	n/a	n/a	n/a
S210209	Conflict_Resolution	LEFT	LEFT	590.624600000069	733.3333348	n/a	n/a	2021-02-09 14:03:03.392952	2021-02-09 14:03:04.191616	82	5.67798473333333	True	n/a	n/a	n/a	n/a
S210209	Conflict_Resolution	LEFT	LEFT	468.566199999941	1366.6666694	n/a	n/a	2021-02-09 14:03:05.578069	2021-02-09 14:03:06.255101	83	5.67798473333333	True	n/a	n/a	n/a	n/a
S210209	Conflict_Resolution	LEFT	LEFT	474.446299999954	1050.0000021	n/a	n/a	2021-02-09 14:03:07.324751	2021-02-09 14:03:08.006305	84	5.67798473333333	False	n/a	n/a	n/a	n/a
S210209	Conflict_Resolution	RIGHT	RIGHT	417.415800000072	1100.0000022	n/a	n/a	2021-02-09 14:03:09.125388	2021-02-09 14:03:09.750703	85	5.67798473333333	False	n/a	n/a	n/a	n/a
S210209	Conflict_Resolution	RIGHT	RIGHT	562.076599999955	650.0000013	n/a	n/a	2021-02-09 14:03:10.420911	2021-02-09 14:03:11.191233	86	5.67798473333333	True	n/a	n/a	n/a	n/a
S210209	Conflict_Resolution	RIGHT	RIGHT	509.97760000007	700.0000014	n/a	n/a	2021-02-09 14:03:11.913366	2021-02-09 14:03:12.631104	87	5.67798473333333	False	n/a	n/a	n/a	n/a
S210209	Conflict_Resolution	LEFT	LEFT	434.147900000085	666.666668	n/a	n/a	2021-02-09 14:03:13.317291	2021-02-09 14:03:13.960260	88	5.67798473333333	True	n/a	n/a	n/a	n/a
S210209	Conflict_Resolution	RIGHT	RIGHT	500.001699999984	800.0000016	n/a	n/a	2021-02-09 14:03:14.778791	2021-02-09 14:03:15.486934	89	5.67798473333333	True	n/a	n/a	n/a	n/a
S210209	Conflict_Resolution	RIGHT	LEFT	380.508899999995	1383.3333361	n/a	n/a	2021-02-09 14:03:16.890816	2021-02-09 14:03:17.479697	90	5.67798473333333	True	n/a	n/a	n/a	n/a
S210209	Conflict_Resolution	LEFT	LEFT	462.328899999989	1350.0000027	n/a	n/a	2021-02-09 14:03:18.849259	2021-02-09 14:03:19.520447	91	5.67798473333333	False	n/a	n/a	n/a	n/a
S210209	Conflict_Resolution	LEFT	LEFT	622.211500000049	1500.000003	n/a	n/a	2021-02-09 14:03:21.041133	2021-02-09 14:03:21.870743	92	5.67798473333333	True	n/a	n/a	n/a	n/a
S210209	Conflict_Resolution	LEFT	LEFT	484.185700000012	1000.000002	n/a	n/a	2021-02-09 14:03:22.890567	2021-02-09 14:03:23.583080	93	5.67798473333333	False	n/a	n/a	n/a	n/a
S210209	Conflict_Resolution	RIGHT	RIGHT	531.320499999993	1433.3333362	n/a	n/a	2021-02-09 14:03:25.035350	2021-02-09 14:03:25.776393	94	5.67798473333333	False	n/a	n/a	n/a	n/a
S210209	Conflict_Resolution	LEFT	LEFT	449.110000000019	1016.6666687	n/a	n/a	2021-02-09 14:03:26.813726	2021-02-09 14:03:27.472571	95	5.67798473333333	True	n/a	n/a	n/a	n/a
S210209	Conflict_Resolution	RIGHT	RIGHT	537.643899999921	633.3333346	n/a	n/a	2021-02-09 14:03:28.125895	2021-02-09 14:03:28.872065	96	5.67798473333333	False	n/a	n/a	n/a	n/a
S210209	Conflict_Resolution	LEFT	LEFT	538.366400000086	1066.6666688	n/a	n/a	2021-02-09 14:03:29.956693	2021-02-09 14:03:30.703735	97	5.67798473333333	True	n/a	n/a	n/a	n/a
S210209	Conflict_Resolution	LEFT	LEFT	547.793100000035	533.3333344	n/a	n/a	2021-02-09 14:03:31.259219	2021-02-09 14:03:32.014019	98	5.67798473333333	True	n/a	n/a	n/a	n/a
S210209	Conflict_Resolution	LEFT	LEFT	469.001100000014	766.6666682	n/a	n/a	2021-02-09 14:03:32.801567	2021-02-09 14:03:33.480594	99	5.67798473333333	False	n/a	n/a	n/a	n/a
S210209	Conflict_Resolution	LEFT	LEFT	466.848000000027	783.3333349	n/a	n/a	2021-02-09 14:03:34.283949	2021-02-09 14:03:34.959041	100	5.67798473333333	False	n/a	n/a	n/a	n/a
S210209	Conflict_Resolution	RIGHT	RIGHT	466.856500000063	1033.3333354	n/a	n/a	2021-02-09 14:03:36.011933	2021-02-09 14:03:36.686781	101	5.67798473333333	False	n/a	n/a	n/a	n/a
S210209	Conflict_Resolution	LEFT	LEFT	447.857900000031	1100.0000022	n/a	n/a	2021-02-09 14:03:37.806808	2021-02-09 14:03:38.463501	102	5.67798473333333	False	n/a	n/a	n/a	n/a
S210209	Conflict_Resolution	LEFT	LEFT	438.46880000001	516.6666677	n/a	n/a	2021-02-09 14:03:39.000685	2021-02-09 14:03:39.647949	103	5.67798473333333	False	n/a	n/a	n/a	n/a
S210209	Conflict_Resolution	RIGHT	RIGHT	542.894600000068	1316.6666693	n/a	n/a	2021-02-09 14:03:40.984530	2021-02-09 14:03:41.736132	104	5.67798473333333	True	n/a	n/a	n/a	n/a
S210209	Conflict_Resolution	LEFT	LEFT	685.996199999977	516.6666677	n/a	n/a	2021-02-09 14:03:42.272670	2021-02-09 14:03:43.166856	105	5.67798473333333	True	n/a	n/a	n/a	n/a
S210209	Conflict_Resolution	RIGHT	RIGHT	458.403100000055	1233.3333358	n/a	n/a	2021-02-09 14:03:44.420094	2021-02-09 14:03:45.088192	106	5.67798473333333	False	n/a	n/a	n/a	n/a
S210209	Conflict_Resolution	LEFT	LEFT	371.541499999921	1200.0000024	n/a	n/a	2021-02-09 14:03:46.307622	2021-02-09 14:03:46.887571	107	5.67798473333333	False	n/a	n/a	n/a	n/a
S210209	Conflict_Resolution	RIGHT	RIGHT	428.175600000031	583.3333345	n/a	n/a	2021-02-09 14:03:47.490616	2021-02-09 14:03:48.126090	108	5.67798473333333	False	n/a	n/a	n/a	n/a
S210209	Conflict_Resolution	RIGHT	RIGHT	664.966900000081	1283.3333359	n/a	n/a	2021-02-09 14:03:49.430424	2021-02-09 14:03:50.302778	109	5.67798473333333	True	n/a	n/a	n/a	n/a
S210209	Conflict_Resolution	LEFT	LEFT	517.257599999994	1166.666669	n/a	n/a	2021-02-09 14:03:51.489768	2021-02-09 14:03:52.215144	110	5.67798473333333	True	n/a	n/a	n/a	n/a
S210209	Conflict_Resolution	RIGHT	RIGHT	586.976899999968	1050.0000021	n/a	n/a	2021-02-09 14:03:53.283680	2021-02-09 14:03:54.078669	111	5.67798473333333	True	n/a	n/a	n/a	n/a
S210209	Conflict_Resolution	LEFT	LEFT	405.784499999982	950.0000019	n/a	n/a	2021-02-09 14:03:55.049450	2021-02-09 14:03:55.662230	112	5.67798473333333	False	n/a	n/a	n/a	n/a
S210209	Conflict_Resolution	LEFT	LEFT	610.459699999979	866.6666684	n/a	n/a	2021-02-09 14:03:56.548183	2021-02-09 14:03:57.367333	113	5.67798473333333	True	n/a	n/a	n/a	n/a
S210209	Conflict_Resolution	LEFT	LEFT	586.014299999988	633.3333346	n/a	n/a	2021-02-09 14:03:58.020891	2021-02-09 14:03:58.815025	114	5.67798473333333	True	n/a	n/a	n/a	n/a
S210209	Conflict_Resolution	RIGHT	RIGHT	521.224599999982	1483.3333363	n/a	n/a	2021-02-09 14:04:00.317928	2021-02-09 14:04:01.045896	115	5.67798473333333	True	n/a	n/a	n/a	n/a
S210209	Conflict_Resolution	RIGHT	RIGHT	577.181899999914	883.3333351	n/a	n/a	2021-02-09 14:04:01.950190	2021-02-09 14:04:02.734675	116	5.67798473333333	False	n/a	n/a	n/a	n/a
S210209	Conflict_Resolution	RIGHT	RIGHT	664.160700000025	683.3333347	n/a	n/a	2021-02-09 14:04:03.439631	2021-02-09 14:04:04.313708	117	5.67798473333333	False	n/a	n/a	n/a	n/a
S210209	Conflict_Resolution	RIGHT	RIGHT	585.75529999996	1000.000002	n/a	n/a	2021-02-09 14:04:05.333257	2021-02-09 14:04:06.126879	118	5.67798473333333	True	n/a	n/a	n/a	n/a
S210209	Conflict_Resolution	RIGHT	RIGHT	750.86859999999	733.3333348	n/a	n/a	2021-02-09 14:04:06.880088	2021-02-09 14:04:07.840370	119	5.67798473333333	True	n/a	n/a	n/a	n/a
S210209	Conflict_Resolution	LEFT	LEFT	487.11179999998	1500.000003	n/a	n/a	2021-02-09 14:04:09.360354	2021-02-09 14:04:10.056189	120	5.67798473333333	False	n/a	n/a	n/a	n/a
S210209	Conflict_Resolution	LEFT	LEFT	988.547400000016	566.6666678	n/a	n/a	2021-02-09 14:04:10.642739	2021-02-09 14:04:11.839409	121	5.67798473333333	True	n/a	n/a	n/a	n/a
S210209	Conflict_Resolution	RIGHT	RIGHT	539.614900000061	1416.6666695	n/a	n/a	2021-02-09 14:04:13.275126	2021-02-09 14:04:14.024287	122	5.67798473333333	True	n/a	n/a	n/a	n/a
S210209	Conflict_Resolution	LEFT	LEFT	529.320699999971	850.0000017	n/a	n/a	2021-02-09 14:04:14.893931	2021-02-09 14:04:15.631579	123	5.67798473333333	False	n/a	n/a	n/a	n/a
S210209	Conflict_Resolution	RIGHT	RIGHT	468.451100000038	600.0000012	n/a	n/a	2021-02-09 14:04:16.250921	2021-02-09 14:04:16.928149	124	5.67798473333333	False	n/a	n/a	n/a	n/a
S210209	Conflict_Resolution	LEFT	LEFT	472.712699999988	866.6666684	n/a	n/a	2021-02-09 14:04:17.814353	2021-02-09 14:04:18.496315	125	5.67798473333333	False	n/a	n/a	n/a	n/a
S210209	Conflict_Resolution	RIGHT	RIGHT	486.060199999997	533.3333344	n/a	n/a	2021-02-09 14:04:19.048845	2021-02-09 14:04:19.743087	126	5.67798473333333	True	n/a	n/a	n/a	n/a
S210209	Conflict_Resolution	RIGHT	RIGHT	432.160600000088	1083.3333355	n/a	n/a	2021-02-09 14:04:20.847226	2021-02-09 14:04:21.486203	127	5.67798473333333	False	n/a	n/a	n/a	n/a
S210209	Conflict_Resolution	LEFT	LEFT	553.894300000024	1466.6666696	n/a	n/a	2021-02-09 14:04:22.973287	2021-02-09 14:04:23.733793	128	5.67798473333333	True	n/a	n/a	n/a	n/a
S210209	Conflict_Resolution	LEFT	LEFT	519.286999999963	1266.6666692	n/a	n/a	2021-02-09 14:04:25.023552	2021-02-09 14:04:25.750990	129	5.67798473333333	True	n/a	n/a	n/a	n/a
S210209	Conflict_Resolution	RIGHT	RIGHT	597.984500000052	1333.333336	n/a	n/a	2021-02-09 14:04:27.104924	2021-02-09 14:04:27.911135	130	5.67798473333333	True	n/a	n/a	n/a	n/a
S210209	Conflict_Resolution	RIGHT	RIGHT	476.953900000012	950.0000019	n/a	n/a	2021-02-09 14:04:28.882182	2021-02-09 14:04:29.566906	131	5.67798473333333	True	n/a	n/a	n/a	n/a
S210209	Conflict_Resolution	LEFT	LEFT	383.581899999967	683.3333347	n/a	n/a	2021-02-09 14:04:30.271635	2021-02-09 14:04:30.863075	132	5.67798473333333	False	n/a	n/a	n/a	n/a
S210209	Conflict_Resolution	RIGHT	RIGHT	412.652600000001	1183.3333357	n/a	n/a	2021-02-09 14:04:32.066374	2021-02-09 14:04:32.688296	133	5.67798473333333	False	n/a	n/a	n/a	n/a
S210209	Conflict_Resolution	RIGHT	RIGHT	437.140100000079	950.0000019	n/a	n/a	2021-02-09 14:04:33.657877	2021-02-09 14:04:34.302907	134	5.67798473333333	False	n/a	n/a	n/a	n/a
S210209	Conflict_Resolution	RIGHT	RIGHT	401.633900000093	1483.3333363	n/a	n/a	2021-02-09 14:04:35.806216	2021-02-09 14:04:36.416718	135	5.67798473333333	False	n/a	n/a	n/a	n/a
S210209	Conflict_Resolution	RIGHT	RIGHT	802.072100000032	783.3333349	n/a	n/a	2021-02-09 14:04:37.220614	2021-02-09 14:04:38.231259	136	5.67798473333333	True	n/a	n/a	n/a	n/a
S210209	Conflict_Resolution	RIGHT	RIGHT	446.255599999972	733.3333348	n/a	n/a	2021-02-09 14:04:38.984438	2021-02-09 14:04:39.640270	137	5.67798473333333	False	n/a	n/a	n/a	n/a
S210209	Conflict_Resolution	RIGHT	RIGHT	548.178399999983	550.0000011	n/a	n/a	2021-02-09 14:04:40.211180	2021-02-09 14:04:40.967148	138	5.67798473333333	True	n/a	n/a	n/a	n/a
S210209	Conflict_Resolution	LEFT	LEFT	472.444599999903	666.666668	n/a	n/a	2021-02-09 14:04:41.654390	2021-02-09 14:04:42.334850	139	5.67798473333333	False	n/a	n/a	n/a	n/a
S210209	Conflict_Resolution	LEFT	LEFT	525.014899999974	966.6666686	n/a	n/a	2021-02-09 14:04:43.321827	2021-02-09 14:04:44.055364	140	5.67798473333333	False	n/a	n/a	n/a	n/a
S210209	Conflict_Resolution	LEFT	LEFT	667.2180999999	1416.6666695	n/a	n/a	2021-02-09 14:04:45.492143	2021-02-09 14:04:46.365772	141	5.67798473333333	True	n/a	n/a	n/a	n/a
S210209	Conflict_Resolution	LEFT	LEFT	427.194199999917	1066.6666688	n/a	n/a	2021-02-09 14:04:47.451526	2021-02-09 14:04:48.085826	142	5.67798473333333	False	n/a	n/a	n/a	n/a
S210209	Conflict_Resolution	LEFT	LEFT	579.114000000004	1250.0000025	n/a	n/a	2021-02-09 14:04:49.355920	2021-02-09 14:04:50.143371	143	5.67798473333333	True	n/a	n/a	n/a	n/a
S210209	Conflict_Resolution	RIGHT	RIGHT	435.40900000005	800.0000016	n/a	n/a	2021-02-09 14:04:50.963409	2021-02-09 14:04:51.606924	144	5.67798473333333	False	n/a	n/a	n/a	n/a
S210209	Conflict_Resolution	RIGHT	RIGHT	481.379800000013	683.3333347	n/a	n/a	2021-02-09 14:04:52.309246	2021-02-09 14:04:52.999608	145	5.67798473333333	True	n/a	n/a	n/a	n/a
S210209	Conflict_Resolution	RIGHT	RIGHT	724.1626	600.0000012	n/a	n/a	2021-02-09 14:04:53.619088	2021-02-09 14:04:54.552372	146	5.67798473333333	True	n/a	n/a	n/a	n/a
S210209	Conflict_Resolution	LEFT	LEFT	449.370700000031	816.6666683	n/a	n/a	2021-02-09 14:04:55.389794	2021-02-09 14:04:56.046672	147	5.67798473333333	False	n/a	n/a	n/a	n/a
S210209	Conflict_Resolution	RIGHT	RIGHT	555.838600000016	1433.3333362	n/a	n/a	2021-02-09 14:04:57.498994	2021-02-09 14:04:58.263024	148	5.67798473333333	True	n/a	n/a	n/a	n/a
S210209	Conflict_Resolution	RIGHT	RIGHT	472.560399999907	1283.3333359	n/a	n/a	2021-02-09 14:04:59.565992	2021-02-09 14:05:00.248201	149	5.67798473333333	False	n/a	n/a	n/a	n/a
S210209	Conflict_Resolution	LEFT	LEFT	532.137899999952	1350.0000027	n/a	n/a	2021-02-09 14:05:01.618874	2021-02-09 14:05:02.358655	150	5.67798473333333	True	n/a	n/a	n/a	n/a
S210209	Conflict_Resolution	RIGHT	RIGHT	442.607400000043	650.0000013	n/a	n/a	2021-02-09 14:05:03.028917	2021-02-09 14:05:03.680411	151	5.67798473333333	False	n/a	n/a	n/a	n/a
S210209	Conflict_Resolution	RIGHT	RIGHT	412.704699999949	1333.333336	n/a	n/a	2021-02-09 14:05:05.034039	2021-02-09 14:05:05.656497	152	5.67798473333333	False	n/a	n/a	n/a	n/a
S210209	Conflict_Resolution	RIGHT	RIGHT	463.06990000005	500.000001	n/a	n/a	2021-02-09 14:05:06.175673	2021-02-09 14:05:06.847131	153	5.67798473333333	False	n/a	n/a	n/a	n/a
S210209	Conflict_Resolution	LEFT	LEFT	552.370600000017	1300.0000026	n/a	n/a	2021-02-09 14:05:08.166724	2021-02-09 14:05:08.926821	154	5.67798473333333	False	n/a	n/a	n/a	n/a
S210209	Conflict_Resolution	LEFT	LEFT	658.841000000052	1466.6666696	n/a	n/a	2021-02-09 14:05:10.412703	2021-02-09 14:05:11.279159	155	5.67798473333333	False	n/a	n/a	n/a	n/a
S210209	Conflict_Resolution	RIGHT	RIGHT	509.961699999963	1366.6666694	n/a	n/a	2021-02-09 14:05:12.665495	2021-02-09 14:05:13.383225	156	5.67798473333333	True	n/a	n/a	n/a	n/a
S210209	Conflict_Resolution	LEFT	LEFT	414.018999999939	1150.0000023	n/a	n/a	2021-02-09 14:05:14.553332	2021-02-09 14:05:15.176205	157	5.67798473333333	False	n/a	n/a	n/a	n/a
S210209	Conflict_Resolution	RIGHT	RIGHT	515.846300000021	983.3333353	n/a	n/a	2021-02-09 14:05:16.178663	2021-02-09 14:05:16.903148	158	5.67798473333333	True	n/a	n/a	n/a	n/a
S210209	Conflict_Resolution	RIGHT	RIGHT	519.580000000019	1466.6666696	n/a	n/a	2021-02-09 14:05:18.391713	2021-02-09 14:05:19.118724	159	5.67798473333333	True	n/a	n/a	n/a	n/a
S210209	Conflict_Resolution	RIGHT	RIGHT	458.387799999969	1266.6666692	n/a	n/a	2021-02-09 14:05:20.405010	2021-02-09 14:05:21.071210	160	5.67798473333333	False	n/a	n/a	n/a	n/a
