index	Trial_Type	Participant_ID	Trial_Probability	Question_Position_Prediction_Correct	Question_Position_Prediction_Agent	Question_Position_Comparison_Self	Question_Position_Comparison_Irrelevant	Trial_Stake	Trial_Stake_Jitter	Trial_Type_Jitter	Trial_Result_Jitter	Balance_Update_Jitter	Question_Comparison_Condition	Question_Comparison_Type	Question_Comparison_Question	Question_Comparison_Label	Question_Comparison_Item	Question_Comparison_Proportion_Yes	Question_Factual_Condition	Question_Factual_Item	Question_Factual_Question	Question_Factual_Label	Question_Factual_Proportion_DontKnow	Question_Factual_Type	Answer_Prediction_Agent	Answer_Prediction_Agent_RT	Answer_Prediction_Correct	Answer_Prediction_Correct_RT	Answer_Self	Answer_Self_RT	Answer_Irrelevant	Answer_Irrelevant_RT	Trial_Balance	Trial_Balance_Effect	Trial_Condition	Trial_ProbableSide	Prediction_Choice	Prediction_Result	Prediction_RT	Trial_Order	Trial_Datetime
137	Computer	S210209	0.8333333333333334	2	1	1	2	0.2	1433.3333362	1066.6666688	1650.0000033	1783.3333369	Major	Good_deeds	43	You have used heroin	C1_47	0.95	Hard	I1_1	1	Christmas Day is in March	0.944444444444444	Yes	LEFT	755.0191000000268	RIGHT	736.6079000000809	LEFT	1036.9305000001532	LEFT	1053.6959999999451	10.0	0.2	Probable_Truth	RIGHT	RIGHT	4	512.070485474842	0	2021-02-09 14:25:13.700060
80	Self	S210209	0.8333333333333334	1	2	1	2	0.6	1000.000002	1150.0000023	2216.6666711000003	2350.0000047	Minor	Good_deeds	19	You have intentionally let others cut in line	C1_37	0.0	Easy	I1_44	6	Pyramid of Giza is 468 feet tall	0.0	Yes	RIGHT	1062.0914000000994	RIGHT	559.8629999999503	RIGHT	2492.298399999981	RIGHT	1728.2672999999704	10.6	0.6	Probable_Truth	LEFT	LEFT	1	538.5106000001088	1	2021-02-09 14:25:39.379841
119	Computer	S210209	0.6666666666666666	1	2	2	1	0.3	1500.000003	1150.0000023	1783.3333369	1500.000003	Minor	Wrong_doings	22	You have done something against your values	C1_45	0.0	Easy	I1_35	9	Singapore is a country	0.944444444444444	No	LEFT	944.914899999958	RIGHT	808.7914000000183	LEFT	1870.5843999998704	RIGHT	862.1696000000156	10.6	0.3	Probable_Truth	LEFT	RIGHT	6	642.7404376605924	2	2021-02-09 14:26:03.019311
42	Self	S210209	0.8333333333333334	2	1	1	2	0.5	1283.3333359	1066.6666688	1500.000003	1650.0000033	Major	Wrong_doings	45	You have participated in a scamming business	C2_45	1.0	Easy	I1_41	40	"Statue of Liberty is 151 feet tall"	0.611111111111111	Yes	RIGHT	509.7995999999512	RIGHT	745.3786999999465	LEFT	1390.9814999999526	LEFT	2975.500699999884	11.1	0.5	Probable_Truth	LEFT	LEFT	1	698.9808000000721	3	2021-02-09 14:26:27.411475
134	Computer	S210209	0.8333333333333334	1	2	2	1	0.4	1066.6666688	1350.0000027	1500.000003	2500.000005	Minor	Good_deeds	40	You have started an NGO using your savings	C2_35	0.0	Easy	I1_6	6	The current century is 21st	0.0	No	LEFT	591.1603000001833	RIGHT	1650.0397999998313	RIGHT	2735.283299999992	RIGHT	2862.8777999999784	11.1	0.4	Probable_Truth	RIGHT	RIGHT	2	974.919907629744	4	2021-02-09 14:26:55.204390
125	Computer	S210209	0.6666666666666666	2	1	2	1	0.4	1216.6666691	1066.6666688	1783.3333369	1650.0000033	Major	Wrong_doings	27	You have attended all lectures as a student	C2_34	0.0	Easy	I1_60	31	China is a part of Asia	0.0	No	LEFT	1020.396699999992	LEFT	672.5063999999747	RIGHT	1710.7690000000275	RIGHT	1126.1217000001125	11.1	0.4	Probable_Lie	RIGHT	RIGHT	1	730.5916295400234	5	2021-02-09 14:27:18.756755
49	Self	S210209	0.5	1	2	1	2	0.8	1216.6666691	1350.0000027	1783.3333369	1650.0000033	Major	Wrong_doings	10	You have queued to enter the MRT train	C1_23	0.85	Easy	I2_28	59	South East Asia is currently free from polio	0.0	Yes	RIGHT	545.3110999999353	LEFT	850.7445000000189	RIGHT	1023.933100000022	LEFT	2567.066699999941	10.3	0.8	Probable_Lie	RIGHT	LEFT	5	2697.893600000043	6	2021-02-09 14:27:45.011561
57	Self	S210209	0.5	2	1	1	2	0.7	1066.6666688	1500.000003	1783.3333369	2500.000005	Major	Good_deeds	30	You have fabricated facts about yourself	C1_58	0.95	Hard	I2_51	2	Singapore is in Africa	0.888888888888889	No	RIGHT	722.5118000001203	RIGHT	584.7249999999349	LEFT	2183.111299999837	LEFT	871.6549999999188	10.999999999999998	0.7	Probable_Truth	RIGHT	LEFT	1	1415.8078000000387	7	2021-02-09 14:28:10.211969
33	Self	S210209	0.8333333333333334	1	2	1	2	0.2	1500.000003	1350.0000027	2500.000005	1783.3333369	Major	Wrong_doings	20	You have held the elevator doors for others	C2_7	0.95	Hard	I1_54	4	There are 6 million animal species on Earth	0.888888888888889	No	RIGHT	463.112300000148	RIGHT	565.5069999997977	RIGHT	1035.5061999998725	RIGHT	1526.925399999982	11.199999999999998	0.2	Probable_Truth	RIGHT	RIGHT	4	750.8640000000923	8	2021-02-09 14:28:34.260270
128	Computer	S210209	0.8333333333333334	1	2	1	2	0.8	1350.0000027	1000.000002	2066.6666708	2350.0000047	Major	Good_deeds	35	You have been convicted in court	C1_4	1.0	Hard	I1_8	53	There are 30 hours in a day	0.0	Yes	LEFT	576.8136000001505	LEFT	755.945200000042	LEFT	1139.9063999999726	LEFT	1319.462299999941	11.199999999999998	0.8	Probable_Lie	RIGHT	LEFT	4	775.237916559438	9	2021-02-09 14:28:58.155641
77	Self	S210209	0.6666666666666666	2	1	2	1	0.6	1433.3333362	1283.3333359	2350.0000047	2350.0000047	Major	Wrong_doings	12	You have deceived a loved one	C2_29	0.1	Hard	I1_52	18	Carnivore refers to meat-eater	0.111111111111111	No	RIGHT	1642.3956000001	LEFT	551.027299999987	LEFT	1505.0653999999213	RIGHT	1811.881200000016	10.599999999999998	0.6	Probable_Lie	LEFT	LEFT	5	641.3910999999644	10	2021-02-09 14:29:24.300495
16	Self	S210209	0.6666666666666666	1	2	1	2	0.6	1000.000002	1500.000003	1650.0000033	2500.000005	Minor	Good_deeds	33	You have said thank you when you have received help	C1_38	0.15	Hard	I1_3	54	Most plants emit oxygen in the day	0.0555555555555556	No	RIGHT	599.7058000000379	LEFT	895.8989000000201	RIGHT	1549.0406000001258	RIGHT	1704.3553000000884	9.999999999999998	0.6	Probable_Lie	LEFT	LEFT	6	962.823999999955	11	2021-02-09 14:29:49.235601
127	Computer	S210209	0.6666666666666666	2	1	2	1	0.7	1350.0000027	1000.000002	2066.6666708	1500.000003	Minor	Good_deeds	34	You have organized a violent protest	C2_14	0.2	Easy	I1_14	60	Teddy Roosevelt was the youngest US President	0.888888888888889	Yes	LEFT	1013.7041000000409	RIGHT	751.9826000000194	LEFT	976.2648999999328	LEFT	2325.698999999986	9.999999999999998	0.7	Probable_Truth	LEFT	LEFT	1	843.7953247102051	12	2021-02-09 14:30:13.642941
92	Self	S210209	0.8333333333333334	2	1	2	1	0.8	1433.3333362	1433.3333362	1783.3333369	2066.6666708	Major	Good_deeds	11	You have cheated on a test	C1_24	0.2	Hard	I2_44	33	It is 20th Century now	0.777777777777778	Yes	RIGHT	691.0106000000269	RIGHT	615.4034999999567	LEFT	1247.1755999999914	LEFT	1024.8423000000455	10.8	0.8	Probable_Truth	LEFT	LEFT	1	669.095999999854	13	2021-02-09 14:30:37.179595
7	Self	S210209	0.5	1	2	2	1	0.7	1433.3333362	1500.000003	1650.0000033	1500.000003	Major	Good_deeds	13	You have cursed at your loved ones	C1_13	0.45	Easy	I1_27	8	Last day of the year is 30th December	0.0555555555555556	No	RIGHT	552.5056000001314	LEFT	1335.2715999999418	LEFT	1759.8070000001371	LEFT	2087.158400000135	10.1	0.7	Probable_Lie	LEFT	RIGHT	2	2227.4939999999788	14	2021-02-09 14:31:03.795125
22	Self	S210209	0.6666666666666666	1	2	2	1	0.1	1150.0000023	1350.0000027	1933.3333372	1783.3333369	Minor	Good_deeds	45	You have sheltered others from disasters	C2_33	0.9	Easy	I1_9	5	The first Grammy awards was held in 1959	0.666666666666667	Yes	RIGHT	527.9637000001003	RIGHT	604.2479000000185	RIGHT	2470.9450999998808	LEFT	2953.4173999998075	10.2	0.1	Probable_Truth	RIGHT	RIGHT	6	832.8764000000319	15	2021-02-09 14:31:29.979711
20	Self	S210209	0.6666666666666666	1	2	2	1	0.8	1500.000003	1000.000002	1500.000003	1650.0000033	Major	Good_deeds	8	You have made counterfeit money	C2_9	1.0	Hard	I2_5	35	It is snowing outside now	0.0	Yes	RIGHT	519.368699999859	LEFT	708.4792000000562	LEFT	1095.35249999999	LEFT	1007.580500000131	9.4	0.8	Probable_Lie	LEFT	LEFT	5	825.6139000000076	16	2021-02-09 14:31:52.362847
4	Self	S210209	0.5	1	2	2	1	0.3	1066.6666688	1350.0000027	1783.3333369	2216.6666711000003	Major	Wrong_doings	35	You have taken part in violent demonstration	C1_48	0.9	Easy	I2_56	53	Acoustic Kitty refers to cat with implants	0.888888888888889	No	RIGHT	624.206200000117	RIGHT	478.4187000000202	LEFT	1023.5622000000149	LEFT	2625.7056999997985	9.7	0.3	Probable_Truth	RIGHT	RIGHT	4	1608.076100000062	17	2021-02-09 14:32:17.714222
96	Computer	S210209	0.5	1	2	1	2	0.6	1500.000003	1066.6666688	2350.0000047	2350.0000047	Major	Good_deeds	48	You have extorted money from anyone	C2_48	0.0	Easy	I2_53	27	The Moon orbits around the Earth	0.777777777777778	No	LEFT	751.6368999999941	RIGHT	622.0986000000721	LEFT	1380.711100000099	RIGHT	1384.3125999999302	9.7	0.6	Probable_Truth	RIGHT	LEFT	1	879.4329434251182	18	2021-02-09 14:32:42.571325
117	Computer	S210209	0.6666666666666666	1	2	2	1	0.1	1350.0000027	1283.3333359	1500.000003	2500.000005	Major	Good_deeds	28	You have taken months off to volunteer	C1_22	0.0	Hard	I2_54	47	The sun rises at night	0.666666666666667	Yes	LEFT	519.7097000000213	RIGHT	980.6424999999308	LEFT	1992.335900000171	LEFT	1230.0673000002007	9.7	0.1	Probable_Lie	LEFT	LEFT	3	541.2145197799191	19	2021-02-09 14:33:07.027707
114	Computer	S210209	0.6666666666666666	1	2	1	2	0.2	1283.3333359	1500.000003	2216.6666711000003	2350.0000047	Minor	Wrong_doings	38	You have taken part in burglary	C1_28	0.85	Easy	I2_22	3	The hyoid bone is the only jointless bone	0.0	No	LEFT	423.24219999977686	RIGHT	1021.4286000000355	LEFT	1173.1069999998454	LEFT	4238.611799999944	9.7	0.2	Probable_Lie	LEFT	LEFT	4	590.3152472311601	20	2021-02-09 14:33:34.387443
90	Self	S210209	0.8333333333333334	2	1	1	2	0.5	1350.0000027	1066.6666688	2350.0000047	1933.3333372	Minor	Good_deeds	59	You have kidnapped someone	C2_59	1.0	Easy	I2_46	60	Chickens lay eggs	0.0	No	RIGHT	1307.8049999999166	LEFT	937.298300000066	LEFT	813.3017000000109	RIGHT	2144.775299999992	9.2	0.5	Probable_Lie	RIGHT	RIGHT	1	735.008500000049	21	2021-02-09 14:33:59.595473
28	Self	S210209	0.6666666666666666	2	1	2	1	0.8	1216.6666691	1433.3333362	1933.3333372	2066.6666708	Major	Wrong_doings	29	You have adopted a zero-waste lifestyle	C2_27	0.0	Hard	I1_36	41	Obama is the USA president now	1.0	Yes	RIGHT	732.6591999999437	RIGHT	1425.240600000052	LEFT	1271.7357999999876	LEFT	1412.4940000001516	10.0	0.8	Probable_Lie	RIGHT	RIGHT	2	693.5989999999492	22	2021-02-09 14:34:24.355121
46	Self	S210209	0.8333333333333334	2	1	2	1	0.8	1216.6666691	1000.000002	2216.6666711000003	2350.0000047	Minor	Good_deeds	23	You have sign up to sponsor a needy child	C1_27	0.05	Easy	I1_29	36	Cleopatra was born in Greece	0.0	No	RIGHT	768.2929999998578	RIGHT	615.9660000000713	RIGHT	2262.6474000001053	LEFT	1259.9084000000855	10.8	0.8	Probable_Lie	LEFT	LEFT	3	774.2927999997846	23	2021-02-09 14:34:49.395704
26	Self	S210209	0.6666666666666666	2	1	1	2	0.5	1000.000002	1350.0000027	1783.3333369	2216.6666711000003	Minor	Wrong_doings	14	You have faked an illness	C1_59	1.0	Easy	I2_41	38	Arabi is the oldest surviving breed of horse	0.833333333333333	Yes	RIGHT	513.0776999999398	RIGHT	775.8673000000726	RIGHT	1609.0005000000929	RIGHT	3047.115099999928	11.3	0.5	Probable_Lie	LEFT	LEFT	3	978.8825000000544	24	2021-02-09 14:35:15.251120
113	Computer	S210209	0.6666666666666666	1	2	1	2	0.4	1216.6666691	1216.6666691	1650.0000033	1933.3333372	Major	Wrong_doings	9	You have kept your promises	C2_8	1.0	Easy	I2_25	22	The human's inner ear is larger than a pencil eraser	0.0	No	LEFT	599.0768000001481	LEFT	1443.7394999999924	RIGHT	1342.2170000001188	RIGHT	4111.660000000029	11.3	0.4	Probable_Lie	RIGHT	LEFT	3	533.095723233192	25	2021-02-09 14:35:41.866109
126	Computer	S210209	0.6666666666666666	2	1	2	1	0.6	1283.3333359	1283.3333359	1650.0000033	1933.3333372	Major	Good_deeds	50	You have helped your parents when asked to	C1_14	0.8	Hard	I2_38	36	The Eiffel Tower is in Paris	0.0	No	LEFT	1710.696999999982	LEFT	1336.0600000000886	RIGHT	1271.236899999849	RIGHT	819.9161000000004	11.3	0.6	Probable_Lie	RIGHT	LEFT	6	985.799891310582	26	2021-02-09 14:36:06.707095
110	Computer	S210209	0.5	2	1	2	1	0.7	1350.0000027	1500.000003	1650.0000033	1500.000003	Minor	Good_deeds	9	You have coveted things that belong to others	C2_39	1.0	Hard	I1_45	45	Feijoa is a type of grape	0.0555555555555556	No	RIGHT	767.3381000001882	RIGHT	559.8320999999942	LEFT	3007.964900000161	LEFT	2205.8324000001903	12.0	0.7	Probable_Truth	RIGHT	LEFT	2	507.1326540007249	27	2021-02-09 14:36:32.315263
51	Self	S210209	0.5	1	2	1	2	0.3	1000.000002	1000.000002	1933.3333372	2350.0000047	Major	Good_deeds	34	You have engaged in drink-driving	C2_36	0.0	Hard	I1_58	10	Septicemia is a lung infection condition	0.944444444444444	Yes	RIGHT	1312.4829000000773	RIGHT	636.4811000000827	LEFT	1204.4154999998682	RIGHT	2287.9932000000736	12.3	0.3	Probable_Truth	LEFT	LEFT	2	975.61329999985	28	2021-02-09 14:36:57.586046
115	Computer	S210209	0.6666666666666666	1	2	1	2	0.6	1066.6666688	1350.0000027	2350.0000047	1650.0000033	Major	Wrong_doings	46	You have watched a pirated movie	C2_46	0.05	Hard	I1_47	25	Milwaukee Art Museum is located in California	0.944444444444444	Yes	LEFT	535.9211999998479	LEFT	1119.4592000001649	LEFT	3256.336400000009	RIGHT	2150.9830999998485	12.3	0.6	Probable_Lie	LEFT	RIGHT	2	955.5575492327778	29	2021-02-09 14:37:24.587732
138	Computer	S210209	0.8333333333333334	2	1	1	2	0.8	1350.0000027	1350.0000027	2066.6666708	2216.6666711000003	Major	Wrong_doings	45	You have participated in a scamming business	C2_45	1.0	Easy	I1_41	40	"Statue of Liberty is 151 feet tall"	0.611111111111111	Yes	RIGHT	1175.5812999999762	RIGHT	895.0479999998606	LEFT	1050.6689999999708	RIGHT	2001.2223999999603	13.1	0.8	Probable_Lie	LEFT	RIGHT	1	660.7599953178928	30	2021-02-09 14:37:49.931076
56	Self	S210209	0.5	2	1	1	2	0.6	1500.000003	1066.6666688	1933.3333372	2216.6666711000003	Minor	Wrong_doings	25	You have volunteered every week for many years	C1_17	0.15	Easy	I2_35	27	It takes 112 years to build the Pisa Tower	0.722222222222222	Yes	RIGHT	571.8165999999201	RIGHT	736.9396000001416	RIGHT	2461.94330000003	LEFT	2590.879500000028	13.7	0.6	Probable_Truth	RIGHT	LEFT	3	872.2620999999435	31	2021-02-09 14:38:16.458977
38	Self	S210209	0.8333333333333334	1	2	2	1	0.8	1216.6666691	1000.000002	1783.3333369	2216.6666711000003	Minor	Good_deeds	40	You have started an NGO using your savings	C2_35	0.0	Easy	I1_6	6	The current century is 21st	0.0	No	RIGHT	384.73739999994905	RIGHT	580.4294000001846	RIGHT	3895.743899999843	RIGHT	1778.9949000000431	14.500000000000002	0.8	Probable_Lie	LEFT	LEFT	2	493.8853999999537	32	2021-02-09 14:38:42.379742
95	Self	S210209	0.8333333333333334	2	1	2	1	0.1	1500.000003	1150.0000023	1650.0000033	2500.000005	Major	Wrong_doings	24	You have returned your trays in food courts	C1_19	0.05	Easy	I2_33	57	Astatine is the rarest element in the Earth's crust	0.888888888888889	No	RIGHT	400.8966999999757	RIGHT	432.00180000008	RIGHT	1208.2772000001114	RIGHT	2899.9594999997958	14.6	0.1	Probable_Truth	RIGHT	RIGHT	2	760.5332000000544	33	2021-02-09 14:39:07.458324
62	Self	S210209	0.5	2	1	2	1	0.2	1283.3333359	1150.0000023	2066.6666708	1650.0000033	Minor	Good_deeds	39	You have eaten something in the MRT train	C2_58	0.85	Easy	I2_27	51	Summer is hotter than winter	0.0	No	LEFT	1844.87409999997	LEFT	1256.3877000000048	LEFT	1445.933400000058	RIGHT	1327.1096999999372	14.6	0.2	Probable_Lie	RIGHT	RIGHT	3	1117.1421000001374	34	2021-02-09 14:39:33.177884
67	Self	S210209	0.6666666666666666	1	2	1	2	0.8	1000.000002	1150.0000023	2350.0000047	2350.0000047	Major	Good_deeds	57	You have been sued	C1_31	0.25	Hard	I2_30	17	Airbags in cars are filled with sodium azide	0.833333333333333	No	LEFT	2456.084500000088	RIGHT	3746.9959000000017	LEFT	1236.0452000002624	RIGHT	1813.0780000001323	14.6	0.8	Probable_Lie	RIGHT	RIGHT	2	610.6591999998727	35	2021-02-09 14:40:02.467562
14	Self	S210209	0.5	2	1	2	1	0.1	1433.3333362	1350.0000027	2066.6666708	2500.000005	Minor	Good_deeds	9	You have coveted things that belong to others	C2_39	1.0	Hard	I1_45	45	Feijoa is a type of grape	0.0555555555555556	No	RIGHT	531.6848999996182	LEFT	590.7379999998739	LEFT	855.8591999999408	RIGHT	1620.5236999999215	14.500000000000002	0.1	Probable_Lie	LEFT	LEFT	6	894.9220999998033	36	2021-02-09 14:40:26.890163
5	Self	S210209	0.5	1	2	2	1	0.2	1350.0000027	1066.6666688	2500.000005	2350.0000047	Major	Wrong_doings	18	You have said sorry when you were rude	C2_56	0.95	Hard	I2_34	21	The first Olympic Games was held in the 5th century B.C	0.0	No	RIGHT	320.5603000001247	RIGHT	1291.6282000001047	RIGHT	1278.9490000000114	RIGHT	1988.605400000324	14.7	0.2	Probable_Truth	LEFT	RIGHT	6	801.2742999999318	37	2021-02-09 14:40:52.410696
47	Self	S210209	0.8333333333333334	2	1	2	1	0.4	1433.3333362	1433.3333362	1933.3333372	2066.6666708	Major	Wrong_doings	1	You have confessed to your mistake	C2_23	1.0	Hard	I2_1	29	A triangle has three sides	0.0	No	RIGHT	620.1316000001498	RIGHT	504.3079000001853	RIGHT	1143.5153000002174	RIGHT	3110.838500000227	15.1	0.4	Probable_Truth	RIGHT	RIGHT	5	461.56880000035017	38	2021-02-09 14:41:17.690723
133	Computer	S210209	0.8333333333333334	1	2	2	1	0.1	1000.000002	1216.6666691	1933.3333372	1500.000003	Minor	Wrong_doings	4	You have illegally stayed in a country	C2_6	0.0	Hard	I2_40	40	Bears have the biggest eyes among mammals	0.888888888888889	Yes	LEFT	319.71059999978024	LEFT	874.8978000003262	LEFT	1063.2513999998991	LEFT	1860.209099999793	15.1	0.1	Probable_Lie	RIGHT	LEFT	5	882.7105231948551	39	2021-02-09 14:41:40.914857
75	Self	S210209	0.6666666666666666	2	1	1	2	0.8	1216.6666691	1000.000002	1933.3333372	1500.000003	Minor	Good_deeds	31	You have thrown your trash into the bin	C1_16	0.0	Hard	I1_19	48	The Seine river is 50 feet above sea level	0.944444444444444	No	RIGHT	474.45609999977023	RIGHT	551.9648999998026	RIGHT	1293.1479000003492	RIGHT	3302.355799999986	15.900000000000002	0.8	Probable_Truth	LEFT	LEFT	2	621.053800000027	40	2021-02-09 14:42:05.387678
135	Computer	S210209	0.8333333333333334	1	2	2	1	0.5	1150.0000023	1066.6666688	1650.0000033	1933.3333372	Major	Good_deeds	46	You have let a homeless man into your house	C1_46	0.65	Easy	I2_4	11	There is typically 0.6 grams of mercury in glass thermometer	0.666666666666667	No	LEFT	624.2929000000004	LEFT	450.9189999998853	RIGHT	4623.278300000038	RIGHT	1443.060599999626	15.900000000000002	0.5	Probable_Truth	LEFT	RIGHT	3	996.9715281484648	41	2021-02-09 14:42:31.898098
53	Self	S210209	0.5	1	2	2	1	0.5	1150.0000023	1150.0000023	1500.000003	2066.6666708	Minor	Wrong_doings	36	You have been arrested	C2_60	0.1	Hard	I1_11	28	French is Singapore's official language	0.0	Yes	RIGHT	264.19080000005124	RIGHT	459.8267999999735	LEFT	870.9137999999257	LEFT	1032.0071000001008	16.400000000000002	0.5	Probable_Lie	RIGHT	LEFT	4	974.1598999999042	42	2021-02-09 14:42:53.939641
13	Self	S210209	0.5	2	1	2	1	0.4	1150.0000023	1216.6666691	1650.0000033	1783.3333369	Minor	Wrong_doings	39	You have pretended to be busy to avoid a social situation	C1_9	0.0	Easy	I1_25	39	Nomophobia is the fear of being without a phone or computer	0.833333333333333	No	RIGHT	423.1884000000719	RIGHT	359.5366999998077	RIGHT	4623.528199999782	LEFT	2945.7252999995944	16.8	0.4	Probable_Truth	LEFT	RIGHT	4	1245.8231999999043	43	2021-02-09 14:43:21.914211
10	Self	S210209	0.5	2	1	1	2	0.2	1066.6666688	1433.3333362	2216.6666711000003	1500.000003	Major	Good_deeds	8	You have bought cocaine	C1_8	1.0	Hard	I1_50	50	Mozambique is the world's poorest country	0.0555555555555556	No	RIGHT	512.9296999998587	RIGHT	352.2066999998969	LEFT	710.5314000000362	LEFT	2192.6785000000564	17.0	0.2	Probable_Truth	RIGHT	LEFT	2	787.8390999999283	44	2021-02-09 14:43:45.258243
81	Self	S210209	0.8333333333333334	1	2	1	2	0.7	1150.0000023	1500.000003	2350.0000047	2216.6666711000003	Major	Wrong_doings	54	You have blackmailed others for money	C1_36	0.85	Easy	I1_13	26	February has 30 days	0.0	Yes	RIGHT	567.2829000000092	RIGHT	451.82169999998223	LEFT	2592.1540000003915	LEFT	1102.7118000001792	17.7	0.7	Probable_Truth	LEFT	LEFT	1	623.5126000001401	45	2021-02-09 14:44:10.386547
29	Self	S210209	0.6666666666666666	2	1	2	1	0.2	1350.0000027	1000.000002	2066.6666708	1500.000003	Major	Wrong_doings	27	You have attended all lectures as a student	C2_34	0.0	Easy	I1_60	31	China is a part of Asia	0.0	No	LEFT	501.5368000003946	RIGHT	1616.6281000000708	RIGHT	1647.6572000001397	RIGHT	798.2072999998309	17.7	0.2	Probable_Lie	RIGHT	RIGHT	1	747.0429999998487	46	2021-02-09 14:44:34.186358
129	Computer	S210209	0.8333333333333334	1	2	1	2	0.7	1216.6666691	1433.3333362	2500.000005	1783.3333369	Major	Wrong_doings	20	You have held the elevator doors for others	C2_7	0.95	Hard	I1_54	4	There are 6 million animal species on Earth	0.888888888888889	No	LEFT	648.8429999999425	RIGHT	1377.4422000001323	RIGHT	1216.9815000002018	RIGHT	911.9594000003416	17.7	0.7	Probable_Lie	LEFT	LEFT	2	910.7482677174446	47	2021-02-09 14:44:58.762132
105	Computer	S210209	0.5	2	1	1	2	0.3	1433.3333362	1216.6666691	1933.3333372	2350.0000047	Minor	Wrong_doings	51	You have shown your appreciation to your teachers	C2_24	0.05	Hard	I2_17	45	It takes 500 days to travel from Earth to Mars	0.0	Yes	LEFT	860.6790000003457	RIGHT	720.6028000000515	RIGHT	1393.382300000212	LEFT	3958.4742000001834	17.7	0.3	Probable_Truth	RIGHT	LEFT	3	720.0804996515963	48	2021-02-09 14:46:30.442621
35	Self	S210209	0.8333333333333334	1	2	1	2	0.4	1283.3333359	1433.3333362	1500.000003	1500.000003	Minor	Good_deeds	7	You have stolen something	C1_33	0.0	Easy	I2_11	54	Beer is an alcoholic drink	0.833333333333333	Yes	RIGHT	328.9631000002373	RIGHT	1036.3483999999517	LEFT	764.6359000000302	RIGHT	991.702499999974	18.1	0.4	Probable_Truth	LEFT	LEFT	1	602.3211000001538	49	2021-02-09 14:46:52.458655
0	Self	S210209	0.5	1	2	1	2	0.1	1500.000003	1000.000002	2066.6666708	2500.000005	Major	Good_deeds	48	You have extorted money from anyone	C2_48	0.0	Easy	I2_53	27	The Moon orbits around the Earth	0.777777777777778	No	RIGHT	528.3070000000407	RIGHT	478.33879999961937	LEFT	933.9055000000373	RIGHT	736.1561000002439	18.2	0.1	Probable_Truth	RIGHT	LEFT	3	1643.3969999998226	50	2021-02-09 14:47:16.417834
65	Self	S210209	0.6666666666666666	1	2	1	2	0.1	1350.0000027	1216.6666691	2216.6666711000003	2216.6666711000003	Minor	Wrong_doings	43	You have a non-judgmental attitude towards everyone	C2_2	0.05	Hard	I2_52	24	Fishes can swim in water	0.833333333333333	No	LEFT	584.1262000003553	LEFT	1359.5973000001322	RIGHT	1850.1505000003815	RIGHT	936.368499999844	18.2	0.1	Probable_Lie	LEFT	LEFT	5	753.8162999999258	51	2021-02-09 14:47:41.473849
2	Self	S210209	0.5	1	2	1	2	0.4	1000.000002	1283.3333359	1933.3333372	1650.0000033	Minor	Good_deeds	56	You have been physically hurt to protect others	C2_16	0.0	Easy	I1_46	34	Saturn's rings are between 30 and 300 feet thick	0.111111111111111	Yes	RIGHT	288.18820000014966	RIGHT	492.75379999971847	Time_Max_Exceeded	5000.336300000072	RIGHT	225.37999999985917	18.6	0.4	Probable_Lie	LEFT	RIGHT	2	757.524800000283	52	2021-02-09 14:48:06.674082
143	Computer	S210209	0.8333333333333334	2	1	2	1	0.4	1066.6666688	1500.000003	2350.0000047	2350.0000047	Major	Wrong_doings	1	You have confessed to your mistake	C2_23	1.0	Hard	I2_1	29	A triangle has three sides	0.0	No	RIGHT	779.4570999999451	RIGHT	455.771200000072	RIGHT	758.8660000001255	RIGHT	882.4147999998786	19.0	0.4	Probable_Truth	LEFT	LEFT	1	602.4491741072729	53	2021-02-09 14:48:29.985969
71	Self	S210209	0.6666666666666666	1	2	2	1	0.6	1150.0000023	1433.3333362	1500.000003	2066.6666708	Major	Wrong_doings	37	You have given directions to a lost tourist	C2_13	0.75	Hard	I2_12	12	Afghan Hound is the first cloned cat	0.0555555555555556	No	RIGHT	264.0114000000722	RIGHT	388.4912000003169	RIGHT	1167.5797000002603	LEFT	2193.456800000149	19.6	0.6	Probable_Lie	RIGHT	RIGHT	2	686.9117999999617	54	2021-02-09 14:48:53.410236
58	Self	S210209	0.5	2	1	1	2	0.3	1150.0000023	1216.6666691	1650.0000033	2066.6666708	Minor	Good_deeds	52	You have volunteered for a disaster-related humanitarian mission	C2_25	0.0	Hard	I2_23	35	It is night time now	0.777777777777778	Yes	RIGHT	367.4443999998402	RIGHT	368.7648000000081	RIGHT	3096.858899999916	LEFT	1015.8120999999484	19.9	0.3	Probable_Truth	LEFT	RIGHT	4	831.2077999999019	55	2021-02-09 14:49:17.746179
131	Computer	S210209	0.8333333333333334	1	2	1	2	0.6	1283.3333359	1500.000003	2350.0000047	2066.6666708	Minor	Good_deeds	7	You have stolen something	C1_33	0.0	Easy	I2_11	54	Beer is an alcoholic drink	0.833333333333333	Yes	LEFT	423.3788999999888	RIGHT	691.8457000001581	LEFT	767.8939999996146	RIGHT	712.4537999998211	19.9	0.6	Probable_Lie	LEFT	LEFT	4	713.786184894858	56	2021-02-09 14:49:40.825385
73	Self	S210209	0.6666666666666666	2	1	1	2	0.1	1350.0000027	1350.0000027	2066.6666708	2216.6666711000003	Minor	Good_deeds	16	You have borrowed things and never returned	C1_12	0.95	Easy	I2_49	49	December is the last month of the year	0.666666666666667	No	RIGHT	451.26129999971454	RIGHT	392.4200000001292	LEFT	1918.920899999648	RIGHT	1104.822199999944	20.0	0.1	Probable_Lie	LEFT	LEFT	5	510.46880000012607	57	2021-02-09 14:50:04.762672
66	Self	S210209	0.6666666666666666	1	2	1	2	0.7	1283.3333359	1500.000003	1650.0000033	1650.0000033	Minor	Good_deeds	2	You have violated a traffic law	C1_7	0.95	Hard	I1_24	31	Singapore is a poor country	0.888888888888889	No	RIGHT	478.6961999998312	RIGHT	358.6675000001378	RIGHT	2127.579500000138	LEFT	815.9028999998554	20.7	0.7	Probable_Truth	RIGHT	RIGHT	3	797.5492999999005	58	2021-02-09 14:50:28.002861
132	Computer	S210209	0.8333333333333334	1	2	2	1	0.2	1433.3333362	1150.0000023	2216.6666711000003	1650.0000033	Minor	Wrong_doings	33	You have cursed at others	C1_20	0.0	Hard	I1_53	42	Singapore has four seasons	0.0	No	LEFT	328.4342000001743	RIGHT	525.1957000000402	RIGHT	1848.174100000051	LEFT	974.7575000001234	20.7	0.2	Probable_Truth	RIGHT	LEFT	1	733.229724240045	59	2021-02-09 14:50:51.434086
34	Self	S210209	0.8333333333333334	1	2	1	2	0.3	1000.000002	1066.6666688	1650.0000033	2500.000005	Major	Wrong_doings	6	You have offered a listening ear to a friend	C2_40	0.85	Easy	I2_42	8	There are 6000 spoken languages in the World	0.0	Yes	RIGHT	281.0029000002032	RIGHT	351.9290000003821	RIGHT	957.1780999999646	LEFT	1839.116600000125	21.0	0.3	Probable_Truth	LEFT	LEFT	1	801.4533000000483	60	2021-02-09 14:51:14.458211
17	Self	S210209	0.6666666666666666	1	2	1	2	0.7	1066.6666688	1150.0000023	2216.6666711000003	2066.6666708	Major	Wrong_doings	9	You have kept your promises	C2_8	1.0	Easy	I2_25	22	The human's inner ear is larger than a pencil eraser	0.0	No	RIGHT	1305.1777000000584	LEFT	873.5708000003797	RIGHT	1254.4332000002214	RIGHT	1224.0953999998965	20.3	0.7	Probable_Lie	RIGHT	RIGHT	1	528.1284000002415	61	2021-02-09 14:51:38.713466
54	Self	S210209	0.5	1	2	2	1	0.7	1433.3333362	1500.000003	2350.0000047	2216.6666711000003	Major	Good_deeds	53	You have failed to keep promises	C1_53	1.0	Hard	I2_50	11	Today is a weekday	0.944444444444444	No	RIGHT	520.4917000000933	RIGHT	595.2447999998185	LEFT	2879.086599999937	RIGHT	923.3385000002272	21.0	0.7	Probable_Truth	RIGHT	LEFT	2	1101.2495999998464	62	2021-02-09 14:52:04.802198
116	Computer	S210209	0.6666666666666666	1	2	2	1	0.5	1000.000002	1000.000002	2066.6666708	2066.6666708	Major	Good_deeds	8	You have made counterfeit money	C2_9	1.0	Hard	I2_5	35	It is snowing outside now	0.0	Yes	LEFT	368.2946999997512	RIGHT	563.4380999999848	LEFT	1111.51880000034	LEFT	856.0698999999659	21.0	0.5	Probable_Lie	LEFT	LEFT	4	581.348771756833	63	2021-02-09 14:52:26.985777
52	Self	S210209	0.5	1	2	2	1	0.4	1500.000003	1283.3333359	2066.6666708	1783.3333369	Minor	Good_deeds	23	You have been donating all your excess food to a food bank	C2_10	0.95	Easy	I2_43	58	R. Amundsen discovered the South Pole	0.0	Yes	RIGHT	335.26800000026924	RIGHT	453.10810000000856	RIGHT	3303.917800000363	LEFT	2433.1082999997307	21.4	0.4	Probable_Truth	RIGHT	RIGHT	4	866.6345000001456	64	2021-02-09 14:52:53.586168
106	Computer	S210209	0.5	2	1	1	2	0.5	1500.000003	1283.3333359	2500.000005	2500.000005	Major	Good_deeds	8	You have bought cocaine	C1_8	1.0	Hard	I1_50	50	Mozambique is the world's poorest country	0.0555555555555556	No	LEFT	1231.4194999999015	LEFT	208.0389000002469	LEFT	781.2983999997414	LEFT	1727.64799999959	21.4	0.5	Probable_Lie	LEFT	LEFT	4	598.0620705722387	65	2021-02-09 14:53:18.488821
87	Self	S210209	0.8333333333333334	1	2	2	1	0.5	1283.3333359	1433.3333362	1650.0000033	2066.6666708	Minor	Wrong_doings	3	You have drunk alcohol when you were underage	C1_3	0.0	Easy	I1_43	13	Polish is 20th most spoken language in the World	0.166666666666667	No	RIGHT	608.8054000001648	RIGHT	583.8865000000624	LEFT	1000.0215000000026	RIGHT	2701.6671000001224	21.9	0.5	Probable_Truth	LEFT	LEFT	1	1317.3748000003798	66	2021-02-09 14:53:43.705173
121	Computer	S210209	0.6666666666666666	2	1	1	2	0.3	1433.3333362	1216.6666691	2500.000005	1783.3333369	Minor	Good_deeds	40	You have assisted in a crime	C1_40	0.05	Hard	I2_2	2	Nanyang Technological University is in Australia	0.0	No	LEFT	639.4481000002088	RIGHT	256.51179999977103	LEFT	1099.6126000000004	LEFT	1335.8954000000267	21.9	0.3	Probable_Lie	LEFT	LEFT	3	579.8859444622549	67	2021-02-09 14:54:07.121340
12	Self	S210209	0.5	2	1	2	1	0.3	1000.000002	1500.000003	1933.3333372	1933.3333372	Minor	Good_deeds	24	You have helped with household chores	C1_51	0.05	Easy	I2_39	3	Marijuana is legal in Singapore	0.944444444444444	Yes	RIGHT	627.6130000001103	RIGHT	224.7393999996348	RIGHT	1654.6644999998534	LEFT	1500.8356999996977	22.2	0.3	Probable_Lie	RIGHT	RIGHT	1	1017.4075999998422	68	2021-02-09 14:54:31.090115
70	Self	S210209	0.6666666666666666	1	2	2	1	0.4	1500.000003	1350.0000027	2066.6666708	2500.000005	Major	Good_deeds	5	You have held the door open for a stranger	C1_57	0.2	Easy	I1_37	52	Penguin can fly with their wings	0.666666666666667	Yes	RIGHT	558.0806000002667	LEFT	749.85340000012	RIGHT	934.3830000002528	LEFT	1021.7602999996416	21.8	0.4	Probable_Lie	RIGHT	RIGHT	1	733.4595999996054	69	2021-02-09 14:54:55.082151
82	Self	S210209	0.8333333333333334	1	2	1	2	0.1	1433.3333362	1350.0000027	1783.3333369	1783.3333369	Major	Good_deeds	42	You have donated blood every 6 months for many years	C2_54	1.0	Easy	I2_26	13	The hardest bone in human body is the jawbone	1.0	No	RIGHT	497.4511000000348	RIGHT	586.5098999997826	LEFT	4442.276199999924	LEFT	2287.905799999862	21.9	0.1	Probable_Truth	LEFT	LEFT	1	759.3050999998923	70	2021-02-09 14:55:22.577546
100	Computer	S210209	0.5	1	2	2	1	0.1	1000.000002	1500.000003	1783.3333369	2216.6666711000003	Major	Wrong_doings	35	You have taken part in violent demonstration	C1_48	0.9	Easy	I2_56	53	Acoustic Kitty refers to cat with implants	0.888888888888889	No	LEFT	358.91240000000835	LEFT	834.2288000003464	LEFT	1013.8523999999052	LEFT	1386.9125000001077	21.9	0.1	Probable_Lie	LEFT	RIGHT	2	784.2598049422504	71	2021-02-09 14:55:46.026753
101	Computer	S210209	0.5	1	2	2	1	0.2	1066.6666688	1433.3333362	2500.000005	2066.6666708	Major	Wrong_doings	18	You have said sorry when you were rude	C2_56	0.95	Hard	I2_34	21	The first Olympic Games was held in the 5th century B.C	0.0	No	LEFT	385.3732999996282	LEFT	1573.9819999998872	RIGHT	887.905900000078	RIGHT	1205.0642999997765	21.9	0.2	Probable_Lie	RIGHT	LEFT	6	982.7030747993992	72	2021-02-09 14:56:10.697653
86	Self	S210209	0.8333333333333334	1	2	2	1	0.4	1216.6666691	1283.3333359	2066.6666708	1933.3333372	Minor	Good_deeds	37	You have given way to the handicapped	C2_19	0.1	Hard	I2_13	44	A dog has four legs	0.888888888888889	Yes	RIGHT	552.4626999999782	RIGHT	1294.5107000000462	RIGHT	759.4519999997829	RIGHT	1053.2094000000145	22.3	0.4	Probable_Lie	LEFT	LEFT	4	817.5712000002022	73	2021-02-09 14:56:34.249328
107	Computer	S210209	0.5	2	1	1	2	0.4	1283.3333359	1150.0000023	2066.6666708	1783.3333369	Major	Wrong_doings	57	You have started a hotline for victims of bully	C1_44	0.0	Easy	I2_3	25	Malay is one of the races in Singapore	0.722222222222222	Yes	LEFT	738.1406999998035	LEFT	272.510499999953	LEFT	2706.648100000166	RIGHT	1383.7281000000985	22.3	0.4	Probable_Lie	LEFT	LEFT	5	814.8507617970351	74	2021-02-09 14:56:59.018019
139	Computer	S210209	0.8333333333333334	2	1	1	2	0.7	1216.6666691	1150.0000023	2500.000005	2500.000005	Minor	Good_deeds	47	You have followed instructions	C1_1	0.05	Hard	I2_58	58	Today is Sunday	0.722222222222222	Yes	RIGHT	451.2947999996868	RIGHT	424.27649999990535	RIGHT	1470.759000000271	LEFT	856.2387000001763	23.0	0.7	Probable_Lie	LEFT	LEFT	5	751.7560898683909	75	2021-02-09 14:57:22.906399
15	Self	S210209	0.5	2	1	2	1	0.7	1350.0000027	1000.000002	2500.000005	1650.0000033	Major	Good_deeds	44	You have engaged in underage smoking	C2_20	0.7	Easy	I1_26	26	It sometimes snows in Singapore	0.777777777777778	Yes	RIGHT	835.5650000003152	RIGHT	161.02090000003955	LEFT	990.0849999999082	LEFT	1439.3809000002875	23.7	0.7	Probable_Lie	RIGHT	LEFT	5	825.4736999997476	76	2021-02-09 14:57:46.233540
83	Self	S210209	0.8333333333333334	1	2	1	2	0.2	1066.6666688	1066.6666688	1933.3333372	1650.0000033	Major	Good_deeds	30	You have started a movement to support a cause	C2_42	0.55	Hard	I1_23	23	Cernan was the second last man to walk on the Moon	0.944444444444444	Yes	RIGHT	246.89159999979893	RIGHT	541.838000000098	RIGHT	1608.1844000000274	LEFT	2583.8353999997707	23.9	0.2	Probable_Lie	LEFT	LEFT	4	788.6152999999467	77	2021-02-09 14:58:10.290397
9	Self	S210209	0.5	2	1	1	2	0.8	1283.3333359	1150.0000023	1500.000003	2216.6666711000003	Minor	Wrong_doings	51	You have shown your appreciation to your teachers	C2_24	0.05	Hard	I2_17	45	It takes 500 days to travel from Earth to Mars	0.0	Yes	RIGHT	372.6064000002225	RIGHT	263.28879999982746	RIGHT	762.0695000000524	LEFT	2118.8348000000587	24.7	0.8	Probable_Truth	LEFT	RIGHT	5	769.545300000118	78	2021-02-09 14:58:33.297076
122	Computer	S210209	0.6666666666666666	2	1	1	2	0.1	1066.6666688	1500.000003	2350.0000047	2500.000005	Minor	Wrong_doings	14	You have faked an illness	C1_59	1.0	Easy	I2_41	38	Arabi is the oldest surviving breed of horse	0.833333333333333	Yes	LEFT	549.6719000002486	LEFT	232.06310000023225	LEFT	1824.2003000000293	RIGHT	1126.1991000001217	24.7	0.1	Probable_Lie	LEFT	RIGHT	1	808.8336236604262	79	2021-02-09 14:58:57.808886
118	Computer	S210209	0.6666666666666666	1	2	2	1	0.7	1433.3333362	1066.6666688	1933.3333372	1783.3333369	Minor	Good_deeds	45	You have sheltered others from disasters	C2_33	0.9	Easy	I1_9	5	The first Grammy awards was held in 1959	0.666666666666667	Yes	RIGHT	201.2432000001354	RIGHT	437.2588999999607	RIGHT	1438.6781999996856	RIGHT	1307.901099999981	25.4	0.7	Probable_Truth	RIGHT	RIGHT	5	945.4487159132452	80	2021-02-09 14:59:20.929143
31	Self	S210209	0.6666666666666666	2	1	2	1	0.7	1433.3333362	1500.000003	2500.000005	1933.3333372	Minor	Good_deeds	34	You have organized a violent protest	C2_14	0.2	Easy	I1_14	60	Teddy Roosevelt was the youngest US President	0.888888888888889	Yes	RIGHT	1116.7725999998763	LEFT	351.3800999999148	LEFT	736.1897000000681	RIGHT	1069.890100000066	24.7	0.7	Probable_Lie	LEFT	LEFT	6	975.6244999998672	81	2021-02-09 14:59:45.114634
61	Self	S210209	0.5	2	1	2	1	0.8	1433.3333362	1433.3333362	2500.000005	2350.0000047	Major	Wrong_doings	17	You have taken responsibility for your actions	C2_30	0.5	Easy	I1_42	4	The Earth turns the closest to the sun in May	1.0	Yes	RIGHT	762.4919999998383	RIGHT	208.3680000000641	RIGHT	1104.1559000000234	RIGHT	3008.6295999999493	25.5	0.8	Probable_Lie	LEFT	RIGHT	2	743.0969000001824	82	2021-02-09 15:00:11.233171
79	Self	S210209	0.6666666666666666	2	1	2	1	0.3	1066.6666688	1066.6666688	1650.0000033	2500.000005	Major	Wrong_doings	3	You have bribed a police officer	C2_38	0.8	Easy	I2_48	52	Fibers in oranges can be used to make fabric	0.0555555555555556	No	RIGHT	392.251700000088	RIGHT	336.09260000002905	LEFT	1112.5247999998464	LEFT	4003.910999999789	25.8	0.3	Probable_Truth	RIGHT	RIGHT	4	485.6869999998708	83	2021-02-09 15:00:36.426644
44	Self	S210209	0.8333333333333334	2	1	2	1	0.6	1000.000002	1216.6666691	1650.0000033	2216.6666711000003	Minor	Good_deeds	1	You have rescued others from a catastrophe	C2_47	0.65	Hard	I2_21	1	Animals are living things	0.0	Yes	RIGHT	815.6190999998216	RIGHT	633.1377999999859	LEFT	1591.524699999809	RIGHT	690.1426999997966	26.4	0.6	Probable_Truth	LEFT	LEFT	1	643.1919999999991	84	2021-02-09 15:00:59.449340
109	Computer	S210209	0.5	2	1	2	1	0.2	1066.6666688	1000.000002	2216.6666711000003	2216.6666711000003	Minor	Wrong_doings	39	You have pretended to be busy to avoid a social situation	C1_9	0.0	Easy	I1_25	39	Nomophobia is the fear of being without a phone or computer	0.833333333333333	No	LEFT	813.3984999999484	LEFT	272.31849999998303	RIGHT	1190.7142000000022	LEFT	1850.18910000008	26.4	0.2	Probable_Lie	RIGHT	RIGHT	1	729.0717866245259	85	2021-02-09 15:01:23.385065
48	Self	S210209	0.5	1	2	1	2	0.2	1350.0000027	1066.6666688	1650.0000033	1500.000003	Major	Good_deeds	6	You have given up your seat in the MRT	C2_28	0.0	Hard	I2_59	32	Statute of Liberty is in New York	1.0	No	RIGHT	736.5921000000526	LEFT	832.1035999997548	RIGHT	862.7407999997558	RIGHT	1496.5946000002075	26.200000000000003	0.2	Probable_Lie	LEFT	LEFT	4	1221.9198000002507	86	2021-02-09 15:01:46.673085
27	Self	S210209	0.6666666666666666	2	1	1	2	0.6	1066.6666688	1283.3333359	2350.0000047	2500.000005	Minor	Good_deeds	14	You have helped others to pick up their belongings	C2_50	0.9	Hard	I1_15	15	Mexico's National Day is September 16	0.0	Yes	RIGHT	419.8125999996592	RIGHT	264.2566999998053	RIGHT	933.9420999999676	LEFT	2264.4187000000784	26.800000000000004	0.6	Probable_Truth	RIGHT	RIGHT	3	529.8597999999402	87	2021-02-09 15:02:10.857120
103	Computer	S210209	0.5	1	2	2	1	0.3	1150.0000023	1350.0000027	1500.000003	2500.000005	Major	Good_deeds	13	You have cursed at your loved ones	C1_13	0.45	Easy	I1_27	8	Last day of the year is 30th December	0.0555555555555556	No	LEFT	128.33420000015394	LEFT	734.1670999999224	LEFT	1119.992199999615	LEFT	1525.0199000001885	26.800000000000004	0.3	Probable_Lie	LEFT	LEFT	4	783.1647753067656	88	2021-02-09 15:02:34.217214
32	Self	S210209	0.8333333333333334	1	2	1	2	0.1	1350.0000027	1150.0000023	2066.6666708	1933.3333372	Major	Good_deeds	35	You have been convicted in court	C1_4	1.0	Hard	I1_8	53	There are 30 hours in a day	0.0	Yes	RIGHT	295.5725000001621	RIGHT	443.75380000019504	LEFT	996.5119000003142	LEFT	967.5756000001456	26.90000000000001	0.1	Probable_Truth	RIGHT	RIGHT	5	563.5812999998961	89	2021-02-09 15:02:56.561404
69	Self	S210209	0.6666666666666666	1	2	2	1	0.2	1216.6666691	1283.3333359	1783.3333369	1500.000003	Minor	Wrong_doings	31	You have cheated on a national exam	C2_43	0.0	Easy	I1_17	37	Dutch is the 6th Europe's most widely spoken language	0.0555555555555556	Yes	RIGHT	113.4566000000632	RIGHT	479.0400000001682	LEFT	992.3702999999476	RIGHT	2142.262400000164	27.100000000000005	0.2	Probable_Lie	LEFT	LEFT	4	474.98029999997016	90	2021-02-09 15:03:19.121011
123	Computer	S210209	0.6666666666666666	2	1	1	2	0.2	1500.000003	1433.3333362	1500.000003	2216.6666711000003	Minor	Good_deeds	14	You have helped others to pick up their belongings	C2_50	0.9	Hard	I1_15	15	Mexico's National Day is September 16	0.0	Yes	LEFT	766.8519999997443	RIGHT	368.2587000002968	RIGHT	769.9258000002374	LEFT	895.4868000000715	27.100000000000005	0.2	Probable_Truth	RIGHT	LEFT	2	628.4682852545411	91	2021-02-09 15:03:41.769210
1	Self	S210209	0.5	1	2	1	2	0.6	1216.6666691	1150.0000023	2216.6666711000003	1933.3333372	Minor	Good_deeds	48	You have switched off appliances when not in use	C1_15	0.05	Hard	I1_21	56	Some owl species hunt fish	0.833333333333333	Yes	RIGHT	199.9206000000413	RIGHT	337.7056000003904	RIGHT	1822.221900000386	RIGHT	2248.664100000042	27.700000000000006	0.6	Probable_Truth	RIGHT	RIGHT	4	770.0409999997646	92	2021-02-09 15:04:06.234446
37	Self	S210209	0.8333333333333334	1	2	2	1	0.7	1150.0000023	1500.000003	1933.3333372	2066.6666708	Minor	Wrong_doings	4	You have illegally stayed in a country	C2_6	0.0	Hard	I2_40	40	Bears have the biggest eyes among mammals	0.888888888888889	Yes	RIGHT	129.23360000013415	RIGHT	530.7599999996455	LEFT	759.7860999999284	LEFT	1102.76070000009	28.40000000000001	0.7	Probable_Truth	RIGHT	RIGHT	3	442.0620000000781	93	2021-02-09 15:04:28.417254
78	Self	S210209	0.6666666666666666	2	1	2	1	0.5	1283.3333359	1150.0000023	2216.6666711000003	1933.3333372	Major	Wrong_doings	50	You have complimented others for good work	C1_50	0.45	Easy	I2_24	48	Hot chocolate was created by the Mayan culture	0.888888888888889	Yes	RIGHT	616.8618000001516	RIGHT	416.6547999998329	RIGHT	920.7517999998344	RIGHT	1229.896199999985	28.90000000000001	0.5	Probable_Lie	RIGHT	RIGHT	2	644.4720999998026	94	2021-02-09 15:04:51.401768
24	Self	S210209	0.6666666666666666	2	1	1	2	0.3	1283.3333359	1150.0000023	2216.6666711000003	2350.0000047	Major	Wrong_doings	59	You have told someone's secret to others	C1_29	1.0	Easy	I2_31	14	Slavery was abolished in Cuba in 1886	1.0	No	RIGHT	576.6318000000865	RIGHT	359.53749999998763	LEFT	1795.5720999998448	RIGHT	3119.624699999804	29.200000000000006	0.3	Probable_Truth	LEFT	LEFT	1	674.8867000001155	95	2021-02-09 15:05:17.496880
43	Self	S210209	0.8333333333333334	2	1	1	2	0.3	1066.6666688	1150.0000023	2500.000005	1500.000003	Minor	Good_deeds	47	You have followed instructions	C1_1	0.05	Hard	I2_58	58	Today is Sunday	0.722222222222222	Yes	RIGHT	387.43780000004335	RIGHT	105.00839999986056	RIGHT	814.8993999998311	LEFT	607.405899999776	29.500000000000007	0.3	Probable_Lie	RIGHT	RIGHT	1	486.4376999998967	96	2021-02-09 15:06:31.768843
3	Self	S210209	0.5	1	2	1	2	0.5	1150.0000023	1216.6666691	1500.000003	1783.3333369	Minor	Wrong_doings	16	You have lost everything just to help others	C1_35	0.7	Hard	I2_8	33	The Earth is round	0.0555555555555556	Yes	RIGHT	200.3383000001122	RIGHT	364.8965000002136	RIGHT	3210.9763000003118	RIGHT	647.439200000008	30.000000000000007	0.5	Probable_Truth	LEFT	RIGHT	5	731.3239000000067	97	2021-02-09 15:06:55.145293
104	Computer	S210209	0.5	2	1	1	2	0.1	1216.6666691	1066.6666688	1500.000003	1650.0000033	Major	Wrong_doings	20	You have risked your life to save another person's life	C2_57	0.95	Hard	I2_45	17	Brazil is in South America	0.0	No	LEFT	1444.378300000153	RIGHT	440.37539999999353	LEFT	2172.9260000001887	RIGHT	736.776600000212	30.000000000000007	0.1	Probable_Truth	RIGHT	LEFT	2	926.194175735086	98	2021-02-09 15:07:18.881588
99	Computer	S210209	0.5	1	2	1	2	0.8	1350.0000027	1216.6666691	2066.6666708	1650.0000033	Minor	Wrong_doings	16	You have lost everything just to help others	C1_35	0.7	Hard	I2_8	33	The Earth is round	0.0555555555555556	Yes	RIGHT	223.45309999991517	RIGHT	657.1109999999862	LEFT	2125.736599999982	RIGHT	1184.525599999688	30.800000000000008	0.8	Probable_Lie	LEFT	LEFT	6	759.7874049301429	99	2021-02-09 15:07:42.689370
111	Computer	S210209	0.5	2	1	2	1	0.6	1000.000002	1433.3333362	2350.0000047	2066.6666708	Major	Good_deeds	44	You have engaged in underage smoking	C2_20	0.7	Easy	I1_26	26	It sometimes snows in Singapore	0.777777777777778	Yes	LEFT	682.9517000001033	LEFT	153.4143000003496	LEFT	743.316699999923	LEFT	824.898999999732	30.800000000000008	0.6	Probable_Lie	LEFT	RIGHT	1	557.7595002831297	100	2021-02-09 15:08:05.056895
19	Self	S210209	0.6666666666666666	1	2	1	2	0.5	1216.6666691	1433.3333362	2350.0000047	1933.3333372	Major	Wrong_doings	46	You have watched a pirated movie	C2_46	0.05	Hard	I1_47	25	Milwaukee Art Museum is located in California	0.944444444444444	Yes	RIGHT	239.69579999993584	RIGHT	523.6578000003647	LEFT	1068.0522000002384	RIGHT	1221.973899999739	31.300000000000008	0.5	Probable_Truth	LEFT	LEFT	1	637.1035000001939	101	2021-02-09 15:08:28.255871
108	Computer	S210209	0.5	2	1	2	1	0.8	1150.0000023	1350.0000027	1783.3333369	1933.3333372	Minor	Good_deeds	24	You have helped with household chores	C1_51	0.05	Easy	I2_39	3	Marijuana is legal in Singapore	0.944444444444444	Yes	LEFT	486.019099999794	LEFT	120.54580000040004	RIGHT	1200.23829999991	LEFT	924.1845999999896	31.300000000000008	0.8	Probable_Lie	LEFT	LEFT	4	843.0981800048858	102	2021-02-09 15:08:50.617468
30	Self	S210209	0.6666666666666666	2	1	2	1	0.1	1500.000003	1066.6666688	1500.000003	1650.0000033	Major	Good_deeds	50	You have helped your parents when asked to	C1_14	0.8	Hard	I2_38	36	The Eiffel Tower is in Paris	0.0	No	RIGHT	325.5698999996639	RIGHT	72.93690000005881	RIGHT	806.745200000023	RIGHT	1231.3441999999668	31.40000000000001	0.1	Probable_Lie	LEFT	LEFT	3	619.2816999996467	103	2021-02-09 15:09:11.960235
98	Computer	S210209	0.5	1	2	1	2	0.7	1283.3333359	1283.3333359	1933.3333372	1500.000003	Minor	Good_deeds	56	You have been physically hurt to protect others	C2_16	0.0	Easy	I1_46	34	Saturn's rings are between 30 and 300 feet thick	0.111111111111111	Yes	RIGHT	63.97999999990134	RIGHT	614.9056999997811	LEFT	2903.079499999876	RIGHT	1407.8024000000369	32.10000000000001	0.7	Probable_Truth	LEFT	LEFT	2	834.4910772690721	104	2021-02-09 15:09:36.344669
88	Self	S210209	0.8333333333333334	2	1	1	2	0.7	1283.3333359	1216.6666691	1500.000003	2350.0000047	Minor	Good_deeds	42	You have provided shelter for stray animals	C1_42	0.7	Easy	I1_12	38	The Amazon forest covers an area of 1 billion acres	0.0	Yes	RIGHT	349.6848999998292	RIGHT	95.55540000019391	RIGHT	1740.0344000002406	LEFT	2031.160600000021	32.80000000000001	0.7	Probable_Truth	RIGHT	RIGHT	5	592.7627999999459	105	2021-02-09 15:10:00.072146
18	Self	S210209	0.6666666666666666	1	2	1	2	0.3	1433.3333362	1066.6666688	2066.6666708	2350.0000047	Minor	Wrong_doings	38	You have taken part in burglary	C1_28	0.85	Easy	I2_22	3	The hyoid bone is the only jointless bone	0.0	No	LEFT	119.8074999997516	LEFT	1014.350099999774	LEFT	1467.4048000001676	RIGHT	1199.246900000162	32.80000000000001	0.3	Probable_Lie	RIGHT	RIGHT	2	737.3736999998073	106	2021-02-09 15:10:24.097228
112	Computer	S210209	0.6666666666666666	1	2	1	2	0.8	1150.0000023	1433.3333362	2500.000005	2216.6666711000003	Minor	Good_deeds	33	You have said thank you when you have received help	C1_38	0.15	Hard	I1_3	54	Most plants emit oxygen in the day	0.0555555555555556	No	LEFT	88.50369999981922	LEFT	536.798699999963	RIGHT	907.6379999996788	RIGHT	750.7719999998699	32.80000000000001	0.8	Probable_Lie	RIGHT	RIGHT	1	873.9311387192008	107	2021-02-09 15:10:47.112009
6	Self	S210209	0.5	1	2	2	1	0.8	1283.3333359	1433.3333362	2350.0000047	2066.6666708	Minor	Wrong_doings	15	You have downloaded pirated movies	C2_18	0.7	Hard	I1_33	46	There are 10 continents in the World	0.722222222222222	Yes	RIGHT	423.6597999997685	RIGHT	339.48089999967124	LEFT	752.5038999997378	LEFT	1349.9053000000458	33.60000000000001	0.8	Probable_Lie	RIGHT	RIGHT	2	1656.3403000000108	108	2021-02-09 15:11:11.335967
120	Computer	S210209	0.6666666666666666	2	1	1	2	0.5	1150.0000023	1150.0000023	1933.3333372	2350.0000047	Major	Wrong_doings	59	You have told someone's secret to others	C1_29	1.0	Easy	I2_31	14	Slavery was abolished in Cuba in 1886	1.0	No	RIGHT	862.1684999998251	RIGHT	207.52429999993183	LEFT	965.5123999996248	RIGHT	926.9656000001304	34.10000000000001	0.5	Probable_Truth	LEFT	LEFT	2	937.4934724493902	109	2021-02-09 15:11:34.376233
72	Self	S210209	0.6666666666666666	2	1	1	2	0.4	1000.000002	1216.6666691	1783.3333369	2066.6666708	Major	Good_deeds	29	You have been restricting your electricity consumption	C2_3	0.65	Hard	I1_5	24	There are 9 rings in the Olympic flag	0.0	Yes	RIGHT	282.5760000000628	RIGHT	177.4175999998988	RIGHT	2191.8289000000186	LEFT	1392.356899999868	34.50000000000001	0.4	Probable_Truth	LEFT	LEFT	2	451.9186000002264	110	2021-02-09 15:11:57.504829
94	Self	S210209	0.8333333333333334	2	1	2	1	0.4	1000.000002	1283.3333359	2066.6666708	1650.0000033	Major	Wrong_doings	49	You have used a fake name online	C2_53	0.0	Easy	I1_57	46	Vegetarians can eat vegetable products	0.0555555555555556	Yes	RIGHT	285.8740000001489	RIGHT	191.75749999976688	LEFT	1047.5568000001658	RIGHT	2567.2225999996954	34.900000000000006	0.4	Probable_Lie	LEFT	LEFT	5	677.0417999996425	111	2021-02-09 15:12:20.848738
141	Computer	S210209	0.8333333333333334	2	1	2	1	0.1	1283.3333359	1000.000002	1933.3333372	1933.3333372	Minor	Wrong_doings	47	You have lied to your parents	C2_1	0.0	Easy	I1_40	41	Africa is the continent with the least rainfall	0.0	No	LEFT	361.2422999999581	LEFT	153.31640000022162	LEFT	1295.8166999997047	RIGHT	2829.9510000001646	34.900000000000006	0.1	Probable_Lie	LEFT	RIGHT	1	961.3545362198164	112	2021-02-09 15:12:45.176739
8	Self	S210209	0.5	2	1	1	2	0.5	1500.000003	1283.3333359	2350.0000047	2350.0000047	Major	Wrong_doings	20	You have risked your life to save another person's life	C2_57	0.95	Hard	I2_45	17	Brazil is in South America	0.0	No	RIGHT	236.3141000000724	RIGHT	105.58399999990796	LEFT	1610.587900000155	RIGHT	896.6486999997869	35.400000000000006	0.5	Probable_Lie	RIGHT	RIGHT	1	785.4630000001634	113	2021-02-09 15:13:08.865492
63	Self	S210209	0.5	2	1	2	1	0.1	1000.000002	1000.000002	2216.6666711000003	1783.3333369	Major	Wrong_doings	58	You have sold illegal drugs	C1_39	0.05	Easy	I1_39	42	Beef comes from cows	0.0	No	LEFT	473.0395999999928	LEFT	928.716500000064	LEFT	632.988800000021	RIGHT	1099.014400000215	35.400000000000006	0.1	Probable_Lie	LEFT	LEFT	5	858.2120000000941	114	2021-02-09 15:13:31.424289
93	Self	S210209	0.8333333333333334	2	1	2	1	0.3	1150.0000023	1000.000002	2216.6666711000003	2216.6666711000003	Major	Good_deeds	26	You have bought cigarettes for a minor	C2_11	0.0	Hard	I1_28	44	Singapore ranked 8th in World's smallest countries	0.833333333333333	Yes	RIGHT	255.70280000010823	RIGHT	144.89629999980025	LEFT	884.1201000000183	RIGHT	2320.5895000000965	35.7	0.3	Probable_Truth	LEFT	LEFT	1	557.3325999998815	115	2021-02-09 15:13:54.743802
97	Computer	S210209	0.5	1	2	1	2	0.4	1433.3333362	1000.000002	2216.6666711000003	1783.3333369	Minor	Good_deeds	48	You have switched off appliances when not in use	C1_15	0.05	Hard	I1_21	56	Some owl species hunt fish	0.833333333333333	Yes	LEFT	128.10679999984131	LEFT	373.5400000005029	RIGHT	1153.1310000000303	RIGHT	1175.5348999995476	35.7	0.4	Probable_Lie	LEFT	RIGHT	1	892.0116112582955	116	2021-02-09 15:14:17.472584
21	Self	S210209	0.6666666666666666	1	2	2	1	0.4	1283.3333359	1283.3333359	1783.3333369	2216.6666711000003	Major	Good_deeds	28	You have taken months off to volunteer	C1_22	0.0	Hard	I2_54	47	The sun rises at night	0.666666666666667	Yes	RIGHT	128.400600000532	RIGHT	256.27780000013445	RIGHT	1671.4277999999467	LEFT	1027.9796000004353	36.1	0.4	Probable_Lie	RIGHT	RIGHT	1	734.0576000005967	117	2021-02-09 15:14:40.425589
89	Self	S210209	0.8333333333333334	2	1	1	2	0.2	1216.6666691	1350.0000027	2500.000005	1783.3333369	Minor	Wrong_doings	19	You have stopped using plastics completely	C1_49	0.65	Hard	I1_38	28	There are 20 bones in the human skull	0.0	No	RIGHT	661.1522000002878	LEFT	80.85940000000846	RIGHT	2585.140299999693	LEFT	1520.6036999998105	35.9	0.2	Probable_Lie	RIGHT	RIGHT	1	651.1878999999681	118	2021-02-09 15:15:05.344005
36	Self	S210209	0.8333333333333334	1	2	2	1	0.5	1066.6666688	1283.3333359	2216.6666711000003	2350.0000047	Minor	Wrong_doings	33	You have cursed at others	C1_20	0.0	Hard	I1_53	42	Singapore has four seasons	0.0	No	RIGHT	167.9751000001488	RIGHT	431.331499999942	LEFT	2135.2141999996093	LEFT	905.0462999994124	36.4	0.5	Probable_Lie	RIGHT	RIGHT	1	728.0329999994137	119	2021-02-09 15:15:29.207872
59	Self	S210209	0.5	2	1	1	2	0.4	1350.0000027	1350.0000027	1500.000003	1500.000003	Major	Good_deeds	11	You have bribed someone to improve a grade	C1_11	0.85	Hard	I1_2	39	A caterpillar has more muscle than a human	0.0	Yes	RIGHT	797.3395999997592	RIGHT	566.1239000000933	LEFT	1886.5737999994965	LEFT	2208.2946000000447	36.8	0.4	Probable_Truth	RIGHT	LEFT	3	957.9026999999768	120	2021-02-09 15:15:53.896704
40	Self	S210209	0.8333333333333334	2	1	1	2	0.7	1150.0000023	1283.3333359	2350.0000047	1783.3333369	Major	Wrong_doings	27	You have watched an M18 movie when you were underage	C1_43	0.0	Easy	I2_36	21	Mageirocophobia is a fear of deathly disease	0.888888888888889	No	RIGHT	298.62260000027163	RIGHT	168.8613999995141	LEFT	2028.5588999995523	RIGHT	1646.4812000003803	37.5	0.7	Probable_Lie	RIGHT	RIGHT	1	915.3269999997063	121	2021-02-09 15:16:18.088024
76	Self	S210209	0.6666666666666666	2	1	2	1	0.7	1150.0000023	1500.000003	2500.000005	1650.0000033	Minor	Good_deeds	38	You have stopped using products tested on animals	C1_60	0.0	Hard	I2_18	19	The Franco-Prussian War occurred in the 19th century	0.611111111111111	Yes	LEFT	909.8859000005176	RIGHT	208.34279999962743	RIGHT	1902.293099999952	RIGHT	3161.30449999946	37.5	0.7	Probable_Lie	LEFT	LEFT	6	753.788899999563	122	2021-02-09 15:16:44.391903
124	Computer	S210209	0.6666666666666666	2	1	2	1	0.8	1000.000002	1350.0000027	2216.6666711000003	2066.6666708	Major	Wrong_doings	29	You have adopted a zero-waste lifestyle	C2_27	0.0	Hard	I1_36	41	Obama is the USA president now	1.0	Yes	RIGHT	722.9040000001987	RIGHT	88.90690000043833	RIGHT	1638.4525000003125	LEFT	1053.766999999425	38.3	0.8	Probable_Truth	LEFT	LEFT	1	760.9044887975222	123	2021-02-09 15:17:07.864037
55	Self	S210209	0.5	1	2	2	1	0.6	1283.3333359	1216.6666691	2500.000005	1933.3333372	Minor	Wrong_doings	28	You have made someone cry	C1_6	0.95	Easy	I1_10	50	Algeria is Africa's second largest country	0.0	No	RIGHT	136.6585000005216	RIGHT	347.73220000079164	LEFT	1479.8154000000068	RIGHT	2508.5567999994964	38.9	0.6	Probable_Truth	RIGHT	LEFT	2	770.4174000000421	124	2021-02-09 15:17:32.616046
25	Self	S210209	0.6666666666666666	2	1	1	2	0.4	1150.0000023	1216.6666691	1650.0000033	1783.3333369	Minor	Good_deeds	40	You have assisted in a crime	C1_40	0.05	Hard	I2_2	2	Nanyang Technological University is in Australia	0.0	No	RIGHT	694.5515999996132	RIGHT	8.048900000176218	LEFT	768.3635999992475	RIGHT	735.5173999994804	39.3	0.4	Probable_Lie	RIGHT	RIGHT	2	667.2150999993391	125	2021-02-09 15:17:53.864616
84	Self	S210209	0.8333333333333334	1	2	2	1	0.8	1350.0000027	1216.6666691	1500.000003	1500.000003	Major	Wrong_doings	17	You have engaged in arson	C1_30	0.0	Hard	I2_55	55	Kangaroos live in Africa	0.611111111111111	No	RIGHT	296.91469999943365	RIGHT	451.6755000004196	LEFT	1247.9026999999403	LEFT	2285.731199999645	40.1	0.8	Probable_Truth	LEFT	LEFT	1	635.4034999994838	126	2021-02-09 15:18:16.919874
41	Self	S210209	0.8333333333333334	2	1	1	2	0.1	1350.0000027	1500.000003	2066.6666708	1933.3333372	Major	Good_deeds	43	You have used heroin	C1_47	0.95	Hard	I1_1	1	Christmas Day is in March	0.944444444444444	Yes	RIGHT	502.83609999951295	RIGHT	89.39310000005207	LEFT	755.7496999997966	LEFT	912.5241000001552	40.2	0.1	Probable_Truth	RIGHT	RIGHT	6	626.9751999998334	127	2021-02-09 15:18:39.223973
140	Computer	S210209	0.8333333333333334	2	1	2	1	0.3	1500.000003	1433.3333362	1500.000003	2066.6666708	Minor	Good_deeds	1	You have rescued others from a catastrophe	C2_47	0.65	Hard	I2_21	1	Animals are living things	0.0	Yes	LEFT	589.8611000002347	LEFT	2.6419999994686805	LEFT	1223.1954000008045	RIGHT	1246.1117999991984	40.2	0.3	Probable_Lie	LEFT	RIGHT	1	674.4606999225823	128	2021-02-09 15:19:02.016275
74	Self	S210209	0.6666666666666666	2	1	1	2	0.2	1500.000003	1433.3333362	1500.000003	1783.3333369	Minor	Wrong_doings	60	You have engaged in money laundering	C2_31	1.0	Easy	I1_48	5	Cheese is an Asian staple	0.0	Yes	RIGHT	859.6833000001425	LEFT	72.79400000061287	LEFT	1203.5074999994322	LEFT	1568.7346000004254	39.99999999999999	0.2	Probable_Lie	RIGHT	RIGHT	1	707.7337000000625	129	2021-02-09 15:19:25.216993
11	Self	S210209	0.5	2	1	1	2	0.6	1216.6666691	1066.6666688	1783.3333369	2066.6666708	Major	Wrong_doings	57	You have started a hotline for victims of bully	C1_44	0.0	Easy	I2_3	25	Malay is one of the races in Singapore	0.722222222222222	Yes	RIGHT	1224.3142999996053	LEFT	88.24920000006387	LEFT	1246.7507000001206	RIGHT	815.9001999993052	39.39999999999999	0.6	Probable_Lie	RIGHT	RIGHT	1	1959.8071999998865	130	2021-02-09 15:19:49.256375
136	Computer	S210209	0.8333333333333334	2	1	1	2	0.5	1000.000002	1283.3333359	1783.3333369	1650.0000033	Major	Wrong_doings	27	You have watched an M18 movie when you were underage	C1_43	0.0	Easy	I2_36	21	Mageirocophobia is a fear of deathly disease	0.888888888888889	No	LEFT	825.3479999993942	LEFT	128.5394999995333	LEFT	824.6580000004542	RIGHT	1471.5129999995042	39.39999999999999	0.5	Probable_Lie	RIGHT	RIGHT	1	694.8559922506983	131	2021-02-09 15:20:11.490161
68	Self	S210209	0.6666666666666666	1	2	2	1	0.5	1066.6666688	1066.6666688	1933.3333372	1933.3333372	Major	Wrong_doings	7	You have gossiped about your best friend	C2_37	1.0	Easy	I2_16	30	Earth's atmosphere extends up to 10,000km into space	0.0	Yes	RIGHT	745.4497999997329	LEFT	836.5001000001939	LEFT	982.1185000000696	RIGHT	1573.7590999997335	38.89999999999999	0.5	Probable_Lie	RIGHT	RIGHT	1	509.1230000007272	132	2021-02-09 15:20:34.704461
85	Self	S210209	0.8333333333333334	1	2	2	1	0.3	1500.000003	1000.000002	2500.000005	2500.000005	Minor	Wrong_doings	36	You have claimed doing things that you never did	C2_17	0.55	Hard	I2_6	43	Red is a color	0.0	No	RIGHT	359.07920000045124	RIGHT	444.0344999993613	LEFT	1774.5760999996492	RIGHT	653.426899999431	39.19999999999999	0.3	Probable_Truth	LEFT	LEFT	1	814.5187000000078	133	2021-02-09 15:20:58.824103
50	Self	S210209	0.5	1	2	1	2	0.1	1066.6666688	1433.3333362	2216.6666711000003	2500.000005	Minor	Wrong_doings	60	You have signed up as a bone marrow donor	C1_34	0.05	Easy	I1_32	43	A square has 3 corners	0.777777777777778	No	RIGHT	281.1087000000043	RIGHT	415.4828999999154	RIGHT	2319.063699999788	LEFT	951.8138000003092	39.29999999999999	0.1	Probable_Truth	RIGHT	RIGHT	5	701.3317000000825	134	2021-02-09 15:21:23.279914
60	Self	S210209	0.5	2	1	2	1	0.5	1216.6666691	1283.3333359	2350.0000047	1933.3333372	Minor	Wrong_doings	58	You have sorted your trash into recycling bin	C2_52	0.0	Hard	I1_4	23	Lehman Brothers went bankrupt on 20th September	0.0	No	RIGHT	410.8428000008644	RIGHT	160.5995999998413	RIGHT	1920.4466999999568	RIGHT	2581.3717999999426	39.79999999999999	0.5	Probable_Truth	LEFT	RIGHT	4	606.6887999995743	135	2021-02-09 15:21:48.312606
23	Self	S210209	0.6666666666666666	1	2	2	1	0.2	1350.0000027	1216.6666691	2500.000005	1500.000003	Minor	Wrong_doings	22	You have done something against your values	C1_45	0.0	Easy	I1_35	9	Singapore is a country	0.944444444444444	No	RIGHT	72.96129999940604	RIGHT	419.1413999997167	LEFT	887.7973999997266	RIGHT	741.356800000176	39.99999999999999	0.2	Probable_Lie	RIGHT	RIGHT	2	605.7472000002235	136	2021-02-09 15:22:10.174779
45	Self	S210209	0.8333333333333334	2	1	2	1	0.2	1500.000003	1350.0000027	1783.3333369	2500.000005	Minor	Wrong_doings	47	You have lied to your parents	C2_1	0.0	Easy	I1_40	41	Africa is the continent with the least rainfall	0.0	No	RIGHT	289.0313999996579	RIGHT	112.79319999994186	LEFT	1184.439900000143	RIGHT	967.3467000002348	40.2	0.2	Probable_Truth	LEFT	LEFT	1	589.0721999994639	137	2021-02-09 15:22:33.016067
102	Computer	S210209	0.5	1	2	2	1	0.5	1216.6666691	1150.0000023	1650.0000033	1933.3333372	Minor	Wrong_doings	15	You have downloaded pirated movies	C2_18	0.7	Hard	I1_33	46	There are 10 continents in the World	0.722222222222222	Yes	LEFT	111.47320000054606	RIGHT	561.5614999996978	LEFT	912.7109999999448	LEFT	1013.6494000007588	40.2	0.5	Probable_Truth	LEFT	RIGHT	6	509.7184745791703	138	2021-02-09 15:22:54.647870
142	Computer	S210209	0.8333333333333334	2	1	2	1	0.6	1150.0000023	1216.6666691	2216.6666711000003	1500.000003	Minor	Good_deeds	23	You have sign up to sponsor a needy child	C1_27	0.05	Easy	I1_29	36	Cleopatra was born in Greece	0.0	No	LEFT	550.3582000001188	LEFT	40.441699999973935	RIGHT	1053.956300000209	LEFT	871.6136000002734	40.2	0.6	Probable_Lie	RIGHT	LEFT	2	740.6957673589766	139	2021-02-09 15:23:16.544163
64	Self	S210209	0.6666666666666666	1	2	1	2	0.3	1433.3333362	1000.000002	2500.000005	1783.3333369	Minor	Good_deeds	13	You have donated a pay cheque to charity	C1_5	0.55	Easy	I1_31	16	There are 7 days in a week	0.0	Yes	RIGHT	592.2364999996717	RIGHT	380.8847999998761	RIGHT	1211.1650999995618	RIGHT	793.0800000003728	40.49999999999999	0.3	Probable_Truth	RIGHT	RIGHT	4	620.3281999996761	140	2021-02-09 15:23:39.424763
39	Self	S210209	0.8333333333333334	1	2	2	1	0.6	1433.3333362	1216.6666691	2350.0000047	1650.0000033	Major	Good_deeds	46	You have let a homeless man into your house	C1_46	0.65	Easy	I2_4	11	There is typically 0.6 grams of mercury in glass thermometer	0.666666666666667	No	RIGHT	47.72959999991144	RIGHT	683.4810000000289	RIGHT	1072.2956999998132	RIGHT	1038.4641000000556	41.1	0.6	Probable_Lie	RIGHT	RIGHT	1	539.2048999992767	141	2021-02-09 15:24:02.031190
91	Self	S210209	0.8333333333333334	2	1	1	2	0.6	1066.6666688	1500.000003	1933.3333372	1500.000003	Minor	Wrong_doings	53	You have helped a friend in need	C2_26	1.0	Hard	I2_60	12	North Korea is more developed than South Korea	0.764705882352941	No	RIGHT	508.5886999995637	RIGHT	216.50289999979577	RIGHT	940.9016000008704	LEFT	2015.9195999995063	41.7	0.6	Probable_Truth	RIGHT	RIGHT	5	806.0267999999269	142	2021-02-09 15:24:25.088114
130	Computer	S210209	0.8333333333333334	1	2	1	2	0.3	1500.000003	1283.3333359	1783.3333369	2216.6666711000003	Major	Wrong_doings	6	You have offered a listening ear to a friend	C2_40	0.85	Easy	I2_42	8	There are 6000 spoken languages in the World	0.0	Yes	LEFT	200.29989999966347	LEFT	646.5104999997493	RIGHT	1023.9115000003948	RIGHT	1368.239999999787	41.7	0.3	Probable_Lie	RIGHT	LEFT	5	883.9191694162826	143	2021-02-09 15:24:48.560574
