Participant	Task	Stimulus_Side	Response	RT	ITI	Previous_Response	Previous_RT	Trial_Onset	Trial_End	Trial_Order	Duration	Conflict	Cue_Response	Cue_Response_RT	Stop_Signal	Stop_Signal_RT
S200303	Conflict_Resolution	RIGHT	RIGHT	530.053400000043	850.0000017	n/a	n/a	2020-03-03 14:00:17.436003	2020-03-03 14:00:18.174473	1	6.45157828333333	False	n/a	n/a	n/a	n/a
S200303	Conflict_Resolution	RIGHT	RIGHT	388.506200000052	650.0000013	n/a	n/a	2020-03-03 14:00:18.841906	2020-03-03 14:00:19.438637	2	6.45157828333333	False	n/a	n/a	n/a	n/a
S200303	Conflict_Resolution	RIGHT	RIGHT	864.432399999941	733.3333348	n/a	n/a	2020-03-03 14:00:20.189845	2020-03-03 14:00:21.262545	3	6.45157828333333	True	n/a	n/a	n/a	n/a
S200303	Conflict_Resolution	LEFT	LEFT	465.296800000033	866.6666684	n/a	n/a	2020-03-03 14:00:22.149130	2020-03-03 14:00:22.822618	4	6.45157828333333	False	n/a	n/a	n/a	n/a
S200303	Conflict_Resolution	RIGHT	RIGHT	441.166400000043	1083.3333355	n/a	n/a	2020-03-03 14:00:23.924711	2020-03-03 14:00:24.573426	5	6.45157828333333	False	n/a	n/a	n/a	n/a
S200303	Conflict_Resolution	RIGHT	RIGHT	650.399900000025	683.3333347	n/a	n/a	2020-03-03 14:00:25.275422	2020-03-03 14:00:26.133211	6	6.45157828333333	True	n/a	n/a	n/a	n/a
S200303	Conflict_Resolution	RIGHT	RIGHT	445.940700000051	1416.6666695	n/a	n/a	2020-03-03 14:00:27.568172	2020-03-03 14:00:28.221478	7	6.45157828333333	False	n/a	n/a	n/a	n/a
S200303	Conflict_Resolution	RIGHT	RIGHT	373.840299999983	600.0000012	n/a	n/a	2020-03-03 14:00:28.840448	2020-03-03 14:00:29.422758	8	6.45157828333333	False	n/a	n/a	n/a	n/a
S200303	Conflict_Resolution	RIGHT	RIGHT	352.794500000073	1100.0000022	n/a	n/a	2020-03-03 14:00:30.541215	2020-03-03 14:00:31.102944	9	6.45157828333333	False	n/a	n/a	n/a	n/a
S200303	Conflict_Resolution	LEFT	LEFT	402.805700000044	633.3333346	n/a	n/a	2020-03-03 14:00:31.755051	2020-03-03 14:00:32.365407	10	6.45157828333333	False	n/a	n/a	n/a	n/a
S200303	Conflict_Resolution	LEFT	LEFT	415.48059999991	950.0000019	n/a	n/a	2020-03-03 14:00:33.334444	2020-03-03 14:00:33.957062	11	6.45157828333333	False	n/a	n/a	n/a	n/a
S200303	Conflict_Resolution	RIGHT	RIGHT	570.036500000015	1333.333336	n/a	n/a	2020-03-03 14:00:35.307699	2020-03-03 14:00:36.086331	12	6.45157828333333	True	n/a	n/a	n/a	n/a
S200303	Conflict_Resolution	LEFT	LEFT	399.754700000017	916.6666685	n/a	n/a	2020-03-03 14:00:37.021882	2020-03-03 14:00:37.629202	13	6.45157828333333	False	n/a	n/a	n/a	n/a
S200303	Conflict_Resolution	RIGHT	RIGHT	407.81729999992	1150.0000023	n/a	n/a	2020-03-03 14:00:38.797941	2020-03-03 14:00:39.413390	14	6.45157828333333	False	n/a	n/a	n/a	n/a
S200303	Conflict_Resolution	LEFT	LEFT	452.181300000007	1400.0000028	n/a	n/a	2020-03-03 14:00:40.833890	2020-03-03 14:00:41.494695	15	6.45157828333333	False	n/a	n/a	n/a	n/a
S200303	Conflict_Resolution	LEFT	LEFT	428.756199999953	966.6666686	n/a	n/a	2020-03-03 14:00:42.481546	2020-03-03 14:00:43.118748	16	6.45157828333333	False	n/a	n/a	n/a	n/a
S200303	Conflict_Resolution	RIGHT	RIGHT	507.715500000018	1000.000002	n/a	n/a	2020-03-03 14:00:44.138781	2020-03-03 14:00:44.854553	17	6.45157828333333	True	n/a	n/a	n/a	n/a
S200303	Conflict_Resolution	RIGHT	RIGHT	402.430199999912	1050.0000021	n/a	n/a	2020-03-03 14:00:45.923987	2020-03-03 14:00:46.533601	18	6.45157828333333	False	n/a	n/a	n/a	n/a
S200303	Conflict_Resolution	LEFT	LEFT	609.652799999935	1300.0000026	n/a	n/a	2020-03-03 14:00:47.852377	2020-03-03 14:00:48.670967	19	6.45157828333333	True	n/a	n/a	n/a	n/a
S200303	Conflict_Resolution	LEFT	LEFT	379.391499999997	1416.6666695	n/a	n/a	2020-03-03 14:00:50.107039	2020-03-03 14:00:50.693429	20	6.45157828333333	False	n/a	n/a	n/a	n/a
S200303	Conflict_Resolution	LEFT	LEFT	512.179999999944	1316.6666693	n/a	n/a	2020-03-03 14:00:52.029693	2020-03-03 14:00:52.749231	21	6.45157828333333	True	n/a	n/a	n/a	n/a
S200303	Conflict_Resolution	RIGHT	RIGHT	592.035999999894	550.0000011	n/a	n/a	2020-03-03 14:00:53.318282	2020-03-03 14:00:54.118203	22	6.45157828333333	True	n/a	n/a	n/a	n/a
S200303	Conflict_Resolution	LEFT	LEFT	794.491600000015	850.0000017	n/a	n/a	2020-03-03 14:00:54.987533	2020-03-03 14:00:55.989442	23	6.45157828333333	True	n/a	n/a	n/a	n/a
S200303	Conflict_Resolution	RIGHT	RIGHT	551.982199999998	1133.3333356	n/a	n/a	2020-03-03 14:00:57.142240	2020-03-03 14:00:57.901567	24	6.45157828333333	True	n/a	n/a	n/a	n/a
S200303	Conflict_Resolution	RIGHT	RIGHT	461.859000000004	1233.3333358	n/a	n/a	2020-03-03 14:00:59.151735	2020-03-03 14:00:59.822927	25	6.45157828333333	False	n/a	n/a	n/a	n/a
S200303	Conflict_Resolution	RIGHT	RIGHT	425.082199999906	1433.3333362	n/a	n/a	2020-03-03 14:01:01.276807	2020-03-03 14:01:01.909166	26	6.45157828333333	False	n/a	n/a	n/a	n/a
S200303	Conflict_Resolution	RIGHT	RIGHT	596.107400000051	633.3333346	n/a	n/a	2020-03-03 14:01:02.562267	2020-03-03 14:01:03.366822	27	6.45157828333333	True	n/a	n/a	n/a	n/a
S200303	Conflict_Resolution	LEFT	LEFT	442.173400000001	1450.0000029	n/a	n/a	2020-03-03 14:01:04.835557	2020-03-03 14:01:05.485711	28	6.45157828333333	False	n/a	n/a	n/a	n/a
S200303	Conflict_Resolution	LEFT	LEFT	375.411799999938	1150.0000023	n/a	n/a	2020-03-03 14:01:06.654380	2020-03-03 14:01:07.238086	29	6.45157828333333	False	n/a	n/a	n/a	n/a
S200303	Conflict_Resolution	RIGHT	RIGHT	474.214500000016	650.0000013	n/a	n/a	2020-03-03 14:01:07.907504	2020-03-03 14:01:08.590263	30	6.45157828333333	True	n/a	n/a	n/a	n/a
S200303	Conflict_Resolution	RIGHT	RIGHT	592.213099999981	1150.0000023	n/a	n/a	2020-03-03 14:01:09.758028	2020-03-03 14:01:10.558550	31	6.45157828333333	True	n/a	n/a	n/a	n/a
S200303	Conflict_Resolution	RIGHT	RIGHT	480.348699999922	700.0000014	n/a	n/a	2020-03-03 14:01:11.277277	2020-03-03 14:01:11.965147	32	6.45157828333333	True	n/a	n/a	n/a	n/a
S200303	Conflict_Resolution	RIGHT	RIGHT	481.443500000069	1083.3333355	n/a	n/a	2020-03-03 14:01:13.068818	2020-03-03 14:01:13.758436	33	6.45157828333333	True	n/a	n/a	n/a	n/a
S200303	Conflict_Resolution	RIGHT	RIGHT	542.812199999958	933.3333352	n/a	n/a	2020-03-03 14:01:14.710941	2020-03-03 14:01:15.461190	34	6.45157828333333	False	n/a	n/a	n/a	n/a
S200303	Conflict_Resolution	LEFT	LEFT	570.527900000002	683.3333347	n/a	n/a	2020-03-03 14:01:16.163269	2020-03-03 14:01:16.942938	35	6.45157828333333	True	n/a	n/a	n/a	n/a
S200303	Conflict_Resolution	LEFT	LEFT	545.917000000031	1066.6666688	n/a	n/a	2020-03-03 14:01:18.028018	2020-03-03 14:01:18.781349	36	6.45157828333333	True	n/a	n/a	n/a	n/a
S200303	Conflict_Resolution	LEFT	LEFT	735.741299999972	783.3333349	n/a	n/a	2020-03-03 14:01:19.582141	2020-03-03 14:01:20.525466	37	6.45157828333333	True	n/a	n/a	n/a	n/a
S200303	Conflict_Resolution	LEFT	LEFT	439.299899999924	1366.6666694	n/a	n/a	2020-03-03 14:01:21.911032	2020-03-03 14:01:22.558989	38	6.45157828333333	False	n/a	n/a	n/a	n/a
S200303	Conflict_Resolution	LEFT	LEFT	516.947899999991	783.3333349	n/a	n/a	2020-03-03 14:01:23.361320	2020-03-03 14:01:24.085438	39	6.45157828333333	False	n/a	n/a	n/a	n/a
S200303	Conflict_Resolution	RIGHT	RIGHT	564.783000000034	833.333335	n/a	n/a	2020-03-03 14:01:24.936918	2020-03-03 14:01:25.709422	40	6.45157828333333	True	n/a	n/a	n/a	n/a
S200303	Conflict_Resolution	RIGHT	RIGHT	492.300800000066	883.3333351	n/a	n/a	2020-03-03 14:01:26.610196	2020-03-03 14:01:27.310674	41	6.45157828333333	True	n/a	n/a	n/a	n/a
S200303	Conflict_Resolution	LEFT	LEFT	411.778400000003	1200.0000024	n/a	n/a	2020-03-03 14:01:28.530072	2020-03-03 14:01:29.150913	42	6.45157828333333	False	n/a	n/a	n/a	n/a
S200303	Conflict_Resolution	RIGHT	RIGHT	499.328699999978	1416.6666695	n/a	n/a	2020-03-03 14:01:30.587145	2020-03-03 14:01:31.293260	43	6.45157828333333	True	n/a	n/a	n/a	n/a
S200303	Conflict_Resolution	LEFT	LEFT	671.081999999956	566.6666678	n/a	n/a	2020-03-03 14:01:31.878729	2020-03-03 14:01:32.757352	44	6.45157828333333	True	n/a	n/a	n/a	n/a
S200303	Conflict_Resolution	LEFT	LEFT	580.879700000082	816.6666683	n/a	n/a	2020-03-03 14:01:33.592927	2020-03-03 14:01:34.381077	45	6.45157828333333	True	n/a	n/a	n/a	n/a
S200303	Conflict_Resolution	RIGHT	RIGHT	670.223699999951	1216.6666691	n/a	n/a	2020-03-03 14:01:35.615281	2020-03-03 14:01:36.494515	46	6.45157828333333	True	n/a	n/a	n/a	n/a
S200303	Conflict_Resolution	LEFT	LEFT	572.986900000046	583.3333345	n/a	n/a	2020-03-03 14:01:37.097147	2020-03-03 14:01:37.878634	47	6.45157828333333	True	n/a	n/a	n/a	n/a
S200303	Conflict_Resolution	RIGHT	RIGHT	525.942500000042	800.0000016	n/a	n/a	2020-03-03 14:01:38.696084	2020-03-03 14:01:39.430154	48	6.45157828333333	True	n/a	n/a	n/a	n/a
S200303	Conflict_Resolution	RIGHT	RIGHT	827.208499999983	1233.3333358	n/a	n/a	2020-03-03 14:01:40.682444	2020-03-03 14:01:41.718919	49	6.45157828333333	True	n/a	n/a	n/a	n/a
S200303	Conflict_Resolution	RIGHT	RIGHT	546.925399999964	1033.3333354	n/a	n/a	2020-03-03 14:01:42.770875	2020-03-03 14:01:43.526950	50	6.45157828333333	True	n/a	n/a	n/a	n/a
S200303	Conflict_Resolution	LEFT	LEFT	558.338299999946	1150.0000023	n/a	n/a	2020-03-03 14:01:44.696283	2020-03-03 14:01:45.464017	51	6.45157828333333	True	n/a	n/a	n/a	n/a
S200303	Conflict_Resolution	LEFT	LEFT	378.241000000003	816.6666683	n/a	n/a	2020-03-03 14:01:46.299596	2020-03-03 14:01:46.885144	52	6.45157828333333	False	n/a	n/a	n/a	n/a
S200303	Conflict_Resolution	LEFT	RIGHT	463.115700000003	766.6666682	n/a	n/a	2020-03-03 14:01:47.670712	2020-03-03 14:01:48.342244	53	6.45157828333333	True	n/a	n/a	n/a	n/a
S200303	Conflict_Resolution	LEFT	LEFT	438.067199999978	1350.0000027	n/a	n/a	2020-03-03 14:01:49.712329	2020-03-03 14:01:50.358599	54	6.45157828333333	False	n/a	n/a	n/a	n/a
S200303	Conflict_Resolution	RIGHT	RIGHT	513.390200000003	1483.3333363	n/a	n/a	2020-03-03 14:01:51.861292	2020-03-03 14:01:52.581756	55	6.45157828333333	True	n/a	n/a	n/a	n/a
S200303	Conflict_Resolution	LEFT	LEFT	571.930800000018	1266.6666692	n/a	n/a	2020-03-03 14:01:53.866364	2020-03-03 14:01:54.645380	56	6.45157828333333	True	n/a	n/a	n/a	n/a
S200303	Conflict_Resolution	LEFT	LEFT	619.547699999998	683.3333347	n/a	n/a	2020-03-03 14:01:55.346135	2020-03-03 14:01:56.173908	57	6.45157828333333	False	n/a	n/a	n/a	n/a
S200303	Conflict_Resolution	RIGHT	RIGHT	477.667300000007	583.3333345	n/a	n/a	2020-03-03 14:01:56.776485	2020-03-03 14:01:57.462536	58	6.45157828333333	False	n/a	n/a	n/a	n/a
S200303	Conflict_Resolution	LEFT	LEFT	448.590699999954	1100.0000022	n/a	n/a	2020-03-03 14:01:58.581535	2020-03-03 14:01:59.237105	59	6.45157828333333	False	n/a	n/a	n/a	n/a
S200303	Conflict_Resolution	RIGHT	RIGHT	374.208599999974	783.3333349	n/a	n/a	2020-03-03 14:02:00.039691	2020-03-03 14:02:00.622739	60	6.45157828333333	False	n/a	n/a	n/a	n/a
S200303	Conflict_Resolution	LEFT	LEFT	451.092599999924	1466.6666696	n/a	n/a	2020-03-03 14:02:02.107102	2020-03-03 14:02:02.765962	61	6.45157828333333	False	n/a	n/a	n/a	n/a
S200303	Conflict_Resolution	RIGHT	RIGHT	439.462400000025	1333.333336	n/a	n/a	2020-03-03 14:02:04.118355	2020-03-03 14:02:04.765500	62	6.45157828333333	False	n/a	n/a	n/a	n/a
S200303	Conflict_Resolution	RIGHT	RIGHT	568.850099999963	1100.0000022	n/a	n/a	2020-03-03 14:02:05.885483	2020-03-03 14:02:06.662154	63	6.45157828333333	True	n/a	n/a	n/a	n/a
S200303	Conflict_Resolution	LEFT	LEFT	1120.66860000004	1100.0000022	n/a	n/a	2020-03-03 14:02:07.781502	2020-03-03 14:02:09.109516	64	6.45157828333333	True	n/a	n/a	n/a	n/a
S200303	Conflict_Resolution	LEFT	LEFT	1241.2597	666.666668	n/a	n/a	2020-03-03 14:02:09.797172	2020-03-03 14:02:11.245160	65	6.45157828333333	True	n/a	n/a	n/a	n/a
S200303	Conflict_Resolution	RIGHT	RIGHT	623.460500000078	983.3333353	n/a	n/a	2020-03-03 14:02:12.246631	2020-03-03 14:02:13.078707	66	6.45157828333333	False	n/a	n/a	n/a	n/a
S200303	Conflict_Resolution	RIGHT	RIGHT	490.193299999987	1266.6666692	n/a	n/a	2020-03-03 14:02:14.363402	2020-03-03 14:02:15.062834	67	6.45157828333333	False	n/a	n/a	n/a	n/a
S200303	Conflict_Resolution	RIGHT	RIGHT	684.365599999978	1383.3333361	n/a	n/a	2020-03-03 14:02:16.465609	2020-03-03 14:02:17.357049	68	6.45157828333333	True	n/a	n/a	n/a	n/a
S200303	Conflict_Resolution	RIGHT	RIGHT	462.378300000069	1033.3333354	n/a	n/a	2020-03-03 14:02:18.407862	2020-03-03 14:02:19.077631	69	6.45157828333333	False	n/a	n/a	n/a	n/a
S200303	Conflict_Resolution	LEFT	LEFT	418.433499999992	1066.6666688	n/a	n/a	2020-03-03 14:02:20.164121	2020-03-03 14:02:20.790955	70	6.45157828333333	False	n/a	n/a	n/a	n/a
S200303	Conflict_Resolution	LEFT	LEFT	554.024799999979	1450.0000029	n/a	n/a	2020-03-03 14:02:22.259655	2020-03-03 14:02:23.021543	71	6.45157828333333	True	n/a	n/a	n/a	n/a
S200303	Conflict_Resolution	LEFT	LEFT	570.681799999988	1266.6666692	n/a	n/a	2020-03-03 14:02:24.307821	2020-03-03 14:02:25.085409	72	6.45157828333333	False	n/a	n/a	n/a	n/a
S200303	Conflict_Resolution	LEFT	LEFT	447.018999999955	766.6666682	n/a	n/a	2020-03-03 14:02:25.871444	2020-03-03 14:02:26.525470	73	6.45157828333333	False	n/a	n/a	n/a	n/a
S200303	Conflict_Resolution	LEFT	LEFT	354.403899999966	850.0000017	n/a	n/a	2020-03-03 14:02:27.395509	2020-03-03 14:02:27.957121	74	6.45157828333333	False	n/a	n/a	n/a	n/a
S200303	Conflict_Resolution	LEFT	LEFT	550.223699999947	1000.000002	n/a	n/a	2020-03-03 14:02:28.976285	2020-03-03 14:02:29.734178	75	6.45157828333333	True	n/a	n/a	n/a	n/a
S200303	Conflict_Resolution	LEFT	LEFT	507.990699999937	1016.6666687	n/a	n/a	2020-03-03 14:02:30.769995	2020-03-03 14:02:31.485700	76	6.45157828333333	True	n/a	n/a	n/a	n/a
S200303	Conflict_Resolution	RIGHT	RIGHT	853.824900000063	983.3333353	n/a	n/a	2020-03-03 14:02:32.488594	2020-03-03 14:02:33.549997	77	6.45157828333333	True	n/a	n/a	n/a	n/a
S200303	Conflict_Resolution	LEFT	LEFT	518.410000000017	566.6666678	n/a	n/a	2020-03-03 14:02:34.135904	2020-03-03 14:02:34.862920	78	6.45157828333333	False	n/a	n/a	n/a	n/a
S200303	Conflict_Resolution	LEFT	LEFT	487.725800000021	716.6666681	n/a	n/a	2020-03-03 14:02:35.598543	2020-03-03 14:02:36.294637	79	6.45157828333333	False	n/a	n/a	n/a	n/a
S200303	Conflict_Resolution	RIGHT	RIGHT	510.869299999968	1133.3333356	n/a	n/a	2020-03-03 14:02:37.446876	2020-03-03 14:02:38.166655	80	6.45157828333333	False	n/a	n/a	n/a	n/a
S200303	Conflict_Resolution	RIGHT	RIGHT	517.716199999995	1366.6666694	n/a	n/a	2020-03-03 14:02:39.552628	2020-03-03 14:02:40.277451	81	6.45157828333333	True	n/a	n/a	n/a	n/a
S200303	Conflict_Resolution	LEFT	LEFT	426.949000000036	666.666668	n/a	n/a	2020-03-03 14:02:40.963518	2020-03-03 14:02:41.598991	82	6.45157828333333	False	n/a	n/a	n/a	n/a
S200303	Conflict_Resolution	RIGHT	RIGHT	547.344000000066	633.3333346	n/a	n/a	2020-03-03 14:02:42.250853	2020-03-03 14:02:43.005087	83	6.45157828333333	False	n/a	n/a	n/a	n/a
S200303	Conflict_Resolution	RIGHT	RIGHT	849.459400000001	1316.6666693	n/a	n/a	2020-03-03 14:02:44.340937	2020-03-03 14:02:45.398694	84	6.45157828333333	True	n/a	n/a	n/a	n/a
S200303	Conflict_Resolution	RIGHT	RIGHT	400.104399999918	700.0000014	n/a	n/a	2020-03-03 14:02:46.117774	2020-03-03 14:02:46.725765	85	6.45157828333333	False	n/a	n/a	n/a	n/a
S200303	Conflict_Resolution	LEFT	LEFT	675.411100000019	1050.0000021	n/a	n/a	2020-03-03 14:02:47.794762	2020-03-03 14:02:48.678410	86	6.45157828333333	True	n/a	n/a	n/a	n/a
S200303	Conflict_Resolution	LEFT	LEFT	767.792699999973	1116.6666689	n/a	n/a	2020-03-03 14:02:49.814243	2020-03-03 14:02:50.790625	87	6.45157828333333	True	n/a	n/a	n/a	n/a
S200303	Conflict_Resolution	RIGHT	RIGHT	674.226599999997	683.3333347	n/a	n/a	2020-03-03 14:02:51.491876	2020-03-03 14:02:52.374696	88	6.45157828333333	False	n/a	n/a	n/a	n/a
S200303	Conflict_Resolution	LEFT	LEFT	581.431099999918	1416.6666695	n/a	n/a	2020-03-03 14:02:53.808424	2020-03-03 14:02:54.598554	89	6.45157828333333	True	n/a	n/a	n/a	n/a
S200303	Conflict_Resolution	RIGHT	RIGHT	404.601399999933	550.0000011	n/a	n/a	2020-03-03 14:02:55.169034	2020-03-03 14:02:55.781443	90	6.45157828333333	False	n/a	n/a	n/a	n/a
S200303	Conflict_Resolution	LEFT	LEFT	549.841300000026	1166.666669	n/a	n/a	2020-03-03 14:02:56.968428	2020-03-03 14:02:57.725596	91	6.45157828333333	True	n/a	n/a	n/a	n/a
S200303	Conflict_Resolution	RIGHT	RIGHT	733.931600000005	1183.3333357	n/a	n/a	2020-03-03 14:02:58.928669	2020-03-03 14:02:59.870573	92	6.45157828333333	True	n/a	n/a	n/a	n/a
S200303	Conflict_Resolution	LEFT	LEFT	440.111000000002	900.0000018	n/a	n/a	2020-03-03 14:03:00.789760	2020-03-03 14:03:01.437260	93	6.45157828333333	False	n/a	n/a	n/a	n/a
S200303	Conflict_Resolution	RIGHT	RIGHT	424.059199999988	533.3333344	n/a	n/a	2020-03-03 14:03:01.989528	2020-03-03 14:03:02.621833	94	6.45157828333333	False	n/a	n/a	n/a	n/a
S200303	Conflict_Resolution	RIGHT	RIGHT	913.385500000004	500.000001	n/a	n/a	2020-03-03 14:03:03.141243	2020-03-03 14:03:04.262945	95	6.45157828333333	True	n/a	n/a	n/a	n/a
S200303	Conflict_Resolution	LEFT	LEFT	624.012099999959	733.3333348	n/a	n/a	2020-03-03 14:03:05.013553	2020-03-03 14:03:05.846526	96	6.45157828333333	True	n/a	n/a	n/a	n/a
S200303	Conflict_Resolution	LEFT	RIGHT	450.515499999938	1250.0000025	n/a	n/a	2020-03-03 14:03:07.115236	2020-03-03 14:03:07.773439	97	6.45157828333333	True	n/a	n/a	n/a	n/a
S200303	Conflict_Resolution	LEFT	LEFT	523.24729999998	1500.000003	n/a	n/a	2020-03-03 14:03:09.290504	2020-03-03 14:03:10.021186	98	6.45157828333333	False	n/a	n/a	n/a	n/a
S200303	Conflict_Resolution	RIGHT	RIGHT	796.085800000014	1466.6666696	n/a	n/a	2020-03-03 14:03:11.505752	2020-03-03 14:03:12.509923	99	6.45157828333333	True	n/a	n/a	n/a	n/a
S200303	Conflict_Resolution	RIGHT	RIGHT	439.411299999961	950.0000019	n/a	n/a	2020-03-03 14:03:13.479033	2020-03-03 14:03:14.125608	100	6.45157828333333	False	n/a	n/a	n/a	n/a
S200303	Conflict_Resolution	LEFT	LEFT	397.637700000018	583.3333345	n/a	n/a	2020-03-03 14:03:14.728496	2020-03-03 14:03:15.334026	101	6.45157828333333	False	n/a	n/a	n/a	n/a
S200303	Conflict_Resolution	RIGHT	RIGHT	558.875199999989	783.3333349	n/a	n/a	2020-03-03 14:03:16.135213	2020-03-03 14:03:16.901211	102	6.45157828333333	True	n/a	n/a	n/a	n/a
S200303	Conflict_Resolution	RIGHT	RIGHT	643.855199999962	850.0000017	n/a	n/a	2020-03-03 14:03:17.769827	2020-03-03 14:03:18.621469	103	6.45157828333333	True	n/a	n/a	n/a	n/a
S200303	Conflict_Resolution	RIGHT	RIGHT	501.547799999912	800.0000016	n/a	n/a	2020-03-03 14:03:19.440070	2020-03-03 14:03:20.149210	104	6.45157828333333	False	n/a	n/a	n/a	n/a
S200303	Conflict_Resolution	LEFT	LEFT	581.177099999991	1216.6666691	n/a	n/a	2020-03-03 14:03:21.384662	2020-03-03 14:03:22.174746	105	6.45157828333333	True	n/a	n/a	n/a	n/a
S200303	Conflict_Resolution	LEFT	LEFT	547.74789999999	616.6666679	n/a	n/a	2020-03-03 14:03:22.810559	2020-03-03 14:03:23.566970	106	6.45157828333333	False	n/a	n/a	n/a	n/a
S200303	Conflict_Resolution	RIGHT	RIGHT	543.82529999998	1316.6666693	n/a	n/a	2020-03-03 14:03:24.902635	2020-03-03 14:03:25.654128	107	6.45157828333333	False	n/a	n/a	n/a	n/a
S200303	Conflict_Resolution	LEFT	LEFT	471.228300000007	733.3333348	n/a	n/a	2020-03-03 14:03:26.407211	2020-03-03 14:03:27.086463	108	6.45157828333333	False	n/a	n/a	n/a	n/a
S200303	Conflict_Resolution	LEFT	LEFT	476.607000000058	1000.000002	n/a	n/a	2020-03-03 14:03:28.105750	2020-03-03 14:03:28.790594	109	6.45157828333333	False	n/a	n/a	n/a	n/a
S200303	Conflict_Resolution	LEFT	LEFT	475.71210000001	1216.6666691	n/a	n/a	2020-03-03 14:03:30.026496	2020-03-03 14:03:30.709225	110	6.45157828333333	False	n/a	n/a	n/a	n/a
S200303	Conflict_Resolution	LEFT	LEFT	473.269999999957	1316.6666693	n/a	n/a	2020-03-03 14:03:32.044921	2020-03-03 14:03:32.726848	111	6.45157828333333	False	n/a	n/a	n/a	n/a
S200303	Conflict_Resolution	RIGHT	RIGHT	603.064000000131	600.0000012	n/a	n/a	2020-03-03 14:03:33.346687	2020-03-03 14:03:34.157223	112	6.45157828333333	True	n/a	n/a	n/a	n/a
S200303	Conflict_Resolution	LEFT	LEFT	595.40579999998	866.6666684	n/a	n/a	2020-03-03 14:03:35.042926	2020-03-03 14:03:35.846059	113	6.45157828333333	True	n/a	n/a	n/a	n/a
S200303	Conflict_Resolution	LEFT	LEFT	596.572200000082	633.3333346	n/a	n/a	2020-03-03 14:03:36.497334	2020-03-03 14:03:37.301698	114	6.45157828333333	True	n/a	n/a	n/a	n/a
S200303	Conflict_Resolution	RIGHT	RIGHT	681.184300000041	900.0000018	n/a	n/a	2020-03-03 14:03:38.220599	2020-03-03 14:03:39.109346	115	6.45157828333333	True	n/a	n/a	n/a	n/a
S200303	Conflict_Resolution	LEFT	LEFT	657.682799999975	516.6666677	n/a	n/a	2020-03-03 14:03:39.644469	2020-03-03 14:03:40.509284	116	6.45157828333333	True	n/a	n/a	n/a	n/a
S200303	Conflict_Resolution	LEFT	LEFT	710.709399999814	1200.0000024	n/a	n/a	2020-03-03 14:03:41.727008	2020-03-03 14:03:42.646607	117	6.45157828333333	True	n/a	n/a	n/a	n/a
S200303	Conflict_Resolution	RIGHT	RIGHT	454.121399999849	1366.6666694	n/a	n/a	2020-03-03 14:03:44.031791	2020-03-03 14:03:44.694712	118	6.45157828333333	False	n/a	n/a	n/a	n/a
S200303	Conflict_Resolution	RIGHT	RIGHT	577.729200000022	1216.6666691	n/a	n/a	2020-03-03 14:03:45.932723	2020-03-03 14:03:46.717518	119	6.45157828333333	False	n/a	n/a	n/a	n/a
S200303	Conflict_Resolution	RIGHT	RIGHT	506.496299999981	1283.3333359	n/a	n/a	2020-03-03 14:03:48.019254	2020-03-03 14:03:48.733162	120	6.45157828333333	False	n/a	n/a	n/a	n/a
S200303	Conflict_Resolution	RIGHT	RIGHT	390.552699999944	1000.000002	n/a	n/a	2020-03-03 14:03:49.751141	2020-03-03 14:03:50.349355	121	6.45157828333333	False	n/a	n/a	n/a	n/a
S200303	Conflict_Resolution	RIGHT	RIGHT	396.551599999839	1466.6666696	n/a	n/a	2020-03-03 14:03:51.833301	2020-03-03 14:03:52.437240	122	6.45157828333333	False	n/a	n/a	n/a	n/a
S200303	Conflict_Resolution	LEFT	LEFT	661.027699999977	616.6666679	n/a	n/a	2020-03-03 14:03:53.072542	2020-03-03 14:03:53.941767	123	6.45157828333333	True	n/a	n/a	n/a	n/a
S200303	Conflict_Resolution	RIGHT	RIGHT	709.851099999923	750.0000015	n/a	n/a	2020-03-03 14:03:54.712250	2020-03-03 14:03:55.629997	124	6.45157828333333	False	n/a	n/a	n/a	n/a
S200303	Conflict_Resolution	RIGHT	RIGHT	985.160400000041	1050.0000021	n/a	n/a	2020-03-03 14:03:56.700749	2020-03-03 14:03:57.894891	125	6.45157828333333	True	n/a	n/a	n/a	n/a
S200303	Conflict_Resolution	LEFT	LEFT	670.189200000095	533.3333344	n/a	n/a	2020-03-03 14:03:58.447429	2020-03-03 14:03:59.326654	126	6.45157828333333	True	n/a	n/a	n/a	n/a
S200303	Conflict_Resolution	LEFT	LEFT	564.50319999999	1400.0000028	n/a	n/a	2020-03-03 14:04:00.745452	2020-03-03 14:04:01.517457	127	6.45157828333333	True	n/a	n/a	n/a	n/a
S200303	Conflict_Resolution	LEFT	LEFT	468.060700000024	1016.6666687	n/a	n/a	2020-03-03 14:04:02.553942	2020-03-03 14:04:03.229208	128	6.45157828333333	False	n/a	n/a	n/a	n/a
S200303	Conflict_Resolution	LEFT	LEFT	724.22819999997	1050.0000021	n/a	n/a	2020-03-03 14:04:04.297660	2020-03-03 14:04:05.229426	129	6.45157828333333	False	n/a	n/a	n/a	n/a
S200303	Conflict_Resolution	RIGHT	RIGHT	798.37909999992	750.0000015	n/a	n/a	2020-03-03 14:04:05.999975	2020-03-03 14:04:07.006799	130	6.45157828333333	True	n/a	n/a	n/a	n/a
S200303	Conflict_Resolution	LEFT	LEFT	551.145599999927	900.0000018	n/a	n/a	2020-03-03 14:04:07.926988	2020-03-03 14:04:08.686963	131	6.45157828333333	True	n/a	n/a	n/a	n/a
S200303	Conflict_Resolution	RIGHT	RIGHT	455.987499999992	500.000001	n/a	n/a	2020-03-03 14:04:09.205653	2020-03-03 14:04:09.869914	132	6.45157828333333	False	n/a	n/a	n/a	n/a
S200303	Conflict_Resolution	RIGHT	RIGHT	799.897099999953	533.3333344	n/a	n/a	2020-03-03 14:04:10.422543	2020-03-03 14:04:11.429424	133	6.45157828333333	True	n/a	n/a	n/a	n/a
S200303	Conflict_Resolution	LEFT	LEFT	586.127399999896	916.6666685	n/a	n/a	2020-03-03 14:04:12.363264	2020-03-03 14:04:13.158596	134	6.45157828333333	True	n/a	n/a	n/a	n/a
S200303	Conflict_Resolution	LEFT	LEFT	886.848800000053	533.3333344	n/a	n/a	2020-03-03 14:04:13.710829	2020-03-03 14:04:14.805216	135	6.45157828333333	False	n/a	n/a	n/a	n/a
S200303	Conflict_Resolution	RIGHT	RIGHT	591.613300000063	950.0000019	n/a	n/a	2020-03-03 14:04:15.774015	2020-03-03 14:04:16.573404	136	6.45157828333333	True	n/a	n/a	n/a	n/a
S200303	Conflict_Resolution	LEFT	LEFT	579.372499999863	1466.6666696	n/a	n/a	2020-03-03 14:04:18.058875	2020-03-03 14:04:18.845273	137	6.45157828333333	True	n/a	n/a	n/a	n/a
S200303	Conflict_Resolution	LEFT	LEFT	463.026200000058	1166.666669	n/a	n/a	2020-03-03 14:04:20.031119	2020-03-03 14:04:20.701992	138	6.45157828333333	False	n/a	n/a	n/a	n/a
S200303	Conflict_Resolution	LEFT	LEFT	593.37719999985	716.6666681	n/a	n/a	2020-03-03 14:04:21.436644	2020-03-03 14:04:22.237290	139	6.45157828333333	True	n/a	n/a	n/a	n/a
S200303	Conflict_Resolution	RIGHT	RIGHT	442.125799999985	883.3333351	n/a	n/a	2020-03-03 14:04:23.139527	2020-03-03 14:04:23.790343	140	6.45157828333333	False	n/a	n/a	n/a	n/a
S200303	Conflict_Resolution	LEFT	LEFT	590.123100000028	966.6666686	n/a	n/a	2020-03-03 14:04:24.775477	2020-03-03 14:04:25.574217	141	6.45157828333333	True	n/a	n/a	n/a	n/a
S200303	Conflict_Resolution	RIGHT	RIGHT	537.367399999994	1483.3333363	n/a	n/a	2020-03-03 14:04:27.076439	2020-03-03 14:04:27.822731	142	6.45157828333333	False	n/a	n/a	n/a	n/a
S200303	Conflict_Resolution	LEFT	LEFT	432.056600000124	1300.0000026	n/a	n/a	2020-03-03 14:04:29.142327	2020-03-03 14:04:29.782613	143	6.45157828333333	False	n/a	n/a	n/a	n/a
S200303	Conflict_Resolution	RIGHT	RIGHT	624.814000000015	1283.3333359	n/a	n/a	2020-03-03 14:04:31.084934	2020-03-03 14:04:31.918940	144	6.45157828333333	True	n/a	n/a	n/a	n/a
S200303	Conflict_Resolution	LEFT	LEFT	620.67849999994	1366.6666694	n/a	n/a	2020-03-03 14:04:33.305442	2020-03-03 14:04:34.133312	145	6.45157828333333	True	n/a	n/a	n/a	n/a
S200303	Conflict_Resolution	LEFT	LEFT	774.846299999808	1116.6666689	n/a	n/a	2020-03-03 14:04:35.271316	2020-03-03 14:04:36.254688	146	6.45157828333333	False	n/a	n/a	n/a	n/a
S200303	Conflict_Resolution	LEFT	LEFT	688.926199999969	516.6666677	n/a	n/a	2020-03-03 14:04:36.789378	2020-03-03 14:04:37.685202	147	6.45157828333333	False	n/a	n/a	n/a	n/a
S200303	Conflict_Resolution	LEFT	LEFT	83.2026999999016	1500.000003	n/a	n/a	2020-03-03 14:04:39.202260	2020-03-03 14:04:39.493489	148	6.45157828333333	True	n/a	n/a	n/a	n/a
S200303	Conflict_Resolution	RIGHT	RIGHT	535.788099999991	733.3333348	n/a	n/a	2020-03-03 14:04:40.246055	2020-03-03 14:04:40.990775	149	6.45157828333333	False	n/a	n/a	n/a	n/a
S200303	Conflict_Resolution	RIGHT	RIGHT	581.159599999864	583.3333345	n/a	n/a	2020-03-03 14:04:41.593160	2020-03-03 14:04:42.382741	150	6.45157828333333	True	n/a	n/a	n/a	n/a
S200303	Conflict_Resolution	RIGHT	RIGHT	609.751899999992	1433.3333362	n/a	n/a	2020-03-03 14:04:43.836002	2020-03-03 14:04:44.654858	151	6.45157828333333	True	n/a	n/a	n/a	n/a
S200303	Conflict_Resolution	RIGHT	RIGHT	733.05409999989	1383.3333361	n/a	n/a	2020-03-03 14:04:46.057348	2020-03-03 14:04:46.997586	152	6.45157828333333	False	n/a	n/a	n/a	n/a
S200303	Conflict_Resolution	LEFT	LEFT	466.971999999942	1250.0000025	n/a	n/a	2020-03-03 14:04:48.266687	2020-03-03 14:04:48.941518	153	6.45157828333333	False	n/a	n/a	n/a	n/a
S200303	Conflict_Resolution	LEFT	RIGHT	400.91510000002	950.0000019	n/a	n/a	2020-03-03 14:04:49.908551	2020-03-03 14:04:50.517530	154	6.45157828333333	True	n/a	n/a	n/a	n/a
S200303	Conflict_Resolution	RIGHT	RIGHT	505.150100000037	900.0000018	n/a	n/a	2020-03-03 14:04:51.437144	2020-03-03 14:04:52.149454	155	6.45157828333333	False	n/a	n/a	n/a	n/a
S200303	Conflict_Resolution	RIGHT	RIGHT	461.582500000077	1183.3333357	n/a	n/a	2020-03-03 14:04:53.352192	2020-03-03 14:04:54.022729	156	6.45157828333333	False	n/a	n/a	n/a	n/a
S200303	Conflict_Resolution	RIGHT	RIGHT	442.918899999995	833.333335	n/a	n/a	2020-03-03 14:04:54.875533	2020-03-03 14:04:55.525466	157	6.45157828333333	False	n/a	n/a	n/a	n/a
S200303	Conflict_Resolution	RIGHT	RIGHT	624.214100000017	933.3333352	n/a	n/a	2020-03-03 14:04:56.478001	2020-03-03 14:04:57.310140	158	6.45157828333333	True	n/a	n/a	n/a	n/a
S200303	Conflict_Resolution	RIGHT	RIGHT	633.685600000035	1266.6666692	n/a	n/a	2020-03-03 14:04:58.596656	2020-03-03 14:04:59.437065	159	6.45157828333333	True	n/a	n/a	n/a	n/a
S200303	Conflict_Resolution	LEFT	LEFT	808.368099999825	1350.0000027	n/a	n/a	2020-03-03 14:05:00.806060	2020-03-03 14:05:01.821067	160	6.45157828333333	True	n/a	n/a	n/a	n/a
