"Participant"	"Task"	"Stimulus_Side"	"Response"	"RT"	"ITI"	"Previous_Response"	"Previous_RT"	"Stop_Signal"	"Stop_Signal_RT"	"Conflict"	"Cue_Response"	"Cue_Response_RT"	"Trial_Onset"	"Trial_End"	"Trial_Order"	"Duration"
"S200303"	"Conflict_Resolution"	"RIGHT"	"RIGHT"	530.053400000043	850.0000017	n/a	n/a	n/a	n/a	"False"	n/a	n/a	"2020-03-03 14:00:17.436003"	"2020-03-03 14:00:18.174473"	1	6.45157828333333
"S200303"	"Conflict_Resolution"	"RIGHT"	"RIGHT"	388.506200000052	650.0000013	n/a	n/a	n/a	n/a	"False"	n/a	n/a	"2020-03-03 14:00:18.841906"	"2020-03-03 14:00:19.438637"	2	6.45157828333333
"S200303"	"Conflict_Resolution"	"RIGHT"	"RIGHT"	864.432399999941	733.3333348	n/a	n/a	n/a	n/a	"True"	n/a	n/a	"2020-03-03 14:00:20.189845"	"2020-03-03 14:00:21.262545"	3	6.45157828333333
"S200303"	"Conflict_Resolution"	"LEFT"	"LEFT"	465.296800000033	866.6666684	n/a	n/a	n/a	n/a	"False"	n/a	n/a	"2020-03-03 14:00:22.149130"	"2020-03-03 14:00:22.822618"	4	6.45157828333333
"S200303"	"Conflict_Resolution"	"RIGHT"	"RIGHT"	441.166400000043	1083.3333355	n/a	n/a	n/a	n/a	"False"	n/a	n/a	"2020-03-03 14:00:23.924711"	"2020-03-03 14:00:24.573426"	5	6.45157828333333
"S200303"	"Conflict_Resolution"	"RIGHT"	"RIGHT"	650.399900000025	683.3333347	n/a	n/a	n/a	n/a	"True"	n/a	n/a	"2020-03-03 14:00:25.275422"	"2020-03-03 14:00:26.133211"	6	6.45157828333333
"S200303"	"Conflict_Resolution"	"RIGHT"	"RIGHT"	445.940700000051	1416.6666695	n/a	n/a	n/a	n/a	"False"	n/a	n/a	"2020-03-03 14:00:27.568172"	"2020-03-03 14:00:28.221478"	7	6.45157828333333
"S200303"	"Conflict_Resolution"	"RIGHT"	"RIGHT"	373.840299999983	600.0000012	n/a	n/a	n/a	n/a	"False"	n/a	n/a	"2020-03-03 14:00:28.840448"	"2020-03-03 14:00:29.422758"	8	6.45157828333333
"S200303"	"Conflict_Resolution"	"RIGHT"	"RIGHT"	352.794500000073	1100.0000022	n/a	n/a	n/a	n/a	"False"	n/a	n/a	"2020-03-03 14:00:30.541215"	"2020-03-03 14:00:31.102944"	9	6.45157828333333
"S200303"	"Conflict_Resolution"	"LEFT"	"LEFT"	402.805700000044	633.3333346	n/a	n/a	n/a	n/a	"False"	n/a	n/a	"2020-03-03 14:00:31.755051"	"2020-03-03 14:00:32.365407"	10	6.45157828333333
"S200303"	"Conflict_Resolution"	"LEFT"	"LEFT"	415.48059999991	950.0000019	n/a	n/a	n/a	n/a	"False"	n/a	n/a	"2020-03-03 14:00:33.334444"	"2020-03-03 14:00:33.957062"	11	6.45157828333333
"S200303"	"Conflict_Resolution"	"RIGHT"	"RIGHT"	570.036500000015	1333.333336	n/a	n/a	n/a	n/a	"True"	n/a	n/a	"2020-03-03 14:00:35.307699"	"2020-03-03 14:00:36.086331"	12	6.45157828333333
"S200303"	"Conflict_Resolution"	"LEFT"	"LEFT"	399.754700000017	916.6666685	n/a	n/a	n/a	n/a	"False"	n/a	n/a	"2020-03-03 14:00:37.021882"	"2020-03-03 14:00:37.629202"	13	6.45157828333333
"S200303"	"Conflict_Resolution"	"RIGHT"	"RIGHT"	407.81729999992	1150.0000023	n/a	n/a	n/a	n/a	"False"	n/a	n/a	"2020-03-03 14:00:38.797941"	"2020-03-03 14:00:39.413390"	14	6.45157828333333
"S200303"	"Conflict_Resolution"	"LEFT"	"LEFT"	452.181300000007	1400.0000028	n/a	n/a	n/a	n/a	"False"	n/a	n/a	"2020-03-03 14:00:40.833890"	"2020-03-03 14:00:41.494695"	15	6.45157828333333
"S200303"	"Conflict_Resolution"	"LEFT"	"LEFT"	428.756199999953	966.6666686	n/a	n/a	n/a	n/a	"False"	n/a	n/a	"2020-03-03 14:00:42.481546"	"2020-03-03 14:00:43.118748"	16	6.45157828333333
"S200303"	"Conflict_Resolution"	"RIGHT"	"RIGHT"	507.715500000018	1000.000002	n/a	n/a	n/a	n/a	"True"	n/a	n/a	"2020-03-03 14:00:44.138781"	"2020-03-03 14:00:44.854553"	17	6.45157828333333
"S200303"	"Conflict_Resolution"	"RIGHT"	"RIGHT"	402.430199999912	1050.0000021	n/a	n/a	n/a	n/a	"False"	n/a	n/a	"2020-03-03 14:00:45.923987"	"2020-03-03 14:00:46.533601"	18	6.45157828333333
"S200303"	"Conflict_Resolution"	"LEFT"	"LEFT"	609.652799999935	1300.0000026	n/a	n/a	n/a	n/a	"True"	n/a	n/a	"2020-03-03 14:00:47.852377"	"2020-03-03 14:00:48.670967"	19	6.45157828333333
"S200303"	"Conflict_Resolution"	"LEFT"	"LEFT"	379.391499999997	1416.6666695	n/a	n/a	n/a	n/a	"False"	n/a	n/a	"2020-03-03 14:00:50.107039"	"2020-03-03 14:00:50.693429"	20	6.45157828333333
"S200303"	"Conflict_Resolution"	"LEFT"	"LEFT"	512.179999999944	1316.6666693	n/a	n/a	n/a	n/a	"True"	n/a	n/a	"2020-03-03 14:00:52.029693"	"2020-03-03 14:00:52.749231"	21	6.45157828333333
"S200303"	"Conflict_Resolution"	"RIGHT"	"RIGHT"	592.035999999894	550.0000011	n/a	n/a	n/a	n/a	"True"	n/a	n/a	"2020-03-03 14:00:53.318282"	"2020-03-03 14:00:54.118203"	22	6.45157828333333
"S200303"	"Conflict_Resolution"	"LEFT"	"LEFT"	794.491600000015	850.0000017	n/a	n/a	n/a	n/a	"True"	n/a	n/a	"2020-03-03 14:00:54.987533"	"2020-03-03 14:00:55.989442"	23	6.45157828333333
"S200303"	"Conflict_Resolution"	"RIGHT"	"RIGHT"	551.982199999998	1133.3333356	n/a	n/a	n/a	n/a	"True"	n/a	n/a	"2020-03-03 14:00:57.142240"	"2020-03-03 14:00:57.901567"	24	6.45157828333333
"S200303"	"Conflict_Resolution"	"RIGHT"	"RIGHT"	461.859000000004	1233.3333358	n/a	n/a	n/a	n/a	"False"	n/a	n/a	"2020-03-03 14:00:59.151735"	"2020-03-03 14:00:59.822927"	25	6.45157828333333
"S200303"	"Conflict_Resolution"	"RIGHT"	"RIGHT"	425.082199999906	1433.3333362	n/a	n/a	n/a	n/a	"False"	n/a	n/a	"2020-03-03 14:01:01.276807"	"2020-03-03 14:01:01.909166"	26	6.45157828333333
"S200303"	"Conflict_Resolution"	"RIGHT"	"RIGHT"	596.107400000051	633.3333346	n/a	n/a	n/a	n/a	"True"	n/a	n/a	"2020-03-03 14:01:02.562267"	"2020-03-03 14:01:03.366822"	27	6.45157828333333
"S200303"	"Conflict_Resolution"	"LEFT"	"LEFT"	442.173400000001	1450.0000029	n/a	n/a	n/a	n/a	"False"	n/a	n/a	"2020-03-03 14:01:04.835557"	"2020-03-03 14:01:05.485711"	28	6.45157828333333
"S200303"	"Conflict_Resolution"	"LEFT"	"LEFT"	375.411799999938	1150.0000023	n/a	n/a	n/a	n/a	"False"	n/a	n/a	"2020-03-03 14:01:06.654380"	"2020-03-03 14:01:07.238086"	29	6.45157828333333
"S200303"	"Conflict_Resolution"	"RIGHT"	"RIGHT"	474.214500000016	650.0000013	n/a	n/a	n/a	n/a	"True"	n/a	n/a	"2020-03-03 14:01:07.907504"	"2020-03-03 14:01:08.590263"	30	6.45157828333333
"S200303"	"Conflict_Resolution"	"RIGHT"	"RIGHT"	592.213099999981	1150.0000023	n/a	n/a	n/a	n/a	"True"	n/a	n/a	"2020-03-03 14:01:09.758028"	"2020-03-03 14:01:10.558550"	31	6.45157828333333
"S200303"	"Conflict_Resolution"	"RIGHT"	"RIGHT"	480.348699999922	700.0000014	n/a	n/a	n/a	n/a	"True"	n/a	n/a	"2020-03-03 14:01:11.277277"	"2020-03-03 14:01:11.965147"	32	6.45157828333333
"S200303"	"Conflict_Resolution"	"RIGHT"	"RIGHT"	481.443500000069	1083.3333355	n/a	n/a	n/a	n/a	"True"	n/a	n/a	"2020-03-03 14:01:13.068818"	"2020-03-03 14:01:13.758436"	33	6.45157828333333
"S200303"	"Conflict_Resolution"	"RIGHT"	"RIGHT"	542.812199999958	933.3333352	n/a	n/a	n/a	n/a	"False"	n/a	n/a	"2020-03-03 14:01:14.710941"	"2020-03-03 14:01:15.461190"	34	6.45157828333333
"S200303"	"Conflict_Resolution"	"LEFT"	"LEFT"	570.527900000002	683.3333347	n/a	n/a	n/a	n/a	"True"	n/a	n/a	"2020-03-03 14:01:16.163269"	"2020-03-03 14:01:16.942938"	35	6.45157828333333
"S200303"	"Conflict_Resolution"	"LEFT"	"LEFT"	545.917000000031	1066.6666688	n/a	n/a	n/a	n/a	"True"	n/a	n/a	"2020-03-03 14:01:18.028018"	"2020-03-03 14:01:18.781349"	36	6.45157828333333
"S200303"	"Conflict_Resolution"	"LEFT"	"LEFT"	735.741299999972	783.3333349	n/a	n/a	n/a	n/a	"True"	n/a	n/a	"2020-03-03 14:01:19.582141"	"2020-03-03 14:01:20.525466"	37	6.45157828333333
"S200303"	"Conflict_Resolution"	"LEFT"	"LEFT"	439.299899999924	1366.6666694	n/a	n/a	n/a	n/a	"False"	n/a	n/a	"2020-03-03 14:01:21.911032"	"2020-03-03 14:01:22.558989"	38	6.45157828333333
"S200303"	"Conflict_Resolution"	"LEFT"	"LEFT"	516.947899999991	783.3333349	n/a	n/a	n/a	n/a	"False"	n/a	n/a	"2020-03-03 14:01:23.361320"	"2020-03-03 14:01:24.085438"	39	6.45157828333333
"S200303"	"Conflict_Resolution"	"RIGHT"	"RIGHT"	564.783000000034	833.333335	n/a	n/a	n/a	n/a	"True"	n/a	n/a	"2020-03-03 14:01:24.936918"	"2020-03-03 14:01:25.709422"	40	6.45157828333333
"S200303"	"Conflict_Resolution"	"RIGHT"	"RIGHT"	492.300800000066	883.3333351	n/a	n/a	n/a	n/a	"True"	n/a	n/a	"2020-03-03 14:01:26.610196"	"2020-03-03 14:01:27.310674"	41	6.45157828333333
"S200303"	"Conflict_Resolution"	"LEFT"	"LEFT"	411.778400000003	1200.0000024	n/a	n/a	n/a	n/a	"False"	n/a	n/a	"2020-03-03 14:01:28.530072"	"2020-03-03 14:01:29.150913"	42	6.45157828333333
"S200303"	"Conflict_Resolution"	"RIGHT"	"RIGHT"	499.328699999978	1416.6666695	n/a	n/a	n/a	n/a	"True"	n/a	n/a	"2020-03-03 14:01:30.587145"	"2020-03-03 14:01:31.293260"	43	6.45157828333333
"S200303"	"Conflict_Resolution"	"LEFT"	"LEFT"	671.081999999956	566.6666678	n/a	n/a	n/a	n/a	"True"	n/a	n/a	"2020-03-03 14:01:31.878729"	"2020-03-03 14:01:32.757352"	44	6.45157828333333
"S200303"	"Conflict_Resolution"	"LEFT"	"LEFT"	580.879700000082	816.6666683	n/a	n/a	n/a	n/a	"True"	n/a	n/a	"2020-03-03 14:01:33.592927"	"2020-03-03 14:01:34.381077"	45	6.45157828333333
"S200303"	"Conflict_Resolution"	"RIGHT"	"RIGHT"	670.223699999951	1216.6666691	n/a	n/a	n/a	n/a	"True"	n/a	n/a	"2020-03-03 14:01:35.615281"	"2020-03-03 14:01:36.494515"	46	6.45157828333333
"S200303"	"Conflict_Resolution"	"LEFT"	"LEFT"	572.986900000046	583.3333345	n/a	n/a	n/a	n/a	"True"	n/a	n/a	"2020-03-03 14:01:37.097147"	"2020-03-03 14:01:37.878634"	47	6.45157828333333
"S200303"	"Conflict_Resolution"	"RIGHT"	"RIGHT"	525.942500000042	800.0000016	n/a	n/a	n/a	n/a	"True"	n/a	n/a	"2020-03-03 14:01:38.696084"	"2020-03-03 14:01:39.430154"	48	6.45157828333333
"S200303"	"Conflict_Resolution"	"RIGHT"	"RIGHT"	827.208499999983	1233.3333358	n/a	n/a	n/a	n/a	"True"	n/a	n/a	"2020-03-03 14:01:40.682444"	"2020-03-03 14:01:41.718919"	49	6.45157828333333
"S200303"	"Conflict_Resolution"	"RIGHT"	"RIGHT"	546.925399999964	1033.3333354	n/a	n/a	n/a	n/a	"True"	n/a	n/a	"2020-03-03 14:01:42.770875"	"2020-03-03 14:01:43.526950"	50	6.45157828333333
"S200303"	"Conflict_Resolution"	"LEFT"	"LEFT"	558.338299999946	1150.0000023	n/a	n/a	n/a	n/a	"True"	n/a	n/a	"2020-03-03 14:01:44.696283"	"2020-03-03 14:01:45.464017"	51	6.45157828333333
"S200303"	"Conflict_Resolution"	"LEFT"	"LEFT"	378.241000000003	816.6666683	n/a	n/a	n/a	n/a	"False"	n/a	n/a	"2020-03-03 14:01:46.299596"	"2020-03-03 14:01:46.885144"	52	6.45157828333333
"S200303"	"Conflict_Resolution"	"LEFT"	"RIGHT"	463.115700000003	766.6666682	n/a	n/a	n/a	n/a	"True"	n/a	n/a	"2020-03-03 14:01:47.670712"	"2020-03-03 14:01:48.342244"	53	6.45157828333333
"S200303"	"Conflict_Resolution"	"LEFT"	"LEFT"	438.067199999978	1350.0000027	n/a	n/a	n/a	n/a	"False"	n/a	n/a	"2020-03-03 14:01:49.712329"	"2020-03-03 14:01:50.358599"	54	6.45157828333333
"S200303"	"Conflict_Resolution"	"RIGHT"	"RIGHT"	513.390200000003	1483.3333363	n/a	n/a	n/a	n/a	"True"	n/a	n/a	"2020-03-03 14:01:51.861292"	"2020-03-03 14:01:52.581756"	55	6.45157828333333
"S200303"	"Conflict_Resolution"	"LEFT"	"LEFT"	571.930800000018	1266.6666692	n/a	n/a	n/a	n/a	"True"	n/a	n/a	"2020-03-03 14:01:53.866364"	"2020-03-03 14:01:54.645380"	56	6.45157828333333
"S200303"	"Conflict_Resolution"	"LEFT"	"LEFT"	619.547699999998	683.3333347	n/a	n/a	n/a	n/a	"False"	n/a	n/a	"2020-03-03 14:01:55.346135"	"2020-03-03 14:01:56.173908"	57	6.45157828333333
"S200303"	"Conflict_Resolution"	"RIGHT"	"RIGHT"	477.667300000007	583.3333345	n/a	n/a	n/a	n/a	"False"	n/a	n/a	"2020-03-03 14:01:56.776485"	"2020-03-03 14:01:57.462536"	58	6.45157828333333
"S200303"	"Conflict_Resolution"	"LEFT"	"LEFT"	448.590699999954	1100.0000022	n/a	n/a	n/a	n/a	"False"	n/a	n/a	"2020-03-03 14:01:58.581535"	"2020-03-03 14:01:59.237105"	59	6.45157828333333
"S200303"	"Conflict_Resolution"	"RIGHT"	"RIGHT"	374.208599999974	783.3333349	n/a	n/a	n/a	n/a	"False"	n/a	n/a	"2020-03-03 14:02:00.039691"	"2020-03-03 14:02:00.622739"	60	6.45157828333333
"S200303"	"Conflict_Resolution"	"LEFT"	"LEFT"	451.092599999924	1466.6666696	n/a	n/a	n/a	n/a	"False"	n/a	n/a	"2020-03-03 14:02:02.107102"	"2020-03-03 14:02:02.765962"	61	6.45157828333333
"S200303"	"Conflict_Resolution"	"RIGHT"	"RIGHT"	439.462400000025	1333.333336	n/a	n/a	n/a	n/a	"False"	n/a	n/a	"2020-03-03 14:02:04.118355"	"2020-03-03 14:02:04.765500"	62	6.45157828333333
"S200303"	"Conflict_Resolution"	"RIGHT"	"RIGHT"	568.850099999963	1100.0000022	n/a	n/a	n/a	n/a	"True"	n/a	n/a	"2020-03-03 14:02:05.885483"	"2020-03-03 14:02:06.662154"	63	6.45157828333333
"S200303"	"Conflict_Resolution"	"LEFT"	"LEFT"	1120.66860000004	1100.0000022	n/a	n/a	n/a	n/a	"True"	n/a	n/a	"2020-03-03 14:02:07.781502"	"2020-03-03 14:02:09.109516"	64	6.45157828333333
"S200303"	"Conflict_Resolution"	"LEFT"	"LEFT"	1241.2597	666.666668	n/a	n/a	n/a	n/a	"True"	n/a	n/a	"2020-03-03 14:02:09.797172"	"2020-03-03 14:02:11.245160"	65	6.45157828333333
"S200303"	"Conflict_Resolution"	"RIGHT"	"RIGHT"	623.460500000078	983.3333353	n/a	n/a	n/a	n/a	"False"	n/a	n/a	"2020-03-03 14:02:12.246631"	"2020-03-03 14:02:13.078707"	66	6.45157828333333
"S200303"	"Conflict_Resolution"	"RIGHT"	"RIGHT"	490.193299999987	1266.6666692	n/a	n/a	n/a	n/a	"False"	n/a	n/a	"2020-03-03 14:02:14.363402"	"2020-03-03 14:02:15.062834"	67	6.45157828333333
"S200303"	"Conflict_Resolution"	"RIGHT"	"RIGHT"	684.365599999978	1383.3333361	n/a	n/a	n/a	n/a	"True"	n/a	n/a	"2020-03-03 14:02:16.465609"	"2020-03-03 14:02:17.357049"	68	6.45157828333333
"S200303"	"Conflict_Resolution"	"RIGHT"	"RIGHT"	462.378300000069	1033.3333354	n/a	n/a	n/a	n/a	"False"	n/a	n/a	"2020-03-03 14:02:18.407862"	"2020-03-03 14:02:19.077631"	69	6.45157828333333
"S200303"	"Conflict_Resolution"	"LEFT"	"LEFT"	418.433499999992	1066.6666688	n/a	n/a	n/a	n/a	"False"	n/a	n/a	"2020-03-03 14:02:20.164121"	"2020-03-03 14:02:20.790955"	70	6.45157828333333
"S200303"	"Conflict_Resolution"	"LEFT"	"LEFT"	554.024799999979	1450.0000029	n/a	n/a	n/a	n/a	"True"	n/a	n/a	"2020-03-03 14:02:22.259655"	"2020-03-03 14:02:23.021543"	71	6.45157828333333
"S200303"	"Conflict_Resolution"	"LEFT"	"LEFT"	570.681799999988	1266.6666692	n/a	n/a	n/a	n/a	"False"	n/a	n/a	"2020-03-03 14:02:24.307821"	"2020-03-03 14:02:25.085409"	72	6.45157828333333
"S200303"	"Conflict_Resolution"	"LEFT"	"LEFT"	447.018999999955	766.6666682	n/a	n/a	n/a	n/a	"False"	n/a	n/a	"2020-03-03 14:02:25.871444"	"2020-03-03 14:02:26.525470"	73	6.45157828333333
"S200303"	"Conflict_Resolution"	"LEFT"	"LEFT"	354.403899999966	850.0000017	n/a	n/a	n/a	n/a	"False"	n/a	n/a	"2020-03-03 14:02:27.395509"	"2020-03-03 14:02:27.957121"	74	6.45157828333333
"S200303"	"Conflict_Resolution"	"LEFT"	"LEFT"	550.223699999947	1000.000002	n/a	n/a	n/a	n/a	"True"	n/a	n/a	"2020-03-03 14:02:28.976285"	"2020-03-03 14:02:29.734178"	75	6.45157828333333
"S200303"	"Conflict_Resolution"	"LEFT"	"LEFT"	507.990699999937	1016.6666687	n/a	n/a	n/a	n/a	"True"	n/a	n/a	"2020-03-03 14:02:30.769995"	"2020-03-03 14:02:31.485700"	76	6.45157828333333
"S200303"	"Conflict_Resolution"	"RIGHT"	"RIGHT"	853.824900000063	983.3333353	n/a	n/a	n/a	n/a	"True"	n/a	n/a	"2020-03-03 14:02:32.488594"	"2020-03-03 14:02:33.549997"	77	6.45157828333333
"S200303"	"Conflict_Resolution"	"LEFT"	"LEFT"	518.410000000017	566.6666678	n/a	n/a	n/a	n/a	"False"	n/a	n/a	"2020-03-03 14:02:34.135904"	"2020-03-03 14:02:34.862920"	78	6.45157828333333
"S200303"	"Conflict_Resolution"	"LEFT"	"LEFT"	487.725800000021	716.6666681	n/a	n/a	n/a	n/a	"False"	n/a	n/a	"2020-03-03 14:02:35.598543"	"2020-03-03 14:02:36.294637"	79	6.45157828333333
"S200303"	"Conflict_Resolution"	"RIGHT"	"RIGHT"	510.869299999968	1133.3333356	n/a	n/a	n/a	n/a	"False"	n/a	n/a	"2020-03-03 14:02:37.446876"	"2020-03-03 14:02:38.166655"	80	6.45157828333333
"S200303"	"Conflict_Resolution"	"RIGHT"	"RIGHT"	517.716199999995	1366.6666694	n/a	n/a	n/a	n/a	"True"	n/a	n/a	"2020-03-03 14:02:39.552628"	"2020-03-03 14:02:40.277451"	81	6.45157828333333
"S200303"	"Conflict_Resolution"	"LEFT"	"LEFT"	426.949000000036	666.666668	n/a	n/a	n/a	n/a	"False"	n/a	n/a	"2020-03-03 14:02:40.963518"	"2020-03-03 14:02:41.598991"	82	6.45157828333333
"S200303"	"Conflict_Resolution"	"RIGHT"	"RIGHT"	547.344000000066	633.3333346	n/a	n/a	n/a	n/a	"False"	n/a	n/a	"2020-03-03 14:02:42.250853"	"2020-03-03 14:02:43.005087"	83	6.45157828333333
"S200303"	"Conflict_Resolution"	"RIGHT"	"RIGHT"	849.459400000001	1316.6666693	n/a	n/a	n/a	n/a	"True"	n/a	n/a	"2020-03-03 14:02:44.340937"	"2020-03-03 14:02:45.398694"	84	6.45157828333333
"S200303"	"Conflict_Resolution"	"RIGHT"	"RIGHT"	400.104399999918	700.0000014	n/a	n/a	n/a	n/a	"False"	n/a	n/a	"2020-03-03 14:02:46.117774"	"2020-03-03 14:02:46.725765"	85	6.45157828333333
"S200303"	"Conflict_Resolution"	"LEFT"	"LEFT"	675.411100000019	1050.0000021	n/a	n/a	n/a	n/a	"True"	n/a	n/a	"2020-03-03 14:02:47.794762"	"2020-03-03 14:02:48.678410"	86	6.45157828333333
"S200303"	"Conflict_Resolution"	"LEFT"	"LEFT"	767.792699999973	1116.6666689	n/a	n/a	n/a	n/a	"True"	n/a	n/a	"2020-03-03 14:02:49.814243"	"2020-03-03 14:02:50.790625"	87	6.45157828333333
"S200303"	"Conflict_Resolution"	"RIGHT"	"RIGHT"	674.226599999997	683.3333347	n/a	n/a	n/a	n/a	"False"	n/a	n/a	"2020-03-03 14:02:51.491876"	"2020-03-03 14:02:52.374696"	88	6.45157828333333
"S200303"	"Conflict_Resolution"	"LEFT"	"LEFT"	581.431099999918	1416.6666695	n/a	n/a	n/a	n/a	"True"	n/a	n/a	"2020-03-03 14:02:53.808424"	"2020-03-03 14:02:54.598554"	89	6.45157828333333
"S200303"	"Conflict_Resolution"	"RIGHT"	"RIGHT"	404.601399999933	550.0000011	n/a	n/a	n/a	n/a	"False"	n/a	n/a	"2020-03-03 14:02:55.169034"	"2020-03-03 14:02:55.781443"	90	6.45157828333333
"S200303"	"Conflict_Resolution"	"LEFT"	"LEFT"	549.841300000026	1166.666669	n/a	n/a	n/a	n/a	"True"	n/a	n/a	"2020-03-03 14:02:56.968428"	"2020-03-03 14:02:57.725596"	91	6.45157828333333
"S200303"	"Conflict_Resolution"	"RIGHT"	"RIGHT"	733.931600000005	1183.3333357	n/a	n/a	n/a	n/a	"True"	n/a	n/a	"2020-03-03 14:02:58.928669"	"2020-03-03 14:02:59.870573"	92	6.45157828333333
"S200303"	"Conflict_Resolution"	"LEFT"	"LEFT"	440.111000000002	900.0000018	n/a	n/a	n/a	n/a	"False"	n/a	n/a	"2020-03-03 14:03:00.789760"	"2020-03-03 14:03:01.437260"	93	6.45157828333333
"S200303"	"Conflict_Resolution"	"RIGHT"	"RIGHT"	424.059199999988	533.3333344	n/a	n/a	n/a	n/a	"False"	n/a	n/a	"2020-03-03 14:03:01.989528"	"2020-03-03 14:03:02.621833"	94	6.45157828333333
"S200303"	"Conflict_Resolution"	"RIGHT"	"RIGHT"	913.385500000004	500.000001	n/a	n/a	n/a	n/a	"True"	n/a	n/a	"2020-03-03 14:03:03.141243"	"2020-03-03 14:03:04.262945"	95	6.45157828333333
"S200303"	"Conflict_Resolution"	"LEFT"	"LEFT"	624.012099999959	733.3333348	n/a	n/a	n/a	n/a	"True"	n/a	n/a	"2020-03-03 14:03:05.013553"	"2020-03-03 14:03:05.846526"	96	6.45157828333333
"S200303"	"Conflict_Resolution"	"LEFT"	"RIGHT"	450.515499999938	1250.0000025	n/a	n/a	n/a	n/a	"True"	n/a	n/a	"2020-03-03 14:03:07.115236"	"2020-03-03 14:03:07.773439"	97	6.45157828333333
"S200303"	"Conflict_Resolution"	"LEFT"	"LEFT"	523.24729999998	1500.000003	n/a	n/a	n/a	n/a	"False"	n/a	n/a	"2020-03-03 14:03:09.290504"	"2020-03-03 14:03:10.021186"	98	6.45157828333333
"S200303"	"Conflict_Resolution"	"RIGHT"	"RIGHT"	796.085800000014	1466.6666696	n/a	n/a	n/a	n/a	"True"	n/a	n/a	"2020-03-03 14:03:11.505752"	"2020-03-03 14:03:12.509923"	99	6.45157828333333
"S200303"	"Conflict_Resolution"	"RIGHT"	"RIGHT"	439.411299999961	950.0000019	n/a	n/a	n/a	n/a	"False"	n/a	n/a	"2020-03-03 14:03:13.479033"	"2020-03-03 14:03:14.125608"	100	6.45157828333333
"S200303"	"Conflict_Resolution"	"LEFT"	"LEFT"	397.637700000018	583.3333345	n/a	n/a	n/a	n/a	"False"	n/a	n/a	"2020-03-03 14:03:14.728496"	"2020-03-03 14:03:15.334026"	101	6.45157828333333
"S200303"	"Conflict_Resolution"	"RIGHT"	"RIGHT"	558.875199999989	783.3333349	n/a	n/a	n/a	n/a	"True"	n/a	n/a	"2020-03-03 14:03:16.135213"	"2020-03-03 14:03:16.901211"	102	6.45157828333333
"S200303"	"Conflict_Resolution"	"RIGHT"	"RIGHT"	643.855199999962	850.0000017	n/a	n/a	n/a	n/a	"True"	n/a	n/a	"2020-03-03 14:03:17.769827"	"2020-03-03 14:03:18.621469"	103	6.45157828333333
"S200303"	"Conflict_Resolution"	"RIGHT"	"RIGHT"	501.547799999912	800.0000016	n/a	n/a	n/a	n/a	"False"	n/a	n/a	"2020-03-03 14:03:19.440070"	"2020-03-03 14:03:20.149210"	104	6.45157828333333
"S200303"	"Conflict_Resolution"	"LEFT"	"LEFT"	581.177099999991	1216.6666691	n/a	n/a	n/a	n/a	"True"	n/a	n/a	"2020-03-03 14:03:21.384662"	"2020-03-03 14:03:22.174746"	105	6.45157828333333
"S200303"	"Conflict_Resolution"	"LEFT"	"LEFT"	547.74789999999	616.6666679	n/a	n/a	n/a	n/a	"False"	n/a	n/a	"2020-03-03 14:03:22.810559"	"2020-03-03 14:03:23.566970"	106	6.45157828333333
"S200303"	"Conflict_Resolution"	"RIGHT"	"RIGHT"	543.82529999998	1316.6666693	n/a	n/a	n/a	n/a	"False"	n/a	n/a	"2020-03-03 14:03:24.902635"	"2020-03-03 14:03:25.654128"	107	6.45157828333333
"S200303"	"Conflict_Resolution"	"LEFT"	"LEFT"	471.228300000007	733.3333348	n/a	n/a	n/a	n/a	"False"	n/a	n/a	"2020-03-03 14:03:26.407211"	"2020-03-03 14:03:27.086463"	108	6.45157828333333
"S200303"	"Conflict_Resolution"	"LEFT"	"LEFT"	476.607000000058	1000.000002	n/a	n/a	n/a	n/a	"False"	n/a	n/a	"2020-03-03 14:03:28.105750"	"2020-03-03 14:03:28.790594"	109	6.45157828333333
"S200303"	"Conflict_Resolution"	"LEFT"	"LEFT"	475.71210000001	1216.6666691	n/a	n/a	n/a	n/a	"False"	n/a	n/a	"2020-03-03 14:03:30.026496"	"2020-03-03 14:03:30.709225"	110	6.45157828333333
"S200303"	"Conflict_Resolution"	"LEFT"	"LEFT"	473.269999999957	1316.6666693	n/a	n/a	n/a	n/a	"False"	n/a	n/a	"2020-03-03 14:03:32.044921"	"2020-03-03 14:03:32.726848"	111	6.45157828333333
"S200303"	"Conflict_Resolution"	"RIGHT"	"RIGHT"	603.064000000131	600.0000012	n/a	n/a	n/a	n/a	"True"	n/a	n/a	"2020-03-03 14:03:33.346687"	"2020-03-03 14:03:34.157223"	112	6.45157828333333
"S200303"	"Conflict_Resolution"	"LEFT"	"LEFT"	595.40579999998	866.6666684	n/a	n/a	n/a	n/a	"True"	n/a	n/a	"2020-03-03 14:03:35.042926"	"2020-03-03 14:03:35.846059"	113	6.45157828333333
"S200303"	"Conflict_Resolution"	"LEFT"	"LEFT"	596.572200000082	633.3333346	n/a	n/a	n/a	n/a	"True"	n/a	n/a	"2020-03-03 14:03:36.497334"	"2020-03-03 14:03:37.301698"	114	6.45157828333333
"S200303"	"Conflict_Resolution"	"RIGHT"	"RIGHT"	681.184300000041	900.0000018	n/a	n/a	n/a	n/a	"True"	n/a	n/a	"2020-03-03 14:03:38.220599"	"2020-03-03 14:03:39.109346"	115	6.45157828333333
"S200303"	"Conflict_Resolution"	"LEFT"	"LEFT"	657.682799999975	516.6666677	n/a	n/a	n/a	n/a	"True"	n/a	n/a	"2020-03-03 14:03:39.644469"	"2020-03-03 14:03:40.509284"	116	6.45157828333333
"S200303"	"Conflict_Resolution"	"LEFT"	"LEFT"	710.709399999814	1200.0000024	n/a	n/a	n/a	n/a	"True"	n/a	n/a	"2020-03-03 14:03:41.727008"	"2020-03-03 14:03:42.646607"	117	6.45157828333333
"S200303"	"Conflict_Resolution"	"RIGHT"	"RIGHT"	454.121399999849	1366.6666694	n/a	n/a	n/a	n/a	"False"	n/a	n/a	"2020-03-03 14:03:44.031791"	"2020-03-03 14:03:44.694712"	118	6.45157828333333
"S200303"	"Conflict_Resolution"	"RIGHT"	"RIGHT"	577.729200000022	1216.6666691	n/a	n/a	n/a	n/a	"False"	n/a	n/a	"2020-03-03 14:03:45.932723"	"2020-03-03 14:03:46.717518"	119	6.45157828333333
"S200303"	"Conflict_Resolution"	"RIGHT"	"RIGHT"	506.496299999981	1283.3333359	n/a	n/a	n/a	n/a	"False"	n/a	n/a	"2020-03-03 14:03:48.019254"	"2020-03-03 14:03:48.733162"	120	6.45157828333333
"S200303"	"Conflict_Resolution"	"RIGHT"	"RIGHT"	390.552699999944	1000.000002	n/a	n/a	n/a	n/a	"False"	n/a	n/a	"2020-03-03 14:03:49.751141"	"2020-03-03 14:03:50.349355"	121	6.45157828333333
"S200303"	"Conflict_Resolution"	"RIGHT"	"RIGHT"	396.551599999839	1466.6666696	n/a	n/a	n/a	n/a	"False"	n/a	n/a	"2020-03-03 14:03:51.833301"	"2020-03-03 14:03:52.437240"	122	6.45157828333333
"S200303"	"Conflict_Resolution"	"LEFT"	"LEFT"	661.027699999977	616.6666679	n/a	n/a	n/a	n/a	"True"	n/a	n/a	"2020-03-03 14:03:53.072542"	"2020-03-03 14:03:53.941767"	123	6.45157828333333
"S200303"	"Conflict_Resolution"	"RIGHT"	"RIGHT"	709.851099999923	750.0000015	n/a	n/a	n/a	n/a	"False"	n/a	n/a	"2020-03-03 14:03:54.712250"	"2020-03-03 14:03:55.629997"	124	6.45157828333333
"S200303"	"Conflict_Resolution"	"RIGHT"	"RIGHT"	985.160400000041	1050.0000021	n/a	n/a	n/a	n/a	"True"	n/a	n/a	"2020-03-03 14:03:56.700749"	"2020-03-03 14:03:57.894891"	125	6.45157828333333
"S200303"	"Conflict_Resolution"	"LEFT"	"LEFT"	670.189200000095	533.3333344	n/a	n/a	n/a	n/a	"True"	n/a	n/a	"2020-03-03 14:03:58.447429"	"2020-03-03 14:03:59.326654"	126	6.45157828333333
"S200303"	"Conflict_Resolution"	"LEFT"	"LEFT"	564.50319999999	1400.0000028	n/a	n/a	n/a	n/a	"True"	n/a	n/a	"2020-03-03 14:04:00.745452"	"2020-03-03 14:04:01.517457"	127	6.45157828333333
"S200303"	"Conflict_Resolution"	"LEFT"	"LEFT"	468.060700000024	1016.6666687	n/a	n/a	n/a	n/a	"False"	n/a	n/a	"2020-03-03 14:04:02.553942"	"2020-03-03 14:04:03.229208"	128	6.45157828333333
"S200303"	"Conflict_Resolution"	"LEFT"	"LEFT"	724.22819999997	1050.0000021	n/a	n/a	n/a	n/a	"False"	n/a	n/a	"2020-03-03 14:04:04.297660"	"2020-03-03 14:04:05.229426"	129	6.45157828333333
"S200303"	"Conflict_Resolution"	"RIGHT"	"RIGHT"	798.37909999992	750.0000015	n/a	n/a	n/a	n/a	"True"	n/a	n/a	"2020-03-03 14:04:05.999975"	"2020-03-03 14:04:07.006799"	130	6.45157828333333
"S200303"	"Conflict_Resolution"	"LEFT"	"LEFT"	551.145599999927	900.0000018	n/a	n/a	n/a	n/a	"True"	n/a	n/a	"2020-03-03 14:04:07.926988"	"2020-03-03 14:04:08.686963"	131	6.45157828333333
"S200303"	"Conflict_Resolution"	"RIGHT"	"RIGHT"	455.987499999992	500.000001	n/a	n/a	n/a	n/a	"False"	n/a	n/a	"2020-03-03 14:04:09.205653"	"2020-03-03 14:04:09.869914"	132	6.45157828333333
"S200303"	"Conflict_Resolution"	"RIGHT"	"RIGHT"	799.897099999953	533.3333344	n/a	n/a	n/a	n/a	"True"	n/a	n/a	"2020-03-03 14:04:10.422543"	"2020-03-03 14:04:11.429424"	133	6.45157828333333
"S200303"	"Conflict_Resolution"	"LEFT"	"LEFT"	586.127399999896	916.6666685	n/a	n/a	n/a	n/a	"True"	n/a	n/a	"2020-03-03 14:04:12.363264"	"2020-03-03 14:04:13.158596"	134	6.45157828333333
"S200303"	"Conflict_Resolution"	"LEFT"	"LEFT"	886.848800000053	533.3333344	n/a	n/a	n/a	n/a	"False"	n/a	n/a	"2020-03-03 14:04:13.710829"	"2020-03-03 14:04:14.805216"	135	6.45157828333333
"S200303"	"Conflict_Resolution"	"RIGHT"	"RIGHT"	591.613300000063	950.0000019	n/a	n/a	n/a	n/a	"True"	n/a	n/a	"2020-03-03 14:04:15.774015"	"2020-03-03 14:04:16.573404"	136	6.45157828333333
"S200303"	"Conflict_Resolution"	"LEFT"	"LEFT"	579.372499999863	1466.6666696	n/a	n/a	n/a	n/a	"True"	n/a	n/a	"2020-03-03 14:04:18.058875"	"2020-03-03 14:04:18.845273"	137	6.45157828333333
"S200303"	"Conflict_Resolution"	"LEFT"	"LEFT"	463.026200000058	1166.666669	n/a	n/a	n/a	n/a	"False"	n/a	n/a	"2020-03-03 14:04:20.031119"	"2020-03-03 14:04:20.701992"	138	6.45157828333333
"S200303"	"Conflict_Resolution"	"LEFT"	"LEFT"	593.37719999985	716.6666681	n/a	n/a	n/a	n/a	"True"	n/a	n/a	"2020-03-03 14:04:21.436644"	"2020-03-03 14:04:22.237290"	139	6.45157828333333
"S200303"	"Conflict_Resolution"	"RIGHT"	"RIGHT"	442.125799999985	883.3333351	n/a	n/a	n/a	n/a	"False"	n/a	n/a	"2020-03-03 14:04:23.139527"	"2020-03-03 14:04:23.790343"	140	6.45157828333333
"S200303"	"Conflict_Resolution"	"LEFT"	"LEFT"	590.123100000028	966.6666686	n/a	n/a	n/a	n/a	"True"	n/a	n/a	"2020-03-03 14:04:24.775477"	"2020-03-03 14:04:25.574217"	141	6.45157828333333
"S200303"	"Conflict_Resolution"	"RIGHT"	"RIGHT"	537.367399999994	1483.3333363	n/a	n/a	n/a	n/a	"False"	n/a	n/a	"2020-03-03 14:04:27.076439"	"2020-03-03 14:04:27.822731"	142	6.45157828333333
"S200303"	"Conflict_Resolution"	"LEFT"	"LEFT"	432.056600000124	1300.0000026	n/a	n/a	n/a	n/a	"False"	n/a	n/a	"2020-03-03 14:04:29.142327"	"2020-03-03 14:04:29.782613"	143	6.45157828333333
"S200303"	"Conflict_Resolution"	"RIGHT"	"RIGHT"	624.814000000015	1283.3333359	n/a	n/a	n/a	n/a	"True"	n/a	n/a	"2020-03-03 14:04:31.084934"	"2020-03-03 14:04:31.918940"	144	6.45157828333333
"S200303"	"Conflict_Resolution"	"LEFT"	"LEFT"	620.67849999994	1366.6666694	n/a	n/a	n/a	n/a	"True"	n/a	n/a	"2020-03-03 14:04:33.305442"	"2020-03-03 14:04:34.133312"	145	6.45157828333333
"S200303"	"Conflict_Resolution"	"LEFT"	"LEFT"	774.846299999808	1116.6666689	n/a	n/a	n/a	n/a	"False"	n/a	n/a	"2020-03-03 14:04:35.271316"	"2020-03-03 14:04:36.254688"	146	6.45157828333333
"S200303"	"Conflict_Resolution"	"LEFT"	"LEFT"	688.926199999969	516.6666677	n/a	n/a	n/a	n/a	"False"	n/a	n/a	"2020-03-03 14:04:36.789378"	"2020-03-03 14:04:37.685202"	147	6.45157828333333
"S200303"	"Conflict_Resolution"	"LEFT"	"LEFT"	83.2026999999016	1500.000003	n/a	n/a	n/a	n/a	"True"	n/a	n/a	"2020-03-03 14:04:39.202260"	"2020-03-03 14:04:39.493489"	148	6.45157828333333
"S200303"	"Conflict_Resolution"	"RIGHT"	"RIGHT"	535.788099999991	733.3333348	n/a	n/a	n/a	n/a	"False"	n/a	n/a	"2020-03-03 14:04:40.246055"	"2020-03-03 14:04:40.990775"	149	6.45157828333333
"S200303"	"Conflict_Resolution"	"RIGHT"	"RIGHT"	581.159599999864	583.3333345	n/a	n/a	n/a	n/a	"True"	n/a	n/a	"2020-03-03 14:04:41.593160"	"2020-03-03 14:04:42.382741"	150	6.45157828333333
"S200303"	"Conflict_Resolution"	"RIGHT"	"RIGHT"	609.751899999992	1433.3333362	n/a	n/a	n/a	n/a	"True"	n/a	n/a	"2020-03-03 14:04:43.836002"	"2020-03-03 14:04:44.654858"	151	6.45157828333333
"S200303"	"Conflict_Resolution"	"RIGHT"	"RIGHT"	733.05409999989	1383.3333361	n/a	n/a	n/a	n/a	"False"	n/a	n/a	"2020-03-03 14:04:46.057348"	"2020-03-03 14:04:46.997586"	152	6.45157828333333
"S200303"	"Conflict_Resolution"	"LEFT"	"LEFT"	466.971999999942	1250.0000025	n/a	n/a	n/a	n/a	"False"	n/a	n/a	"2020-03-03 14:04:48.266687"	"2020-03-03 14:04:48.941518"	153	6.45157828333333
"S200303"	"Conflict_Resolution"	"LEFT"	"RIGHT"	400.91510000002	950.0000019	n/a	n/a	n/a	n/a	"True"	n/a	n/a	"2020-03-03 14:04:49.908551"	"2020-03-03 14:04:50.517530"	154	6.45157828333333
"S200303"	"Conflict_Resolution"	"RIGHT"	"RIGHT"	505.150100000037	900.0000018	n/a	n/a	n/a	n/a	"False"	n/a	n/a	"2020-03-03 14:04:51.437144"	"2020-03-03 14:04:52.149454"	155	6.45157828333333
"S200303"	"Conflict_Resolution"	"RIGHT"	"RIGHT"	461.582500000077	1183.3333357	n/a	n/a	n/a	n/a	"False"	n/a	n/a	"2020-03-03 14:04:53.352192"	"2020-03-03 14:04:54.022729"	156	6.45157828333333
"S200303"	"Conflict_Resolution"	"RIGHT"	"RIGHT"	442.918899999995	833.333335	n/a	n/a	n/a	n/a	"False"	n/a	n/a	"2020-03-03 14:04:54.875533"	"2020-03-03 14:04:55.525466"	157	6.45157828333333
"S200303"	"Conflict_Resolution"	"RIGHT"	"RIGHT"	624.214100000017	933.3333352	n/a	n/a	n/a	n/a	"True"	n/a	n/a	"2020-03-03 14:04:56.478001"	"2020-03-03 14:04:57.310140"	158	6.45157828333333
"S200303"	"Conflict_Resolution"	"RIGHT"	"RIGHT"	633.685600000035	1266.6666692	n/a	n/a	n/a	n/a	"True"	n/a	n/a	"2020-03-03 14:04:58.596656"	"2020-03-03 14:04:59.437065"	159	6.45157828333333
"S200303"	"Conflict_Resolution"	"LEFT"	"LEFT"	808.368099999825	1350.0000027	n/a	n/a	n/a	n/a	"True"	n/a	n/a	"2020-03-03 14:05:00.806060"	"2020-03-03 14:05:01.821067"	160	6.45157828333333
"S200303"	"Processing_Speed"	"LEFT"	"DOWN"	327.393200000017	1500.000003	""	n/a	n/a	n/a	n/a	n/a	n/a	"2020-03-03 13:48:34.775618"	"2020-03-03 13:48:35.322755"	1	2.01583511666667
"S200303"	"Processing_Speed"	"RIGHT"	"DOWN"	248.050200000023	1466.6666696	""	n/a	n/a	n/a	n/a	n/a	n/a	"2020-03-03 13:48:36.798499"	"2020-03-03 13:48:37.255622"	2	2.01583511666667
"S200303"	"Processing_Speed"	"LEFT"	"DOWN"	271.148900000014	1183.3333357	""	n/a	n/a	n/a	n/a	n/a	n/a	"2020-03-03 13:48:38.447323"	"2020-03-03 13:48:38.926076"	3	2.01583511666667
"S200303"	"Processing_Speed"	"LEFT"	"DOWN"	296.520799999996	1216.6666691	""	n/a	n/a	n/a	n/a	n/a	n/a	"2020-03-03 13:48:40.151315"	"2020-03-03 13:48:40.656534"	4	2.01583511666667
"S200303"	"Processing_Speed"	"LEFT"	"DOWN"	365.501099999989	600.0000012	""	n/a	n/a	n/a	n/a	n/a	n/a	"2020-03-03 13:48:41.264976"	"2020-03-03 13:48:41.838325"	5	2.01583511666667
"S200303"	"Processing_Speed"	"LEFT"	"DOWN"	280.664800000011	783.3333349	""	n/a	n/a	n/a	n/a	n/a	n/a	"2020-03-03 13:48:42.630316"	"2020-03-03 13:48:43.119025"	6	2.01583511666667
"S200303"	"Processing_Speed"	"LEFT"	"DOWN"	273.093099999983	950.0000019	""	n/a	n/a	n/a	n/a	n/a	n/a	"2020-03-03 13:48:44.077690"	"2020-03-03 13:48:44.558457"	7	2.01583511666667
"S200303"	"Processing_Speed"	"LEFT"	"DOWN"	300.628399999994	1266.6666692	""	n/a	n/a	n/a	n/a	n/a	n/a	"2020-03-03 13:48:45.834307"	"2020-03-03 13:48:46.342924"	8	2.01583511666667
"S200303"	"Processing_Speed"	"LEFT"	"DOWN"	251.709000000005	1083.3333355	""	n/a	n/a	n/a	n/a	n/a	n/a	"2020-03-03 13:48:47.435106"	"2020-03-03 13:48:47.894873"	9	2.01583511666667
"S200303"	"Processing_Speed"	"LEFT"	"DOWN"	256.278199999997	1366.6666694	""	n/a	n/a	n/a	n/a	n/a	n/a	"2020-03-03 13:48:49.270438"	"2020-03-03 13:48:49.734292"	10	2.01583511666667
"S200303"	"Processing_Speed"	"LEFT"	"DOWN"	387.844300000012	883.3333351	""	n/a	n/a	n/a	n/a	n/a	n/a	"2020-03-03 13:48:50.626589"	"2020-03-03 13:48:51.222963"	11	2.01583511666667
"S200303"	"Processing_Speed"	"LEFT"	"DOWN"	261.570700000021	850.0000017	""	n/a	n/a	n/a	n/a	n/a	n/a	"2020-03-03 13:48:52.081032"	"2020-03-03 13:48:52.550503"	12	2.01583511666667
"S200303"	"Processing_Speed"	"RIGHT"	"DOWN"	929.323399999987	500.000001	""	n/a	n/a	n/a	n/a	n/a	n/a	"2020-03-03 13:48:53.061785"	"2020-03-03 13:48:54.198307"	13	2.01583511666667
"S200303"	"Processing_Speed"	"LEFT"	"DOWN"	381.480699999997	666.666668	""	n/a	n/a	n/a	n/a	n/a	n/a	"2020-03-03 13:48:54.873441"	"2020-03-03 13:48:55.463134"	14	2.01583511666667
"S200303"	"Processing_Speed"	"RIGHT"	"DOWN"	305.627700000002	733.3333348	""	n/a	n/a	n/a	n/a	n/a	n/a	"2020-03-03 13:48:56.205361"	"2020-03-03 13:48:56.718812"	15	2.01583511666667
"S200303"	"Processing_Speed"	"RIGHT"	"DOWN"	293.180199999995	816.6666683	""	n/a	n/a	n/a	n/a	n/a	n/a	"2020-03-03 13:48:57.545568"	"2020-03-03 13:48:58.046406"	16	2.01583511666667
"S200303"	"Processing_Speed"	"RIGHT"	"DOWN"	351.399700000002	1216.6666691	""	n/a	n/a	n/a	n/a	n/a	n/a	"2020-03-03 13:48:59.271356"	"2020-03-03 13:48:59.830633"	17	2.01583511666667
"S200303"	"Processing_Speed"	"RIGHT"	"DOWN"	266.862900000007	916.6666685	""	n/a	n/a	n/a	n/a	n/a	n/a	"2020-03-03 13:49:00.755798"	"2020-03-03 13:49:01.230696"	18	2.01583511666667
"S200303"	"Processing_Speed"	"RIGHT"	"DOWN"	307.458499999996	1083.3333355	""	n/a	n/a	n/a	n/a	n/a	n/a	"2020-03-03 13:49:02.323252"	"2020-03-03 13:49:02.838204"	19	2.01583511666667
"S200303"	"Processing_Speed"	"RIGHT"	"DOWN"	251.437100000004	1116.6666689	""	n/a	n/a	n/a	n/a	n/a	n/a	"2020-03-03 13:49:03.962935"	"2020-03-03 13:49:04.422312"	20	2.01583511666667
"S200303"	"Processing_Speed"	"LEFT"	"DOWN"	373.006800000013	1466.6666696	"DOWN"	-94.702	n/a	n/a	n/a	n/a	n/a	"2020-03-03 13:49:05.897483"	"2020-03-03 13:49:06.478743"	21	2.01583511666667
"S200303"	"Processing_Speed"	"LEFT"	"DOWN"	466.170900000009	733.3333348	""	n/a	n/a	n/a	n/a	n/a	n/a	"2020-03-03 13:49:07.220775"	"2020-03-03 13:49:07.894959"	22	2.01583511666667
"S200303"	"Processing_Speed"	"LEFT"	"DOWN"	459.063399999991	500.000001	""	n/a	n/a	n/a	n/a	n/a	n/a	"2020-03-03 13:49:08.403732"	"2020-03-03 13:49:09.070704"	23	2.01583511666667
"S200303"	"Processing_Speed"	"LEFT"	"DOWN"	318.635199999989	1016.6666687	""	n/a	n/a	n/a	n/a	n/a	n/a	"2020-03-03 13:49:10.095651"	"2020-03-03 13:49:10.622419"	24	2.01583511666667
"S200303"	"Processing_Speed"	"RIGHT"	"DOWN"	298.423599999978	1333.333336	""	n/a	n/a	n/a	n/a	n/a	n/a	"2020-03-03 13:49:11.964704"	"2020-03-03 13:49:12.470350"	25	2.01583511666667
"S200303"	"Processing_Speed"	"RIGHT"	"DOWN"	329.754000000008	1150.0000023	""	n/a	n/a	n/a	n/a	n/a	n/a	"2020-03-03 13:49:13.628469"	"2020-03-03 13:49:14.167028"	26	2.01583511666667
"S200303"	"Processing_Speed"	"RIGHT"	"DOWN"	339.975199999998	1266.6666692	""	n/a	n/a	n/a	n/a	n/a	n/a	"2020-03-03 13:49:15.442870"	"2020-03-03 13:49:15.990399"	27	2.01583511666667
"S200303"	"Processing_Speed"	"LEFT"	"DOWN"	277.298800000011	1050.0000021	""	n/a	n/a	n/a	n/a	n/a	n/a	"2020-03-03 13:49:17.049315"	"2020-03-03 13:49:17.535050"	28	2.01583511666667
"S200303"	"Processing_Speed"	"LEFT"	"DOWN"	385.483000000022	533.3333344	""	n/a	n/a	n/a	n/a	n/a	n/a	"2020-03-03 13:49:18.077411"	"2020-03-03 13:49:18.670571"	29	2.01583511666667
"S200303"	"Processing_Speed"	"RIGHT"	"DOWN"	275.70990000001	1500.000003	""	n/a	n/a	n/a	n/a	n/a	n/a	"2020-03-03 13:49:20.178829"	"2020-03-03 13:49:20.662615"	30	2.01583511666667
"S200303"	"Processing_Speed"	"RIGHT"	"DOWN"	284.895400000011	850.0000017	""	n/a	n/a	n/a	n/a	n/a	n/a	"2020-03-03 13:49:21.521929"	"2020-03-03 13:49:22.015769"	31	2.01583511666667
"S200303"	"Processing_Speed"	"LEFT"	"DOWN"	281.651000000011	1116.6666689	""	n/a	n/a	n/a	n/a	n/a	n/a	"2020-03-03 13:49:23.141409"	"2020-03-03 13:49:23.630093"	32	2.01583511666667
"S200303"	"Processing_Speed"	"RIGHT"	"DOWN"	265.283799999992	566.6666678	""	n/a	n/a	n/a	n/a	n/a	n/a	"2020-03-03 13:49:24.205315"	"2020-03-03 13:49:24.679160"	33	2.01583511666667
"S200303"	"Processing_Speed"	"LEFT"	"DOWN"	249.333900000011	916.6666685	""	n/a	n/a	n/a	n/a	n/a	n/a	"2020-03-03 13:49:25.605315"	"2020-03-03 13:49:26.062812"	34	2.01583511666667
"S200303"	"Processing_Speed"	"RIGHT"	"DOWN"	273.253399999987	950.0000019	""	n/a	n/a	n/a	n/a	n/a	n/a	"2020-03-03 13:49:27.021396"	"2020-03-03 13:49:27.502607"	35	2.01583511666667
"S200303"	"Processing_Speed"	"LEFT"	"DOWN"	286.416099999997	633.3333346	""	n/a	n/a	n/a	n/a	n/a	n/a	"2020-03-03 13:49:28.144013"	"2020-03-03 13:49:28.638378"	36	2.01583511666667
"S200303"	"Processing_Speed"	"LEFT"	"DOWN"	270.491399999997	1433.3333362	""	n/a	n/a	n/a	n/a	n/a	n/a	"2020-03-03 13:49:30.079783"	"2020-03-03 13:49:30.558462"	37	2.01583511666667
"S200303"	"Processing_Speed"	"RIGHT"	"DOWN"	303.643499999993	600.0000012	""	n/a	n/a	n/a	n/a	n/a	n/a	"2020-03-03 13:49:31.166873"	"2020-03-03 13:49:31.678835"	38	2.01583511666667
"S200303"	"Processing_Speed"	"LEFT"	"DOWN"	673.07169999998	1150.0000023	""	n/a	n/a	n/a	n/a	n/a	n/a	"2020-03-03 13:49:32.837201"	"2020-03-03 13:49:33.719581"	39	2.01583511666667
"S200303"	"Processing_Speed"	"RIGHT"	"DOWN"	271.348799999998	983.3333353	""	n/a	n/a	n/a	n/a	n/a	n/a	"2020-03-03 13:49:34.711509"	"2020-03-03 13:49:35.190238"	40	2.01583511666667
"S200303"	"Processing_Speed"	"RIGHT"	"DOWN"	273.082299999999	1366.6666694	""	n/a	n/a	n/a	n/a	n/a	n/a	"2020-03-03 13:49:36.565679"	"2020-03-03 13:49:37.046948"	41	2.01583511666667
"S200303"	"Processing_Speed"	"RIGHT"	"DOWN"	326.581000000004	1016.6666687	""	n/a	n/a	n/a	n/a	n/a	n/a	"2020-03-03 13:49:38.072383"	"2020-03-03 13:49:38.606940"	42	2.01583511666667
"S200303"	"Processing_Speed"	"RIGHT"	"DOWN"	307.13750000001	1300.0000026	""	n/a	n/a	n/a	n/a	n/a	n/a	"2020-03-03 13:49:39.915853"	"2020-03-03 13:49:40.430473"	43	2.01583511666667
"S200303"	"Processing_Speed"	"RIGHT"	"DOWN"	261.798400000004	1050.0000021	""	n/a	n/a	n/a	n/a	n/a	n/a	"2020-03-03 13:49:41.488878"	"2020-03-03 13:49:41.958660"	44	2.01583511666667
"S200303"	"Processing_Speed"	"LEFT"	"DOWN"	315.697900000004	700.0000014	""	n/a	n/a	n/a	n/a	n/a	n/a	"2020-03-03 13:49:42.667420"	"2020-03-03 13:49:43.190773"	45	2.01583511666667
"S200303"	"Processing_Speed"	"RIGHT"	"DOWN"	302.836799999994	633.3333346	""	n/a	n/a	n/a	n/a	n/a	n/a	"2020-03-03 13:49:43.832246"	"2020-03-03 13:49:44.343428"	46	2.01583511666667
"S200303"	"Processing_Speed"	"RIGHT"	"DOWN"	291.299400000014	883.3333351	""	n/a	n/a	n/a	n/a	n/a	n/a	"2020-03-03 13:49:45.235237"	"2020-03-03 13:49:45.734142"	47	2.01583511666667
"S200303"	"Processing_Speed"	"RIGHT"	"DOWN"	351.081399999998	1433.3333362	""	n/a	n/a	n/a	n/a	n/a	n/a	"2020-03-03 13:49:47.175908"	"2020-03-03 13:49:47.734414"	48	2.01583511666667
"S200303"	"Processing_Speed"	"LEFT"	"DOWN"	335.637300000002	816.6666683	""	n/a	n/a	n/a	n/a	n/a	n/a	"2020-03-03 13:49:48.558508"	"2020-03-03 13:49:49.103473"	49	2.01583511666667
"S200303"	"Processing_Speed"	"LEFT"	"DOWN"	583.988399999981	566.6666678	""	n/a	n/a	n/a	n/a	n/a	n/a	"2020-03-03 13:49:49.678462"	"2020-03-03 13:49:50.471472"	50	2.01583511666667
"S200303"	"Processing_Speed"	"LEFT"	"DOWN"	334.7081	1400.0000028	""	n/a	n/a	n/a	n/a	n/a	n/a	"2020-03-03 13:49:51.879794"	"2020-03-03 13:49:52.421953"	51	2.01583511666667
"S200303"	"Processing_Speed"	"RIGHT"	"DOWN"	331.014199999998	533.3333344	""	n/a	n/a	n/a	n/a	n/a	n/a	"2020-03-03 13:49:52.963461"	"2020-03-03 13:49:53.502251"	52	2.01583511666667
"S200303"	"Processing_Speed"	"LEFT"	"DOWN"	250.435600000003	1333.333336	""	n/a	n/a	n/a	n/a	n/a	n/a	"2020-03-03 13:49:54.844425"	"2020-03-03 13:49:55.302197"	53	2.01583511666667
"S200303"	"Processing_Speed"	"RIGHT"	"DOWN"	264.730399999991	1183.3333357	""	n/a	n/a	n/a	n/a	n/a	n/a	"2020-03-03 13:49:56.493820"	"2020-03-03 13:49:56.967600"	54	2.01583511666667
"S200303"	"Processing_Speed"	"LEFT"	"DOWN"	306.614199999984	1300.0000026	""	n/a	n/a	n/a	n/a	n/a	n/a	"2020-03-03 13:49:58.275465"	"2020-03-03 13:49:58.790089"	55	2.01583511666667
"S200303"	"Processing_Speed"	"LEFT"	"DOWN"	296.508799999998	983.3333353	""	n/a	n/a	n/a	n/a	n/a	n/a	"2020-03-03 13:49:59.782650"	"2020-03-03 13:50:00.286928"	56	2.01583511666667
"S200303"	"Processing_Speed"	"RIGHT"	"DOWN"	308.725100000004	666.666668	""	n/a	n/a	n/a	n/a	n/a	n/a	"2020-03-03 13:50:00.961657"	"2020-03-03 13:50:01.478683"	57	2.01583511666667
"S200303"	"Processing_Speed"	"RIGHT"	"DOWN"	320.166299999983	783.3333349	""	n/a	n/a	n/a	n/a	n/a	n/a	"2020-03-03 13:50:02.270436"	"2020-03-03 13:50:02.798058"	58	2.01583511666667
"S200303"	"Processing_Speed"	"RIGHT"	"DOWN"	359.843699999999	1400.0000028	""	n/a	n/a	n/a	n/a	n/a	n/a	"2020-03-03 13:50:04.206473"	"2020-03-03 13:50:04.774486"	59	2.01583511666667
"S200303"	"Processing_Speed"	"RIGHT"	"DOWN"	251.63280000001	700.0000014	""	n/a	n/a	n/a	n/a	n/a	n/a	"2020-03-03 13:50:05.482788"	"2020-03-03 13:50:05.942603"	60	2.01583511666667
"S200303"	"Response_Inhibition"	"RIGHT"	"Time_Max_Exceeded"	1500.04813360001	1133.3333356	n/a	n/a	n/a	n/a	n/a	n/a	n/a	"2020-03-03 13:53:37.298056"	"2020-03-03 13:53:38.801686"	1	5.64173993333333
"S200303"	"Response_Inhibition"	"RIGHT"	"RIGHT"	434.478100000035	1216.6666691	n/a	n/a	n/a	n/a	n/a	n/a	n/a	"2020-03-03 13:53:40.028266"	"2020-03-03 13:53:40.670986"	2	5.64173993333333
"S200303"	"Response_Inhibition"	"RIGHT"	"RIGHT"	325.136199999974	1050.0000021	n/a	n/a	n/a	n/a	n/a	n/a	n/a	"2020-03-03 13:53:41.729107"	"2020-03-03 13:53:42.262314"	3	5.64173993333333
"S200303"	"Response_Inhibition"	"LEFT"	"LEFT"	373.371499999962	1266.6666692	n/a	n/a	n/a	n/a	n/a	n/a	n/a	"2020-03-03 13:53:43.537258"	"2020-03-03 13:53:44.118934"	4	5.64173993333333
"S200303"	"Response_Inhibition"	"RIGHT"	"RIGHT"	379.755499999987	866.6666684	n/a	n/a	n/a	n/a	n/a	n/a	n/a	"2020-03-03 13:53:44.994079"	"2020-03-03 13:53:45.581831"	5	5.64173993333333
"S200303"	"Response_Inhibition"	"RIGHT"	"Time_Max_Exceeded"	1500.06210000004	733.3333348	n/a	n/a	n/a	n/a	n/a	n/a	n/a	"2020-03-03 13:53:46.323463"	"2020-03-03 13:53:47.823499"	6	5.64173993333333
"S200303"	"Response_Inhibition"	"LEFT"	"LEFT"	323.730533500018	1166.666669	n/a	n/a	n/a	n/a	n/a	n/a	n/a	"2020-03-03 13:53:48.999600"	"2020-03-03 13:53:49.534151"	7	5.64173993333333
"S200303"	"Response_Inhibition"	"RIGHT"	"RIGHT"	310.428000000002	633.3333346	n/a	n/a	n/a	n/a	n/a	n/a	n/a	"2020-03-03 13:53:50.175512"	"2020-03-03 13:53:50.694124"	8	5.64173993333333
"S200303"	"Response_Inhibition"	"RIGHT"	"Time_Max_Exceeded"	1500.05316679998	550.0000011	n/a	n/a	n/a	n/a	n/a	n/a	n/a	"2020-03-03 13:53:51.253595"	"2020-03-03 13:53:52.757363"	9	5.64173993333333
"S200303"	"Response_Inhibition"	"LEFT"	"LEFT"	293.714699999953	1450.0000029	n/a	n/a	n/a	n/a	n/a	n/a	n/a	"2020-03-03 13:53:54.217158"	"2020-03-03 13:53:54.717438"	10	5.64173993333333
"S200303"	"Response_Inhibition"	"RIGHT"	"Time_Max_Exceeded"	1500.05236669999	1500.000003	n/a	n/a	n/a	n/a	n/a	n/a	n/a	"2020-03-03 13:53:56.225564"	"2020-03-03 13:53:57.729795"	11	5.64173993333333
"S200303"	"Response_Inhibition"	"LEFT"	"LEFT"	314.368300000012	850.0000017	n/a	n/a	n/a	n/a	n/a	n/a	n/a	"2020-03-03 13:53:58.588535"	"2020-03-03 13:53:59.110377"	12	5.64173993333333
"S200303"	"Response_Inhibition"	"LEFT"	"LEFT"	337.737600500025	1466.6666696	n/a	n/a	n/a	n/a	n/a	n/a	n/a	"2020-03-03 13:54:00.585062"	"2020-03-03 13:54:01.134643"	13	5.64173993333333
"S200303"	"Response_Inhibition"	"LEFT"	"LEFT"	359.079100000031	800.0000016	n/a	n/a	n/a	n/a	n/a	n/a	n/a	"2020-03-03 13:54:01.943490"	"2020-03-03 13:54:02.510970"	14	5.64173993333333
"S200303"	"Response_Inhibition"	"RIGHT"	"Time_Max_Exceeded"	1500.05566700001	1000.000002	n/a	n/a	n/a	n/a	n/a	n/a	n/a	"2020-03-03 13:54:03.519632"	"2020-03-03 13:54:05.022452"	15	5.64173993333333
"S200303"	"Response_Inhibition"	"LEFT"	"LEFT"	326.094099999978	616.6666679	n/a	n/a	n/a	n/a	n/a	n/a	n/a	"2020-03-03 13:54:05.648732"	"2020-03-03 13:54:06.182264"	16	5.64173993333333
"S200303"	"Response_Inhibition"	"LEFT"	"LEFT"	341.323567099991	1366.6666694	n/a	n/a	n/a	n/a	n/a	n/a	n/a	"2020-03-03 13:54:07.557794"	"2020-03-03 13:54:08.110056"	17	5.64173993333333
"S200303"	"Response_Inhibition"	"LEFT"	"LEFT"	332.65843360001	1000.000002	n/a	n/a	n/a	n/a	n/a	n/a	n/a	"2020-03-03 13:54:09.118009"	"2020-03-03 13:54:09.661629"	18	5.64173993333333
"S200303"	"Response_Inhibition"	"LEFT"	"LEFT"	364.207899999997	1500.000003	n/a	n/a	n/a	n/a	n/a	n/a	n/a	"2020-03-03 13:54:11.170212"	"2020-03-03 13:54:11.741403"	19	5.64173993333333
"S200303"	"Response_Inhibition"	"RIGHT"	"RIGHT"	646.022099999982	1466.6666696	n/a	n/a	n/a	n/a	n/a	n/a	n/a	"2020-03-03 13:54:13.216169"	"2020-03-03 13:54:14.070146"	20	5.64173993333333
"S200303"	"Response_Inhibition"	"RIGHT"	"RIGHT"	366.135799999995	1433.3333362	n/a	n/a	n/a	n/a	n/a	n/a	n/a	"2020-03-03 13:54:15.512849"	"2020-03-03 13:54:16.086310"	21	5.64173993333333
"S200303"	"Response_Inhibition"	"LEFT"	"LEFT"	552.877200000012	1366.6666694	n/a	n/a	n/a	n/a	n/a	n/a	n/a	"2020-03-03 13:54:17.461910"	"2020-03-03 13:54:18.222426"	22	5.64173993333333
"S200303"	"Response_Inhibition"	"LEFT"	"Time_Max_Exceeded"	1500.07180020003	766.6666682	n/a	n/a	n/a	n/a	n/a	n/a	n/a	"2020-03-03 13:54:18.998996"	"2020-03-03 13:54:20.503314"	23	5.64173993333333
"S200303"	"Response_Inhibition"	"LEFT"	"LEFT"	374.162433800019	516.6666677	n/a	n/a	n/a	n/a	n/a	n/a	n/a	"2020-03-03 13:54:21.028929"	"2020-03-03 13:54:21.614962"	24	5.64173993333333
"S200303"	"Response_Inhibition"	"LEFT"	"LEFT"	334.863700000028	1416.6666695	n/a	n/a	n/a	n/a	n/a	n/a	n/a	"2020-03-03 13:54:23.039235"	"2020-03-03 13:54:23.582931"	25	5.64173993333333
"S200303"	"Response_Inhibition"	"RIGHT"	"RIGHT"	367.168600600002	1316.6666693	n/a	n/a	n/a	n/a	n/a	n/a	n/a	"2020-03-03 13:54:24.908469"	"2020-03-03 13:54:25.485670"	26	5.64173993333333
"S200303"	"Response_Inhibition"	"LEFT"	"LEFT"	410.494599999993	1150.0000023	n/a	n/a	n/a	n/a	n/a	n/a	n/a	"2020-03-03 13:54:26.644166"	"2020-03-03 13:54:27.262149"	27	5.64173993333333
"S200303"	"Response_Inhibition"	"RIGHT"	"RIGHT"	704.725800000006	766.6666682	n/a	n/a	n/a	n/a	n/a	n/a	n/a	"2020-03-03 13:54:28.037558"	"2020-03-03 13:54:28.950608"	28	5.64173993333333
"S200303"	"Response_Inhibition"	"LEFT"	"Time_Max_Exceeded"	1500.05640009999	1316.6666693	n/a	n/a	n/a	n/a	n/a	n/a	n/a	"2020-03-03 13:54:30.277458"	"2020-03-03 13:54:31.780995"	29	5.64173993333333
"S200303"	"Response_Inhibition"	"RIGHT"	"RIGHT"	630.895299999963	1033.3333354	n/a	n/a	n/a	n/a	n/a	n/a	n/a	"2020-03-03 13:54:32.823585"	"2020-03-03 13:54:33.662468"	30	5.64173993333333
"S200303"	"Response_Inhibition"	"LEFT"	"LEFT"	500.229400000023	883.3333351	n/a	n/a	n/a	n/a	n/a	n/a	n/a	"2020-03-03 13:54:34.554150"	"2020-03-03 13:54:35.262863"	31	5.64173993333333
"S200303"	"Response_Inhibition"	"LEFT"	"LEFT"	371.191699999997	1300.0000026	n/a	n/a	n/a	n/a	n/a	n/a	n/a	"2020-03-03 13:54:36.570925"	"2020-03-03 13:54:37.149500"	32	5.64173993333333
"S200303"	"Response_Inhibition"	"RIGHT"	"Time_Max_Exceeded"	1500.07006690002	716.6666681	n/a	n/a	n/a	n/a	n/a	n/a	n/a	"2020-03-03 13:54:37.874607"	"2020-03-03 13:54:39.378536"	33	5.64173993333333
"S200303"	"Response_Inhibition"	"LEFT"	"LEFT"	416.657200000031	1066.6666688	n/a	n/a	n/a	n/a	n/a	n/a	n/a	"2020-03-03 13:54:40.453712"	"2020-03-03 13:54:41.078085"	34	5.64173993333333
"S200303"	"Response_Inhibition"	"RIGHT"	"RIGHT"	375.743199999988	1400.0000028	n/a	n/a	n/a	n/a	n/a	n/a	n/a	"2020-03-03 13:54:42.486432"	"2020-03-03 13:54:43.070645"	35	5.64173993333333
"S200303"	"Response_Inhibition"	"LEFT"	"LEFT"	348.572799999999	1266.6666692	n/a	n/a	n/a	n/a	n/a	n/a	n/a	"2020-03-03 13:54:44.346005"	"2020-03-03 13:54:44.902383"	36	5.64173993333333
"S200303"	"Response_Inhibition"	"LEFT"	"LEFT"	371.744700399977	1216.6666691	n/a	n/a	n/a	n/a	n/a	n/a	n/a	"2020-03-03 13:54:46.127242"	"2020-03-03 13:54:46.709595"	37	5.64173993333333
"S200303"	"Response_Inhibition"	"LEFT"	"LEFT"	378.030800000033	933.3333352	n/a	n/a	n/a	n/a	n/a	n/a	n/a	"2020-03-03 13:54:47.652375"	"2020-03-03 13:54:48.237452"	38	5.64173993333333
"S200303"	"Response_Inhibition"	"RIGHT"	"RIGHT"	504.564000000016	800.0000016	n/a	n/a	n/a	n/a	n/a	n/a	n/a	"2020-03-03 13:54:49.046079"	"2020-03-03 13:54:49.758224"	39	5.64173993333333
"S200303"	"Response_Inhibition"	"RIGHT"	"RIGHT"	338.501700000052	733.3333348	n/a	n/a	n/a	n/a	n/a	n/a	n/a	"2020-03-03 13:54:50.499440"	"2020-03-03 13:54:51.046586"	40	5.64173993333333
"S200303"	"Response_Inhibition"	"LEFT"	"LEFT"	508.222199999977	1483.3333363	n/a	n/a	n/a	n/a	n/a	n/a	n/a	"2020-03-03 13:54:52.538082"	"2020-03-03 13:54:53.254943"	41	5.64173993333333
"S200303"	"Response_Inhibition"	"LEFT"	"LEFT"	392.157700599973	683.3333347	n/a	n/a	n/a	n/a	n/a	n/a	n/a	"2020-03-03 13:54:53.946748"	"2020-03-03 13:54:54.550856"	42	5.64173993333333
"S200303"	"Response_Inhibition"	"LEFT"	"Time_Max_Exceeded"	1500.04766720001	866.6666684	n/a	n/a	n/a	n/a	n/a	n/a	n/a	"2020-03-03 13:54:55.427118"	"2020-03-03 13:54:56.930230"	43	5.64173993333333
"S200303"	"Response_Inhibition"	"RIGHT"	"Time_Max_Exceeded"	1500.05246669995	1366.6666694	n/a	n/a	n/a	n/a	n/a	n/a	n/a	"2020-03-03 13:54:58.306123"	"2020-03-03 13:54:59.809833"	44	5.64173993333333
"S200303"	"Response_Inhibition"	"RIGHT"	"RIGHT"	451.671499999975	1183.3333357	n/a	n/a	n/a	n/a	n/a	n/a	n/a	"2020-03-03 13:55:01.003012"	"2020-03-03 13:55:01.662472"	45	5.64173993333333
"S200303"	"Response_Inhibition"	"RIGHT"	"RIGHT"	355.539399999998	1100.0000022	n/a	n/a	n/a	n/a	n/a	n/a	n/a	"2020-03-03 13:55:02.771369"	"2020-03-03 13:55:03.334566"	46	5.64173993333333
"S200303"	"Response_Inhibition"	"RIGHT"	"RIGHT"	683.674200000041	666.666668	n/a	n/a	n/a	n/a	n/a	n/a	n/a	"2020-03-03 13:55:04.010264"	"2020-03-03 13:55:04.902474"	47	5.64173993333333
"S200303"	"Response_Inhibition"	"LEFT"	"LEFT"	754.077100000018	733.3333348	n/a	n/a	n/a	n/a	n/a	n/a	n/a	"2020-03-03 13:55:05.644479"	"2020-03-03 13:55:06.605419"	48	5.64173993333333
"S200303"	"Response_Inhibition"	"RIGHT"	"RIGHT"	564.176900000007	1100.0000022	n/a	n/a	n/a	n/a	n/a	n/a	n/a	"2020-03-03 13:55:07.714568"	"2020-03-03 13:55:08.486771"	49	5.64173993333333
"S200303"	"Response_Inhibition"	"LEFT"	"LEFT"	606.861500000036	1016.6666687	n/a	n/a	n/a	n/a	n/a	n/a	n/a	"2020-03-03 13:55:09.511662"	"2020-03-03 13:55:10.325177"	50	5.64173993333333
"S200303"	"Response_Inhibition"	"LEFT"	"LEFT"	643.531499999995	1333.333336	n/a	n/a	n/a	n/a	n/a	n/a	n/a	"2020-03-03 13:55:11.666386"	"2020-03-03 13:55:12.518102"	51	5.64173993333333
"S200303"	"Response_Inhibition"	"RIGHT"	"RIGHT"	546.909099999993	1116.6666689	n/a	n/a	n/a	n/a	n/a	n/a	n/a	"2020-03-03 13:55:13.643273"	"2020-03-03 13:55:14.398287"	52	5.64173993333333
"S200303"	"Response_Inhibition"	"RIGHT"	"Time_Max_Exceeded"	1500.0556667001	533.3333344	n/a	n/a	n/a	n/a	n/a	n/a	n/a	"2020-03-03 13:55:14.940523"	"2020-03-03 13:55:16.444798"	53	5.64173993333333
"S200303"	"Response_Inhibition"	"RIGHT"	"RIGHT"	533.178900000053	1300.0000026	n/a	n/a	n/a	n/a	n/a	n/a	n/a	"2020-03-03 13:55:17.753017"	"2020-03-03 13:55:18.493759"	54	5.64173993333333
"S200303"	"Response_Inhibition"	"LEFT"	"LEFT"	552.907000000005	983.3333353	n/a	n/a	n/a	n/a	n/a	n/a	n/a	"2020-03-03 13:55:19.485460"	"2020-03-03 13:55:20.246945"	55	5.64173993333333
"S200303"	"Response_Inhibition"	"LEFT"	"Time_Max_Exceeded"	1500.05630030001	1283.3333359	n/a	n/a	n/a	n/a	n/a	n/a	n/a	"2020-03-03 13:55:21.539131"	"2020-03-03 13:55:23.042636"	56	5.64173993333333
"S200303"	"Response_Inhibition"	"RIGHT"	"RIGHT"	579.503199999976	583.3333345	n/a	n/a	n/a	n/a	n/a	n/a	n/a	"2020-03-03 13:55:23.635062"	"2020-03-03 13:55:24.422959"	57	5.64173993333333
"S200303"	"Response_Inhibition"	"RIGHT"	"RIGHT"	345.7537004	1250.0000025	n/a	n/a	n/a	n/a	n/a	n/a	n/a	"2020-03-03 13:55:25.681124"	"2020-03-03 13:55:26.239752"	58	5.64173993333333
"S200303"	"Response_Inhibition"	"RIGHT"	"RIGHT"	521.573200000034	683.3333347	n/a	n/a	n/a	n/a	n/a	n/a	n/a	"2020-03-03 13:55:26.932899"	"2020-03-03 13:55:27.662250"	59	5.64173993333333
"S200303"	"Response_Inhibition"	"RIGHT"	"RIGHT"	317.669900000055	850.0000017	n/a	n/a	n/a	n/a	n/a	n/a	n/a	"2020-03-03 13:55:28.521018"	"2020-03-03 13:55:29.046657"	60	5.64173993333333
"S200303"	"Response_Inhibition"	"RIGHT"	"RIGHT"	660.740500000088	583.3333345	n/a	n/a	n/a	n/a	n/a	n/a	n/a	"2020-03-03 13:55:29.641653"	"2020-03-03 13:55:30.510833"	61	5.64173993333333
"S200303"	"Response_Inhibition"	"RIGHT"	"RIGHT"	346.885100000009	900.0000018	n/a	n/a	n/a	n/a	n/a	n/a	n/a	"2020-03-03 13:55:31.419879"	"2020-03-03 13:55:31.974831"	62	5.64173993333333
"S200303"	"Response_Inhibition"	"LEFT"	"Time_Max_Exceeded"	1500.04693340005	550.0000011	n/a	n/a	n/a	n/a	n/a	n/a	n/a	"2020-03-03 13:55:32.533330"	"2020-03-03 13:55:34.036371"	63	5.64173993333333
"S200303"	"Response_Inhibition"	"RIGHT"	"RIGHT"	549.145399999929	683.3333347	n/a	n/a	n/a	n/a	n/a	n/a	n/a	"2020-03-03 13:55:34.729614"	"2020-03-03 13:55:35.486956"	64	5.64173993333333
"S200303"	"Response_Inhibition"	"RIGHT"	"RIGHT"	355.022300000087	700.0000014	n/a	n/a	n/a	n/a	n/a	n/a	n/a	"2020-03-03 13:55:36.195710"	"2020-03-03 13:55:36.758216"	65	5.64173993333333
"S200303"	"Response_Inhibition"	"LEFT"	"Time_Max_Exceeded"	1500.05726689998	950.0000019	n/a	n/a	n/a	n/a	n/a	n/a	n/a	"2020-03-03 13:55:37.716335"	"2020-03-03 13:55:39.219757"	66	5.64173993333333
"S200303"	"Response_Inhibition"	"LEFT"	"LEFT"	542.221199999972	1083.3333355	n/a	n/a	n/a	n/a	n/a	n/a	n/a	"2020-03-03 13:55:40.312280"	"2020-03-03 13:55:41.062872"	67	5.64173993333333
"S200303"	"Response_Inhibition"	"LEFT"	"LEFT"	441.225199999963	1350.0000027	n/a	n/a	n/a	n/a	n/a	n/a	n/a	"2020-03-03 13:55:42.421103"	"2020-03-03 13:55:43.069808"	68	5.64173993333333
"S200303"	"Response_Inhibition"	"RIGHT"	"RIGHT"	394.815900000026	533.3333344	n/a	n/a	n/a	n/a	n/a	n/a	n/a	"2020-03-03 13:55:43.612006"	"2020-03-03 13:55:44.213472"	69	5.64173993333333
"S200303"	"Response_Inhibition"	"RIGHT"	"RIGHT"	402.990799999998	916.6666685	n/a	n/a	n/a	n/a	n/a	n/a	n/a	"2020-03-03 13:55:45.139597"	"2020-03-03 13:55:45.749421"	70	5.64173993333333
"S200303"	"Response_Inhibition"	"LEFT"	"LEFT"	607.593100000031	1416.6666695	n/a	n/a	n/a	n/a	n/a	n/a	n/a	"2020-03-03 13:55:47.175009"	"2020-03-03 13:55:47.989246"	71	5.64173993333333
"S200303"	"Response_Inhibition"	"RIGHT"	"Time_Max_Exceeded"	1500.06380000002	1266.6666692	n/a	n/a	n/a	n/a	n/a	n/a	n/a	"2020-03-03 13:55:49.264244"	"2020-03-03 13:55:50.764857"	72	5.64173993333333
"S200303"	"Response_Inhibition"	"RIGHT"	"RIGHT"	366.399900000033	1466.6666696	n/a	n/a	n/a	n/a	n/a	n/a	n/a	"2020-03-03 13:55:52.239435"	"2020-03-03 13:55:52.813088"	73	5.64173993333333
"S200303"	"Response_Inhibition"	"LEFT"	"Time_Max_Exceeded"	1500.05023369996	1100.0000022	n/a	n/a	n/a	n/a	n/a	n/a	n/a	"2020-03-03 13:55:53.921419"	"2020-03-03 13:55:55.424547"	74	5.64173993333333
"S200303"	"Response_Inhibition"	"RIGHT"	"RIGHT"	446.968699999957	1083.3333355	n/a	n/a	n/a	n/a	n/a	n/a	n/a	"2020-03-03 13:55:56.519057"	"2020-03-03 13:55:57.174294"	75	5.64173993333333
"S200303"	"Response_Inhibition"	"LEFT"	"LEFT"	411.39069999997	500.000001	n/a	n/a	n/a	n/a	n/a	n/a	n/a	"2020-03-03 13:55:57.682712"	"2020-03-03 13:55:58.301250"	76	5.64173993333333
"S200303"	"Response_Inhibition"	"RIGHT"	"RIGHT"	631.846799999948	1416.6666695	n/a	n/a	n/a	n/a	n/a	n/a	n/a	"2020-03-03 13:55:59.726679"	"2020-03-03 13:56:00.566331"	77	5.64173993333333
"S200303"	"Response_Inhibition"	"RIGHT"	"RIGHT"	454.94640000004	816.6666683	n/a	n/a	n/a	n/a	n/a	n/a	n/a	"2020-03-03 13:56:01.391779"	"2020-03-03 13:56:02.054613"	78	5.64173993333333
"S200303"	"Response_Inhibition"	"RIGHT"	"RIGHT"	382.305999999971	1016.6666687	n/a	n/a	n/a	n/a	n/a	n/a	n/a	"2020-03-03 13:56:03.080192"	"2020-03-03 13:56:03.669383"	79	5.64173993333333
"S200303"	"Response_Inhibition"	"LEFT"	"Time_Max_Exceeded"	1500.04750009998	1150.0000023	n/a	n/a	n/a	n/a	n/a	n/a	n/a	"2020-03-03 13:56:04.828513"	"2020-03-03 13:56:06.331599"	80	5.64173993333333
"S200303"	"Response_Inhibition"	"RIGHT"	"RIGHT"	486.336199999982	1483.3333363	n/a	n/a	n/a	n/a	n/a	n/a	n/a	"2020-03-03 13:56:07.823947"	"2020-03-03 13:56:08.517914"	81	5.64173993333333
"S200303"	"Response_Inhibition"	"LEFT"	"LEFT"	584.777499999973	1183.3333357	n/a	n/a	n/a	n/a	n/a	n/a	n/a	"2020-03-03 13:56:09.709391"	"2020-03-03 13:56:10.501536"	82	5.64173993333333
"S200303"	"Response_Inhibition"	"LEFT"	"LEFT"	465.404799999988	783.3333349	n/a	n/a	n/a	n/a	n/a	n/a	n/a	"2020-03-03 13:56:11.293421"	"2020-03-03 13:56:11.966279"	83	5.64173993333333
"S200303"	"Response_Inhibition"	"RIGHT"	"RIGHT"	400.521799999979	1366.6666694	n/a	n/a	n/a	n/a	n/a	n/a	n/a	"2020-03-03 13:56:13.341860"	"2020-03-03 13:56:13.949871"	84	5.64173993333333
"S200303"	"Response_Inhibition"	"RIGHT"	"RIGHT"	436.252033899987	600.0000012	n/a	n/a	n/a	n/a	n/a	n/a	n/a	"2020-03-03 13:56:14.558573"	"2020-03-03 13:56:15.206848"	85	5.64173993333333
"S200303"	"Response_Inhibition"	"LEFT"	"LEFT"	334.698900000035	1000.000002	n/a	n/a	n/a	n/a	n/a	n/a	n/a	"2020-03-03 13:56:16.215835"	"2020-03-03 13:56:16.759889"	86	5.64173993333333
"S200303"	"Response_Inhibition"	"LEFT"	"LEFT"	530.057199999987	700.0000014	n/a	n/a	n/a	n/a	n/a	n/a	n/a	"2020-03-03 13:56:17.468114"	"2020-03-03 13:56:18.206009"	87	5.64173993333333
"S200303"	"Response_Inhibition"	"LEFT"	"Time_Max_Exceeded"	1500.05366679993	583.3333345	n/a	n/a	n/a	n/a	n/a	n/a	n/a	"2020-03-03 13:56:18.797477"	"2020-03-03 13:56:20.300898"	88	5.64173993333333
"S200303"	"Response_Inhibition"	"RIGHT"	"RIGHT"	428.373000000079	900.0000018	n/a	n/a	n/a	n/a	n/a	n/a	n/a	"2020-03-03 13:56:21.210086"	"2020-03-03 13:56:21.845534"	89	5.64173993333333
"S200303"	"Response_Inhibition"	"LEFT"	"LEFT"	380.488167000108	783.3333349	n/a	n/a	n/a	n/a	n/a	n/a	n/a	"2020-03-03 13:56:22.637892"	"2020-03-03 13:56:23.230293"	90	5.64173993333333
"S200303"	"Response_Inhibition"	"LEFT"	"LEFT"	422.454900000048	1216.6666691	n/a	n/a	n/a	n/a	n/a	n/a	n/a	"2020-03-03 13:56:24.455989"	"2020-03-03 13:56:25.086675"	91	5.64173993333333
"S200303"	"Response_Inhibition"	"RIGHT"	"RIGHT"	585.391100000038	950.0000019	n/a	n/a	n/a	n/a	n/a	n/a	n/a	"2020-03-03 13:56:26.044723"	"2020-03-03 13:56:26.839859"	92	5.64173993333333
"S200303"	"Response_Inhibition"	"LEFT"	"LEFT"	472.479200000066	733.3333348	n/a	n/a	n/a	n/a	n/a	n/a	n/a	"2020-03-03 13:56:27.582239"	"2020-03-03 13:56:28.261258"	93	5.64173993333333
"S200303"	"Response_Inhibition"	"LEFT"	"LEFT"	537.128499999994	1116.6666689	n/a	n/a	n/a	n/a	n/a	n/a	n/a	"2020-03-03 13:56:29.388964"	"2020-03-03 13:56:30.133819"	94	5.64173993333333
"S200303"	"Response_Inhibition"	"LEFT"	"Time_Max_Exceeded"	1500.05733350004	900.0000018	n/a	n/a	n/a	n/a	n/a	n/a	n/a	"2020-03-03 13:56:31.041952"	"2020-03-03 13:56:32.545814"	95	5.64173993333333
"S200303"	"Response_Inhibition"	"LEFT"	"LEFT"	493.948100000011	1133.3333356	n/a	n/a	n/a	n/a	n/a	n/a	n/a	"2020-03-03 13:56:33.688156"	"2020-03-03 13:56:34.390152"	96	5.64173993333333
"S200303"	"Response_Inhibition"	"LEFT"	"LEFT"	725.702800000022	1233.3333358	n/a	n/a	n/a	n/a	n/a	n/a	n/a	"2020-03-03 13:56:35.632697"	"2020-03-03 13:56:36.565839"	97	5.64173993333333
"S200303"	"Response_Inhibition"	"LEFT"	"LEFT"	387.564200499929	833.333335	n/a	n/a	n/a	n/a	n/a	n/a	n/a	"2020-03-03 13:56:37.407953"	"2020-03-03 13:56:38.006519"	98	5.64173993333333
"S200303"	"Response_Inhibition"	"LEFT"	"LEFT"	518.09609999998	633.3333346	n/a	n/a	n/a	n/a	n/a	n/a	n/a	"2020-03-03 13:56:38.647947"	"2020-03-03 13:56:39.374180"	99	5.64173993333333
"S200303"	"Response_Inhibition"	"LEFT"	"LEFT"	379.689600000006	900.0000018	n/a	n/a	n/a	n/a	n/a	n/a	n/a	"2020-03-03 13:56:40.282484"	"2020-03-03 13:56:40.870944"	100	5.64173993333333
"S200303"	"Response_Inhibition"	"RIGHT"	"RIGHT"	417.95860000002	516.6666677	n/a	n/a	n/a	n/a	n/a	n/a	n/a	"2020-03-03 13:56:41.396188"	"2020-03-03 13:56:42.022352"	101	5.64173993333333
"S200303"	"Response_Inhibition"	"RIGHT"	"RIGHT"	371.753466900072	1416.6666695	n/a	n/a	n/a	n/a	n/a	n/a	n/a	"2020-03-03 13:56:43.447438"	"2020-03-03 13:56:44.030480"	102	5.64173993333333
"S200303"	"Response_Inhibition"	"RIGHT"	"RIGHT"	450.388100499941	633.3333346	n/a	n/a	n/a	n/a	n/a	n/a	n/a	"2020-03-03 13:56:44.672764"	"2020-03-03 13:56:45.334213"	103	5.64173993333333
"S200303"	"Response_Inhibition"	"RIGHT"	"RIGHT"	606.700200000091	1216.6666691	n/a	n/a	n/a	n/a	n/a	n/a	n/a	"2020-03-03 13:56:46.559538"	"2020-03-03 13:56:47.373200"	104	5.64173993333333
"S200303"	"Response_Inhibition"	"RIGHT"	"RIGHT"	527.823399999988	1233.3333358	n/a	n/a	n/a	n/a	n/a	n/a	n/a	"2020-03-03 13:56:48.614715"	"2020-03-03 13:56:49.351033"	105	5.64173993333333
"S200303"	"Response_Inhibition"	"LEFT"	"LEFT"	419.124799999963	683.3333347	n/a	n/a	n/a	n/a	n/a	n/a	n/a	"2020-03-03 13:56:50.043182"	"2020-03-03 13:56:50.670854"	106	5.64173993333333
"S200303"	"Response_Inhibition"	"RIGHT"	"Time_Max_Exceeded"	1500.05173359997	1350.0000027	n/a	n/a	n/a	n/a	n/a	n/a	n/a	"2020-03-03 13:56:52.029670"	"2020-03-03 13:56:53.533397"	107	5.64173993333333
"S200303"	"Response_Inhibition"	"LEFT"	"LEFT"	527.097599999934	633.3333346	n/a	n/a	n/a	n/a	n/a	n/a	n/a	"2020-03-03 13:56:54.175314"	"2020-03-03 13:56:54.909350"	108	5.64173993333333
"S200303"	"Response_Inhibition"	"LEFT"	"Time_Max_Exceeded"	1500.07313370005	1400.0000028	n/a	n/a	n/a	n/a	n/a	n/a	n/a	"2020-03-03 13:56:56.317354"	"2020-03-03 13:56:57.821482"	109	5.64173993333333
"S200303"	"Response_Inhibition"	"RIGHT"	"Time_Max_Exceeded"	1500.04930010005	1066.6666688	n/a	n/a	n/a	n/a	n/a	n/a	n/a	"2020-03-03 13:56:58.896951"	"2020-03-03 13:57:00.400419"	110	5.64173993333333
"S200303"	"Response_Inhibition"	"LEFT"	"LEFT"	591.774600000008	533.3333344	n/a	n/a	n/a	n/a	n/a	n/a	n/a	"2020-03-03 13:57:00.942886"	"2020-03-03 13:57:01.742955"	111	5.64173993333333
"S200303"	"Response_Inhibition"	"RIGHT"	"Time_Max_Exceeded"	1500.05696709995	850.0000017	n/a	n/a	n/a	n/a	n/a	n/a	n/a	"2020-03-03 13:57:02.601669"	"2020-03-03 13:57:04.104351"	112	5.64173993333333
"S200303"	"Response_Inhibition"	"LEFT"	"LEFT"	485.394100000008	1383.3333361	n/a	n/a	n/a	n/a	n/a	n/a	n/a	"2020-03-03 13:57:05.496769"	"2020-03-03 13:57:06.190137"	113	5.64173993333333
"S200303"	"Response_Inhibition"	"RIGHT"	"Time_Max_Exceeded"	1500.05833380006	1050.0000021	n/a	n/a	n/a	n/a	n/a	n/a	n/a	"2020-03-03 13:57:07.248616"	"2020-03-03 13:57:08.751793"	114	5.64173993333333
"S200303"	"Response_Inhibition"	"RIGHT"	"RIGHT"	488.695300000018	500.000001	n/a	n/a	n/a	n/a	n/a	n/a	n/a	"2020-03-03 13:57:09.261608"	"2020-03-03 13:57:09.957440"	115	5.64173993333333
"S200303"	"Response_Inhibition"	"RIGHT"	"Time_Max_Exceeded"	1500.06403340008	933.3333352	n/a	n/a	n/a	n/a	n/a	n/a	n/a	"2020-03-03 13:57:10.898959"	"2020-03-03 13:57:12.402835"	116	5.64173993333333
"S200303"	"Response_Inhibition"	"LEFT"	"LEFT"	573.627800000054	533.3333344	n/a	n/a	n/a	n/a	n/a	n/a	n/a	"2020-03-03 13:57:12.944580"	"2020-03-03 13:57:13.726023"	117	5.64173993333333
"S200303"	"Response_Inhibition"	"RIGHT"	"RIGHT"	577.361899999914	1166.666669	n/a	n/a	n/a	n/a	n/a	n/a	n/a	"2020-03-03 13:57:14.900751"	"2020-03-03 13:57:15.686571"	118	5.64173993333333
"S200303"	"Response_Inhibition"	"RIGHT"	"RIGHT"	632.220299999972	1383.3333361	n/a	n/a	n/a	n/a	n/a	n/a	n/a	"2020-03-03 13:57:17.077909"	"2020-03-03 13:57:17.918704"	119	5.64173993333333
"S200303"	"Response_Inhibition"	"LEFT"	"LEFT"	417.351499999995	750.0000015	n/a	n/a	n/a	n/a	n/a	n/a	n/a	"2020-03-03 13:57:18.677012"	"2020-03-03 13:57:19.302911"	120	5.64173993333333
"S200303"	"Response_Inhibition"	"RIGHT"	"RIGHT"	380.937833899989	966.6666686	n/a	n/a	n/a	n/a	n/a	n/a	n/a	"2020-03-03 13:57:20.278340"	"2020-03-03 13:57:20.870788"	121	5.64173993333333
"S200303"	"Response_Inhibition"	"LEFT"	"LEFT"	675.235499999985	1100.0000022	n/a	n/a	n/a	n/a	n/a	n/a	n/a	"2020-03-03 13:57:21.979236"	"2020-03-03 13:57:22.862665"	122	5.64173993333333
"S200303"	"Response_Inhibition"	"LEFT"	"LEFT"	444.601700000021	666.666668	n/a	n/a	n/a	n/a	n/a	n/a	n/a	"2020-03-03 13:57:23.537493"	"2020-03-03 13:57:24.189371"	123	5.64173993333333
"S200303"	"Response_Inhibition"	"RIGHT"	"Time_Max_Exceeded"	1500.04630030003	883.3333351	n/a	n/a	n/a	n/a	n/a	n/a	n/a	"2020-03-03 13:57:25.080942"	"2020-03-03 13:57:26.585124"	124	5.64173993333333
"S200303"	"Response_Inhibition"	"RIGHT"	"Time_Max_Exceeded"	1500.05906720007	1150.0000023	n/a	n/a	n/a	n/a	n/a	n/a	n/a	"2020-03-03 13:57:27.744390"	"2020-03-03 13:57:29.248166"	125	5.64173993333333
"S200303"	"Response_Inhibition"	"RIGHT"	"RIGHT"	598.4148	983.3333353	n/a	n/a	n/a	n/a	n/a	n/a	n/a	"2020-03-03 13:57:30.240220"	"2020-03-03 13:57:31.046584"	126	5.64173993333333
"S200303"	"Response_Inhibition"	"LEFT"	"Time_Max_Exceeded"	1500.05903370001	716.6666681	n/a	n/a	n/a	n/a	n/a	n/a	n/a	"2020-03-03 13:57:31.771374"	"2020-03-03 13:57:33.275106"	127	5.64173993333333
"S200303"	"Response_Inhibition"	"LEFT"	"LEFT"	597.7441	916.6666685	n/a	n/a	n/a	n/a	n/a	n/a	n/a	"2020-03-03 13:57:34.200708"	"2020-03-03 13:57:35.005116"	128	5.64173993333333
"S200303"	"Response_Inhibition"	"RIGHT"	"RIGHT"	385.538999999994	783.3333349	n/a	n/a	n/a	n/a	n/a	n/a	n/a	"2020-03-03 13:57:35.797108"	"2020-03-03 13:57:36.390602"	129	5.64173993333333
"S200303"	"Response_Inhibition"	"LEFT"	"LEFT"	487.083999999982	1200.0000024	n/a	n/a	n/a	n/a	n/a	n/a	n/a	"2020-03-03 13:57:37.598773"	"2020-03-03 13:57:38.294328"	130	5.64173993333333
"S200303"	"Response_Inhibition"	"RIGHT"	"RIGHT"	418.483000000037	1333.333336	n/a	n/a	n/a	n/a	n/a	n/a	n/a	"2020-03-03 13:57:39.636161"	"2020-03-03 13:57:40.262288"	131	5.64173993333333
"S200303"	"Response_Inhibition"	"LEFT"	"LEFT"	505.015333899987	1050.0000021	n/a	n/a	n/a	n/a	n/a	n/a	n/a	"2020-03-03 13:57:41.321114"	"2020-03-03 13:57:42.039001"	132	5.64173993333333
"S200303"	"Response_Inhibition"	"LEFT"	"LEFT"	660.793600000034	1050.0000021	n/a	n/a	n/a	n/a	n/a	n/a	n/a	"2020-03-03 13:57:43.097329"	"2020-03-03 13:57:43.966988"	133	5.64173993333333
"S200303"	"Response_Inhibition"	"RIGHT"	"RIGHT"	424.758800000063	750.0000015	n/a	n/a	n/a	n/a	n/a	n/a	n/a	"2020-03-03 13:57:44.725955"	"2020-03-03 13:57:45.357100"	134	5.64173993333333
"S200303"	"Response_Inhibition"	"LEFT"	"Time_Max_Exceeded"	1500.06553340002	1033.3333354	n/a	n/a	n/a	n/a	n/a	n/a	n/a	"2020-03-03 13:57:46.398483"	"2020-03-03 13:57:47.901972"	135	5.64173993333333
"S200303"	"Response_Inhibition"	"LEFT"	"LEFT"	584.482200000025	966.6666686	n/a	n/a	n/a	n/a	n/a	n/a	n/a	"2020-03-03 13:57:48.878020"	"2020-03-03 13:57:49.670597"	136	5.64173993333333
"S200303"	"Response_Inhibition"	"LEFT"	"LEFT"	483.146899999952	1466.6666696	n/a	n/a	n/a	n/a	n/a	n/a	n/a	"2020-03-03 13:57:51.146995"	"2020-03-03 13:57:51.839013"	137	5.64173993333333
"S200303"	"Response_Inhibition"	"RIGHT"	"RIGHT"	457.885433799983	833.333335	n/a	n/a	n/a	n/a	n/a	n/a	n/a	"2020-03-03 13:57:52.681580"	"2020-03-03 13:57:53.350809"	138	5.64173993333333
"S200303"	"Response_Inhibition"	"RIGHT"	"RIGHT"	465.049900000054	950.0000019	n/a	n/a	n/a	n/a	n/a	n/a	n/a	"2020-03-03 13:57:54.309351"	"2020-03-03 13:57:54.982105"	139	5.64173993333333
"S200303"	"Response_Inhibition"	"RIGHT"	"Time_Max_Exceeded"	1500.058667	1450.0000029	n/a	n/a	n/a	n/a	n/a	n/a	n/a	"2020-03-03 13:57:56.439974"	"2020-03-03 13:57:57.944019"	140	5.64173993333333
"S200303"	"Response_Inhibition"	"RIGHT"	"RIGHT"	551.477067199969	650.0000013	n/a	n/a	n/a	n/a	n/a	n/a	n/a	"2020-03-03 13:57:58.603818"	"2020-03-03 13:57:59.366814"	141	5.64173993333333
"S200303"	"Response_Inhibition"	"RIGHT"	"RIGHT"	512.897899999984	1150.0000023	n/a	n/a	n/a	n/a	n/a	n/a	n/a	"2020-03-03 13:58:00.525762"	"2020-03-03 13:58:01.246834"	142	5.64173993333333
"S200303"	"Response_Inhibition"	"RIGHT"	"RIGHT"	603.268999999955	1283.3333359	n/a	n/a	n/a	n/a	n/a	n/a	n/a	"2020-03-03 13:58:02.538595"	"2020-03-03 13:58:03.349595"	143	5.64173993333333
"S200303"	"Response_Inhibition"	"LEFT"	"LEFT"	518.559699999969	816.6666683	n/a	n/a	n/a	n/a	n/a	n/a	n/a	"2020-03-03 13:58:04.175998"	"2020-03-03 13:58:04.903061"	144	5.64173993333333
"S200303"	"Response_Inhibition"	"RIGHT"	"RIGHT"	406.885699999975	1000.000002	n/a	n/a	n/a	n/a	n/a	n/a	n/a	"2020-03-03 13:58:05.911434"	"2020-03-03 13:58:06.526930"	145	5.64173993333333
"S200303"	"Response_Inhibition"	"LEFT"	"LEFT"	483.920500000067	850.0000017	n/a	n/a	n/a	n/a	n/a	n/a	n/a	"2020-03-03 13:58:07.386154"	"2020-03-03 13:58:08.077338"	146	5.64173993333333
"S200303"	"Response_Inhibition"	"LEFT"	"Time_Max_Exceeded"	1500.04660030004	650.0000013	n/a	n/a	n/a	n/a	n/a	n/a	n/a	"2020-03-03 13:58:08.735560"	"2020-03-03 13:58:10.238885"	147	5.64173993333333
"S200303"	"Response_Inhibition"	"LEFT"	"Time_Max_Exceeded"	1500.05820019999	1250.0000025	n/a	n/a	n/a	n/a	n/a	n/a	n/a	"2020-03-03 13:58:11.498697"	"2020-03-03 13:58:13.001620"	148	5.64173993333333
"S200303"	"Response_Inhibition"	"RIGHT"	"RIGHT"	836.206700000048	566.6666678	n/a	n/a	n/a	n/a	n/a	n/a	n/a	"2020-03-03 13:58:13.578033"	"2020-03-03 13:58:14.621072"	149	5.64173993333333
"S200303"	"Response_Inhibition"	"RIGHT"	"Time_Max_Exceeded"	1500.04780020004	783.3333349	n/a	n/a	n/a	n/a	n/a	n/a	n/a	"2020-03-03 13:58:15.413199"	"2020-03-03 13:58:16.915811"	150	5.64173993333333
"S200303"	"Response_Inhibition"	"RIGHT"	"RIGHT"	492.4982	1316.6666693	n/a	n/a	n/a	n/a	n/a	n/a	n/a	"2020-03-03 13:58:18.241605"	"2020-03-03 13:58:18.942773"	151	5.64173993333333
"S200303"	"Response_Inhibition"	"RIGHT"	"RIGHT"	582.359900000029	616.6666679	n/a	n/a	n/a	n/a	n/a	n/a	n/a	"2020-03-03 13:58:19.568286"	"2020-03-03 13:58:20.357630"	152	5.64173993333333
"S200303"	"Response_Inhibition"	"LEFT"	"LEFT"	624.528399999917	566.6666678	n/a	n/a	n/a	n/a	n/a	n/a	n/a	"2020-03-03 13:58:20.934101"	"2020-03-03 13:58:21.765676"	153	5.64173993333333
"S200303"	"Response_Inhibition"	"LEFT"	"LEFT"	335.785400000077	600.0000012	n/a	n/a	n/a	n/a	n/a	n/a	n/a	"2020-03-03 13:58:22.374082"	"2020-03-03 13:58:22.918135"	154	5.64173993333333
"S200303"	"Response_Inhibition"	"LEFT"	"LEFT"	464.242399999989	583.3333345	n/a	n/a	n/a	n/a	n/a	n/a	n/a	"2020-03-03 13:58:23.510185"	"2020-03-03 13:58:24.183025"	155	5.64173993333333
"S200303"	"Response_Inhibition"	"LEFT"	"LEFT"	514.220200000068	1316.6666693	n/a	n/a	n/a	n/a	n/a	n/a	n/a	"2020-03-03 13:58:25.507718"	"2020-03-03 13:58:26.229413"	156	5.64173993333333
"S200303"	"Response_Inhibition"	"RIGHT"	"Time_Max_Exceeded"	1500.04726679996	1200.0000024	n/a	n/a	n/a	n/a	n/a	n/a	n/a	"2020-03-03 13:58:27.438094"	"2020-03-03 13:58:28.941838"	157	5.64173993333333
"S200303"	"Response_Inhibition"	"RIGHT"	"RIGHT"	589.133299999958	1266.6666692	n/a	n/a	n/a	n/a	n/a	n/a	n/a	"2020-03-03 13:58:30.217530"	"2020-03-03 13:58:31.013506"	158	5.64173993333333
"S200303"	"Response_Inhibition"	"LEFT"	"LEFT"	371.728800399983	1433.3333362	n/a	n/a	n/a	n/a	n/a	n/a	n/a	"2020-03-03 13:58:32.455033"	"2020-03-03 13:58:33.037744"	159	5.64173993333333
"S200303"	"Response_Inhibition"	"LEFT"	"LEFT"	440.176399999928	950.0000019	n/a	n/a	n/a	n/a	n/a	n/a	n/a	"2020-03-03 13:58:33.998352"	"2020-03-03 13:58:34.645562"	160	5.64173993333333
"S200303"	"Response_Selection"	"RIGHT"	"RIGHT"	362.014399999964	916.6666685	n/a	n/a	n/a	n/a	n/a	n/a	n/a	"2020-03-03 13:50:55.412682"	"2020-03-03 13:50:55.983043"	1	2.80424
"S200303"	"Response_Selection"	"LEFT"	"LEFT"	307.433400000036	700.0000014	n/a	n/a	n/a	n/a	n/a	n/a	n/a	"2020-03-03 13:50:56.691364"	"2020-03-03 13:50:57.206940"	2	2.80424
"S200303"	"Response_Selection"	"LEFT"	"LEFT"	325.787300000002	633.3333346	n/a	n/a	n/a	n/a	n/a	n/a	n/a	"2020-03-03 13:50:57.848799"	"2020-03-03 13:50:58.382065"	3	2.80424
"S200303"	"Response_Selection"	"LEFT"	"LEFT"	342.994199999964	1416.6666695	n/a	n/a	n/a	n/a	n/a	n/a	n/a	"2020-03-03 13:50:59.808880"	"2020-03-03 13:51:00.359562"	4	2.80424
"S200303"	"Response_Selection"	"RIGHT"	"RIGHT"	298.944899999981	883.3333351	n/a	n/a	n/a	n/a	n/a	n/a	n/a	"2020-03-03 13:51:01.251415"	"2020-03-03 13:51:01.758093"	5	2.80424
"S200303"	"Response_Selection"	"RIGHT"	"RIGHT"	303.943600000025	1200.0000024	n/a	n/a	n/a	n/a	n/a	n/a	n/a	"2020-03-03 13:51:02.966628"	"2020-03-03 13:51:03.478259"	6	2.80424
"S200303"	"Response_Selection"	"LEFT"	"LEFT"	285.865899999976	833.333335	n/a	n/a	n/a	n/a	n/a	n/a	n/a	"2020-03-03 13:51:04.320327"	"2020-03-03 13:51:04.814375"	7	2.80424
"S200303"	"Response_Selection"	"RIGHT"	"RIGHT"	315.796900000009	500.000001	n/a	n/a	n/a	n/a	n/a	n/a	n/a	"2020-03-03 13:51:05.323031"	"2020-03-03 13:51:05.846157"	8	2.80424
"S200303"	"Response_Selection"	"RIGHT"	"RIGHT"	334.24930000001	650.0000013	n/a	n/a	n/a	n/a	n/a	n/a	n/a	"2020-03-03 13:51:06.504530"	"2020-03-03 13:51:07.046126"	9	2.80424
"S200303"	"Response_Selection"	"LEFT"	"LEFT"	276.802300000043	866.6666684	n/a	n/a	n/a	n/a	n/a	n/a	n/a	"2020-03-03 13:51:07.921894"	"2020-03-03 13:51:08.406746"	10	2.80424
"S200303"	"Response_Selection"	"RIGHT"	"RIGHT"	220.429999999965	1266.6666692	n/a	n/a	n/a	n/a	n/a	n/a	n/a	"2020-03-03 13:51:09.682091"	"2020-03-03 13:51:10.110147"	11	2.80424
"S200303"	"Response_Selection"	"LEFT"	"LEFT"	296.024100000011	1400.0000028	n/a	n/a	n/a	n/a	n/a	n/a	n/a	"2020-03-03 13:51:11.519029"	"2020-03-03 13:51:12.022791"	12	2.80424
"S200303"	"Response_Selection"	"LEFT"	"LEFT"	312.654899999984	1166.666669	n/a	n/a	n/a	n/a	n/a	n/a	n/a	"2020-03-03 13:51:13.197892"	"2020-03-03 13:51:13.718122"	13	2.80424
"S200303"	"Response_Selection"	"RIGHT"	"RIGHT"	252.211299999999	1466.6666696	n/a	n/a	n/a	n/a	n/a	n/a	n/a	"2020-03-03 13:51:15.194759"	"2020-03-03 13:51:15.654411"	14	2.80424
"S200303"	"Response_Selection"	"RIGHT"	"RIGHT"	315.172399999994	1316.6666693	n/a	n/a	n/a	n/a	n/a	n/a	n/a	"2020-03-03 13:51:16.979195"	"2020-03-03 13:51:17.502943"	15	2.80424
"S200303"	"Response_Selection"	"RIGHT"	"RIGHT"	345.406099999991	550.0000011	n/a	n/a	n/a	n/a	n/a	n/a	n/a	"2020-03-03 13:51:18.061454"	"2020-03-03 13:51:18.614938"	16	2.80424
"S200303"	"Response_Selection"	"RIGHT"	"RIGHT"	301.657499999976	833.333335	n/a	n/a	n/a	n/a	n/a	n/a	n/a	"2020-03-03 13:51:19.456691"	"2020-03-03 13:51:19.966372"	17	2.80424
"S200303"	"Response_Selection"	"LEFT"	"LEFT"	242.457000000002	933.3333352	n/a	n/a	n/a	n/a	n/a	n/a	n/a	"2020-03-03 13:51:20.907987"	"2020-03-03 13:51:21.357473"	18	2.80424
"S200303"	"Response_Selection"	"LEFT"	"LEFT"	258.525399999996	750.0000015	n/a	n/a	n/a	n/a	n/a	n/a	n/a	"2020-03-03 13:51:22.116109"	"2020-03-03 13:51:22.582880"	19	2.80424
"S200303"	"Response_Selection"	"LEFT"	"LEFT"	282.0155	1133.3333356	n/a	n/a	n/a	n/a	n/a	n/a	n/a	"2020-03-03 13:51:23.724554"	"2020-03-03 13:51:24.214390"	20	2.80424
"S200303"	"Response_Selection"	"RIGHT"	"RIGHT"	260.032099999989	700.0000014	n/a	n/a	n/a	n/a	n/a	n/a	n/a	"2020-03-03 13:51:24.922081"	"2020-03-03 13:51:25.390718"	21	2.80424
"S200303"	"Response_Selection"	"LEFT"	"LEFT"	247.33329999998	1200.0000024	n/a	n/a	n/a	n/a	n/a	n/a	n/a	"2020-03-03 13:51:26.599288"	"2020-03-03 13:51:27.054072"	22	2.80424
"S200303"	"Response_Selection"	"LEFT"	"LEFT"	264.444099999992	983.3333353	n/a	n/a	n/a	n/a	n/a	n/a	n/a	"2020-03-03 13:51:28.045986"	"2020-03-03 13:51:28.518769"	23	2.80424
"S200303"	"Response_Selection"	"LEFT"	"LEFT"	301.687500000014	1250.0000025	n/a	n/a	n/a	n/a	n/a	n/a	n/a	"2020-03-03 13:51:29.777200"	"2020-03-03 13:51:30.286172"	24	2.80424
"S200303"	"Response_Selection"	"LEFT"	"LEFT"	307.934799999998	1500.000003	n/a	n/a	n/a	n/a	n/a	n/a	n/a	"2020-03-03 13:51:31.794244"	"2020-03-03 13:51:32.309508"	25	2.80424
"S200303"	"Response_Selection"	"LEFT"	"LEFT"	288.472899999988	800.0000016	n/a	n/a	n/a	n/a	n/a	n/a	n/a	"2020-03-03 13:51:33.118127"	"2020-03-03 13:51:33.614308"	26	2.80424
"S200303"	"Response_Selection"	"LEFT"	"LEFT"	274.853299999961	533.3333344	n/a	n/a	n/a	n/a	n/a	n/a	n/a	"2020-03-03 13:51:34.155859"	"2020-03-03 13:51:34.638750"	27	2.80424
"S200303"	"Response_Selection"	"RIGHT"	"RIGHT"	271.308299999987	1216.6666691	n/a	n/a	n/a	n/a	n/a	n/a	n/a	"2020-03-03 13:51:35.863523"	"2020-03-03 13:51:36.343896"	28	2.80424
"S200303"	"Response_Selection"	"RIGHT"	"RIGHT"	257.022600000028	933.3333352	n/a	n/a	n/a	n/a	n/a	n/a	n/a	"2020-03-03 13:51:37.286010"	"2020-03-03 13:51:37.750457"	29	2.80424
"S200303"	"Response_Selection"	"RIGHT"	"RIGHT"	252.88599999999	1066.6666688	n/a	n/a	n/a	n/a	n/a	n/a	n/a	"2020-03-03 13:51:38.825921"	"2020-03-03 13:51:39.287700"	30	2.80424
"S200303"	"Response_Selection"	"RIGHT"	"RIGHT"	484.998099999984	1033.3333354	n/a	n/a	n/a	n/a	n/a	n/a	n/a	"2020-03-03 13:51:40.329569"	"2020-03-03 13:51:41.022734"	31	2.80424
"S200303"	"Response_Selection"	"LEFT"	"LEFT"	273.42550000003	1350.0000027	n/a	n/a	n/a	n/a	n/a	n/a	n/a	"2020-03-03 13:51:42.381437"	"2020-03-03 13:51:42.862714"	32	2.80424
"S200303"	"Response_Selection"	"RIGHT"	"RIGHT"	252.838800000006	866.6666684	n/a	n/a	n/a	n/a	n/a	n/a	n/a	"2020-03-03 13:51:43.737558"	"2020-03-03 13:51:44.198860"	33	2.80424
"S200303"	"Response_Selection"	"LEFT"	"RIGHT"	271.433600000023	600.0000012	n/a	n/a	n/a	n/a	n/a	n/a	n/a	"2020-03-03 13:51:44.807228"	"2020-03-03 13:51:45.286323"	34	2.80424
"S200303"	"Response_Selection"	"LEFT"	"LEFT"	290.452100000039	733.3333348	n/a	n/a	n/a	n/a	n/a	n/a	n/a	"2020-03-03 13:51:46.028551"	"2020-03-03 13:51:46.526118"	35	2.80424
"S200303"	"Response_Selection"	"RIGHT"	"RIGHT"	279.39120000002	1016.6666687	n/a	n/a	n/a	n/a	n/a	n/a	n/a	"2020-03-03 13:51:47.550794"	"2020-03-03 13:51:48.039984"	36	2.80424
"S200303"	"Response_Selection"	"RIGHT"	"RIGHT"	472.151800000006	750.0000015	n/a	n/a	n/a	n/a	n/a	n/a	n/a	"2020-03-03 13:51:48.798512"	"2020-03-03 13:51:49.478387"	37	2.80424
"S200303"	"Response_Selection"	"LEFT"	"LEFT"	257.469700000001	550.0000011	n/a	n/a	n/a	n/a	n/a	n/a	n/a	"2020-03-03 13:51:50.036847"	"2020-03-03 13:51:50.503615"	38	2.80424
"S200303"	"Response_Selection"	"RIGHT"	"RIGHT"	237.789700000008	1416.6666695	n/a	n/a	n/a	n/a	n/a	n/a	n/a	"2020-03-03 13:51:51.929166"	"2020-03-03 13:51:52.374651"	39	2.80424
"S200303"	"Response_Selection"	"LEFT"	"LEFT"	285.921900000005	1033.3333354	n/a	n/a	n/a	n/a	n/a	n/a	n/a	"2020-03-03 13:51:53.417002"	"2020-03-03 13:51:53.910704"	40	2.80424
"S200303"	"Response_Selection"	"RIGHT"	"RIGHT"	279.429300000004	600.0000012	n/a	n/a	n/a	n/a	n/a	n/a	n/a	"2020-03-03 13:51:54.518818"	"2020-03-03 13:51:55.009141"	41	2.80424
"S200303"	"Response_Selection"	"LEFT"	"LEFT"	292.0254	500.000001	n/a	n/a	n/a	n/a	n/a	n/a	n/a	"2020-03-03 13:51:55.522188"	"2020-03-03 13:51:56.023774"	42	2.80424
"S200303"	"Response_Selection"	"RIGHT"	"RIGHT"	285.173399999962	1400.0000028	n/a	n/a	n/a	n/a	n/a	n/a	n/a	"2020-03-03 13:51:57.433048"	"2020-03-03 13:51:57.927720"	43	2.80424
"S200303"	"Response_Selection"	"LEFT"	"LEFT"	272.639999999967	1316.6666693	n/a	n/a	n/a	n/a	n/a	n/a	n/a	"2020-03-03 13:51:59.254155"	"2020-03-03 13:51:59.734902"	44	2.80424
"S200303"	"Response_Selection"	"LEFT"	"LEFT"	333.873500000038	1016.6666687	n/a	n/a	n/a	n/a	n/a	n/a	n/a	"2020-03-03 13:52:00.760498"	"2020-03-03 13:52:01.302075"	45	2.80424
"S200303"	"Response_Selection"	"RIGHT"	"LEFT"	336.691599999995	966.6666686	n/a	n/a	n/a	n/a	n/a	n/a	n/a	"2020-03-03 13:52:02.278410"	"2020-03-03 13:52:02.822980"	46	2.80424
"S200303"	"Response_Selection"	"RIGHT"	"RIGHT"	283.314599999983	1300.0000026	n/a	n/a	n/a	n/a	n/a	n/a	n/a	"2020-03-03 13:52:04.131774"	"2020-03-03 13:52:04.622547"	47	2.80424
"S200303"	"Response_Selection"	"LEFT"	"LEFT"	312.295399999982	583.3333345	n/a	n/a	n/a	n/a	n/a	n/a	n/a	"2020-03-03 13:52:05.213919"	"2020-03-03 13:52:05.734941"	48	2.80424
"S200303"	"Response_Selection"	"LEFT"	"LEFT"	288.639100000012	966.6666686	n/a	n/a	n/a	n/a	n/a	n/a	n/a	"2020-03-03 13:52:06.710146"	"2020-03-03 13:52:07.206487"	49	2.80424
"S200303"	"Response_Selection"	"RIGHT"	"RIGHT"	301.663500000018	1250.0000025	n/a	n/a	n/a	n/a	n/a	n/a	n/a	"2020-03-03 13:52:08.464833"	"2020-03-03 13:52:08.974746"	50	2.80424
"S200303"	"Response_Selection"	"RIGHT"	"RIGHT"	353.514000000018	533.3333344	n/a	n/a	n/a	n/a	n/a	n/a	n/a	"2020-03-03 13:52:09.517251"	"2020-03-03 13:52:10.078959"	51	2.80424
"S200303"	"Response_Selection"	"LEFT"	"LEFT"	317.561899999987	1216.6666691	n/a	n/a	n/a	n/a	n/a	n/a	n/a	"2020-03-03 13:52:11.305049"	"2020-03-03 13:52:11.830833"	52	2.80424
"S200303"	"Response_Selection"	"RIGHT"	"RIGHT"	357.885500000009	633.3333346	n/a	n/a	n/a	n/a	n/a	n/a	n/a	"2020-03-03 13:52:12.472267"	"2020-03-03 13:52:13.038061"	53	2.80424
"S200303"	"Response_Selection"	"RIGHT"	"RIGHT"	307.144899999969	1116.6666689	n/a	n/a	n/a	n/a	n/a	n/a	n/a	"2020-03-03 13:52:14.163250"	"2020-03-03 13:52:14.678714"	54	2.80424
"S200303"	"Response_Selection"	"RIGHT"	"RIGHT"	322.025600000018	733.3333348	n/a	n/a	n/a	n/a	n/a	n/a	n/a	"2020-03-03 13:52:15.420503"	"2020-03-03 13:52:15.950182"	55	2.80424
"S200303"	"Response_Selection"	"LEFT"	"LEFT"	285.248800000033	1066.6666688	n/a	n/a	n/a	n/a	n/a	n/a	n/a	"2020-03-03 13:52:17.025440"	"2020-03-03 13:52:17.519020"	56	2.80424
"S200303"	"Response_Selection"	"LEFT"	"LEFT"	312.14030000001	1366.6666694	n/a	n/a	n/a	n/a	n/a	n/a	n/a	"2020-03-03 13:52:18.894051"	"2020-03-03 13:52:19.414196"	57	2.80424
"S200303"	"Response_Selection"	"LEFT"	"LEFT"	300.999700000034	1266.6666692	n/a	n/a	n/a	n/a	n/a	n/a	n/a	"2020-03-03 13:52:20.689523"	"2020-03-03 13:52:21.198691"	58	2.80424
"S200303"	"Response_Selection"	"LEFT"	"LEFT"	300.277199999982	1083.3333355	n/a	n/a	n/a	n/a	n/a	n/a	n/a	"2020-03-03 13:52:22.290153"	"2020-03-03 13:52:22.797250"	59	2.80424
"S200303"	"Response_Selection"	"RIGHT"	"RIGHT"	364.62640000002	1500.000003	n/a	n/a	n/a	n/a	n/a	n/a	n/a	"2020-03-03 13:52:24.305919"	"2020-03-03 13:52:24.878926"	60	2.80424
"S200303"	"Response_Selection"	"RIGHT"	"RIGHT"	465.77259999998	1133.3333356	n/a	n/a	n/a	n/a	n/a	n/a	n/a	"2020-03-03 13:52:26.021138"	"2020-03-03 13:52:26.695267"	61	2.80424
"S200303"	"Response_Selection"	"RIGHT"	"RIGHT"	310.858800000005	783.3333349	n/a	n/a	n/a	n/a	n/a	n/a	n/a	"2020-03-03 13:52:27.487499"	"2020-03-03 13:52:28.006859"	62	2.80424
"S200303"	"Response_Selection"	"LEFT"	"LEFT"	347.45410000005	683.3333347	n/a	n/a	n/a	n/a	n/a	n/a	n/a	"2020-03-03 13:52:28.699539"	"2020-03-03 13:52:29.254299"	63	2.80424
"S200303"	"Response_Selection"	"RIGHT"	"RIGHT"	272.587499999986	983.3333353	n/a	n/a	n/a	n/a	n/a	n/a	n/a	"2020-03-03 13:52:30.245782"	"2020-03-03 13:52:30.725531"	64	2.80424
"S200303"	"Response_Selection"	"LEFT"	"LEFT"	272.629499999994	783.3333349	n/a	n/a	n/a	n/a	n/a	n/a	n/a	"2020-03-03 13:52:31.517565"	"2020-03-03 13:52:31.998322"	65	2.80424
"S200303"	"Response_Selection"	"LEFT"	"LEFT"	285.773400000039	650.0000013	n/a	n/a	n/a	n/a	n/a	n/a	n/a	"2020-03-03 13:52:32.656401"	"2020-03-03 13:52:33.150608"	66	2.80424
"S200303"	"Response_Selection"	"LEFT"	"LEFT"	268.260800000007	1466.6666696	n/a	n/a	n/a	n/a	n/a	n/a	n/a	"2020-03-03 13:52:34.625850"	"2020-03-03 13:52:35.102194"	67	2.80424
"S200303"	"Response_Selection"	"RIGHT"	"RIGHT"	305.881199999988	1350.0000027	n/a	n/a	n/a	n/a	n/a	n/a	n/a	"2020-03-03 13:52:36.460505"	"2020-03-03 13:52:36.974177"	68	2.80424
"S200303"	"Response_Selection"	"RIGHT"	"RIGHT"	440.175399999987	800.0000016	n/a	n/a	n/a	n/a	n/a	n/a	n/a	"2020-03-03 13:52:37.782083"	"2020-03-03 13:52:38.430987"	69	2.80424
"S200303"	"Response_Selection"	"RIGHT"	"RIGHT"	308.037899999988	1083.3333355	n/a	n/a	n/a	n/a	n/a	n/a	n/a	"2020-03-03 13:52:39.522715"	"2020-03-03 13:52:40.038493"	70	2.80424
"S200303"	"Response_Selection"	"LEFT"	"LEFT"	284.324900000001	883.3333351	n/a	n/a	n/a	n/a	n/a	n/a	n/a	"2020-03-03 13:52:40.930399"	"2020-03-03 13:52:41.422089"	71	2.80424
"S200303"	"Response_Selection"	"LEFT"	"LEFT"	286.060200000009	1450.0000029	n/a	n/a	n/a	n/a	n/a	n/a	n/a	"2020-03-03 13:52:42.880216"	"2020-03-03 13:52:43.374623"	72	2.80424
"S200303"	"Response_Selection"	"RIGHT"	"RIGHT"	296.476100000007	1366.6666694	n/a	n/a	n/a	n/a	n/a	n/a	n/a	"2020-03-03 13:52:44.750141"	"2020-03-03 13:52:45.253397"	73	2.80424
"S200303"	"Response_Selection"	"LEFT"	"LEFT"	276.366300000007	1116.6666689	n/a	n/a	n/a	n/a	n/a	n/a	n/a	"2020-03-03 13:52:46.378278"	"2020-03-03 13:52:46.862821"	74	2.80424
"S200303"	"Response_Selection"	"RIGHT"	"RIGHT"	379.618499999992	683.3333347	n/a	n/a	n/a	n/a	n/a	n/a	n/a	"2020-03-03 13:52:47.554427"	"2020-03-03 13:52:48.142212"	75	2.80424
"S200303"	"Response_Selection"	"LEFT"	"LEFT"	258.076800000026	1300.0000026	n/a	n/a	n/a	n/a	n/a	n/a	n/a	"2020-03-03 13:52:49.452798"	"2020-03-03 13:52:49.918751"	76	2.80424
"S200303"	"Response_Selection"	"RIGHT"	"RIGHT"	301.146200000005	1450.0000029	n/a	n/a	n/a	n/a	n/a	n/a	n/a	"2020-03-03 13:52:51.377713"	"2020-03-03 13:52:51.885596"	77	2.80424
"S200303"	"Response_Selection"	"LEFT"	"LEFT"	283.810700000004	916.6666685	n/a	n/a	n/a	n/a	n/a	n/a	n/a	"2020-03-03 13:52:52.810180"	"2020-03-03 13:52:53.302873"	78	2.80424
"S200303"	"Response_Selection"	"RIGHT"	"RIGHT"	264.341900000034	1166.666669	n/a	n/a	n/a	n/a	n/a	n/a	n/a	"2020-03-03 13:52:54.477988"	"2020-03-03 13:52:54.950722"	79	2.80424
"S200303"	"Response_Selection"	"RIGHT"	"RIGHT"	325.244699999985	583.3333345	n/a	n/a	n/a	n/a	n/a	n/a	n/a	"2020-03-03 13:52:55.545271"	"2020-03-03 13:52:56.077377"	80	2.80424
