"Participant"	"Task"	"Stimulus_Side"	"Response"	"RT"	"ITI"	"Previous_Response"	"Previous_RT"	"Stop_Signal"	"Stop_Signal_RT"	"Conflict"	"Cue_Response"	"Cue_Response_RT"	"Trial_Onset"	"Trial_End"	"Trial_Order"	"Duration"
"S200212"	"Conflict_Resolution"	"LEFT"	"LEFT"	912.631399999896	850.0000017	n/a	n/a	n/a	n/a	"True"	n/a	n/a	"2020-02-12 10:48:29.732962"	"2020-02-12 10:48:30.853509"	1	5.87134225
"S200212"	"Conflict_Resolution"	"LEFT"	"LEFT"	458.103999999935	1466.6666696	n/a	n/a	n/a	n/a	"False"	n/a	n/a	"2020-02-12 10:48:32.339279"	"2020-02-12 10:48:33.005693"	2	5.87134225
"S200212"	"Conflict_Resolution"	"RIGHT"	"RIGHT"	395.315299999993	833.333335	n/a	n/a	n/a	n/a	"False"	n/a	n/a	"2020-02-12 10:48:33.857921"	"2020-02-12 10:48:34.460992"	3	5.87134225
"S200212"	"Conflict_Resolution"	"RIGHT"	"RIGHT"	396.487800000045	1050.0000021	n/a	n/a	n/a	n/a	"False"	n/a	n/a	"2020-02-12 10:48:35.528905"	"2020-02-12 10:48:36.132419"	4	5.87134225
"S200212"	"Conflict_Resolution"	"RIGHT"	"RIGHT"	378.033599999981	700.0000014	n/a	n/a	n/a	n/a	"False"	n/a	n/a	"2020-02-12 10:48:36.850791"	"2020-02-12 10:48:37.436414"	5	5.87134225
"S200212"	"Conflict_Resolution"	"RIGHT"	"LEFT"	423.417799999925	1333.333336	n/a	n/a	n/a	n/a	"True"	n/a	n/a	"2020-02-12 10:48:38.790191"	"2020-02-12 10:48:39.422861"	6	5.87134225
"S200212"	"Conflict_Resolution"	"LEFT"	"RIGHT"	521.742800000084	866.6666684	n/a	n/a	n/a	n/a	"True"	n/a	n/a	"2020-02-12 10:48:40.307669"	"2020-02-12 10:48:41.036281"	7	5.87134225
"S200212"	"Conflict_Resolution"	"RIGHT"	"RIGHT"	435.284699999897	883.3333351	n/a	n/a	n/a	n/a	"False"	n/a	n/a	"2020-02-12 10:48:41.938124"	"2020-02-12 10:48:42.581537"	8	5.87134225
"S200212"	"Conflict_Resolution"	"RIGHT"	"RIGHT"	530.459000000064	1050.0000021	n/a	n/a	n/a	n/a	"True"	n/a	n/a	"2020-02-12 10:48:43.651196"	"2020-02-12 10:48:44.389223"	9	5.87134225
"S200212"	"Conflict_Resolution"	"LEFT"	"LEFT"	486.340000000041	766.6666682	n/a	n/a	n/a	n/a	"True"	n/a	n/a	"2020-02-12 10:48:45.175233"	"2020-02-12 10:48:45.868089"	10	5.87134225
"S200212"	"Conflict_Resolution"	"RIGHT"	"RIGHT"	563.16819999995	700.0000014	n/a	n/a	n/a	n/a	"True"	n/a	n/a	"2020-02-12 10:48:46.586298"	"2020-02-12 10:48:47.357593"	11	5.87134225
"S200212"	"Conflict_Resolution"	"RIGHT"	"RIGHT"	489.326100000085	1283.3333359	n/a	n/a	n/a	n/a	"True"	n/a	n/a	"2020-02-12 10:48:48.659729"	"2020-02-12 10:48:49.357641"	12	5.87134225
"S200212"	"Conflict_Resolution"	"RIGHT"	"RIGHT"	397.447899999975	933.3333352	n/a	n/a	n/a	n/a	"False"	n/a	n/a	"2020-02-12 10:48:50.312121"	"2020-02-12 10:48:50.917713"	13	5.87134225
"S200212"	"Conflict_Resolution"	"LEFT"	"LEFT"	492.59440000003	1400.0000028	n/a	n/a	n/a	n/a	"True"	n/a	n/a	"2020-02-12 10:48:52.336771"	"2020-02-12 10:48:53.036084"	14	5.87134225
"S200212"	"Conflict_Resolution"	"RIGHT"	"RIGHT"	409.696199999985	900.0000018	n/a	n/a	n/a	n/a	"False"	n/a	n/a	"2020-02-12 10:48:53.955684"	"2020-02-12 10:48:54.573033"	15	5.87134225
"S200212"	"Conflict_Resolution"	"LEFT"	"LEFT"	416.540199999986	516.6666677	n/a	n/a	n/a	n/a	"False"	n/a	n/a	"2020-02-12 10:48:55.108589"	"2020-02-12 10:48:55.733161"	16	5.87134225
"S200212"	"Conflict_Resolution"	"LEFT"	"LEFT"	383.200399999964	1350.0000027	n/a	n/a	n/a	n/a	"False"	n/a	n/a	"2020-02-12 10:48:57.101695"	"2020-02-12 10:48:57.692271"	17	5.87134225
"S200212"	"Conflict_Resolution"	"LEFT"	"LEFT"	499.876800000038	1250.0000025	n/a	n/a	n/a	n/a	"True"	n/a	n/a	"2020-02-12 10:48:58.961620"	"2020-02-12 10:48:59.669862"	18	5.87134225
"S200212"	"Conflict_Resolution"	"RIGHT"	"RIGHT"	451.128499999982	633.3333346	n/a	n/a	n/a	n/a	"False"	n/a	n/a	"2020-02-12 10:49:00.322268"	"2020-02-12 10:49:00.981670"	19	5.87134225
"S200212"	"Conflict_Resolution"	"LEFT"	"LEFT"	475.057300000003	633.3333346	n/a	n/a	n/a	n/a	"True"	n/a	n/a	"2020-02-12 10:49:01.634075"	"2020-02-12 10:49:02.316162"	20	5.87134225
"S200212"	"Conflict_Resolution"	"RIGHT"	"RIGHT"	573.792600000047	1033.3333354	n/a	n/a	n/a	n/a	"False"	n/a	n/a	"2020-02-12 10:49:03.367300"	"2020-02-12 10:49:04.149604"	21	5.87134225
"S200212"	"Conflict_Resolution"	"LEFT"	"LEFT"	439.85710000004	950.0000019	n/a	n/a	n/a	n/a	"False"	n/a	n/a	"2020-02-12 10:49:05.117590"	"2020-02-12 10:49:05.765395"	22	5.87134225
"S200212"	"Conflict_Resolution"	"LEFT"	"LEFT"	435.838199999921	1416.6666695	n/a	n/a	n/a	n/a	"True"	n/a	n/a	"2020-02-12 10:49:07.200978"	"2020-02-12 10:49:07.845042"	23	5.87134225
"S200212"	"Conflict_Resolution"	"RIGHT"	"LEFT"	421.508500000073	1416.6666695	n/a	n/a	n/a	n/a	"True"	n/a	n/a	"2020-02-12 10:49:09.279578"	"2020-02-12 10:49:09.910638"	24	5.87134225
"S200212"	"Conflict_Resolution"	"LEFT"	"LEFT"	390.282400000046	1166.666669	n/a	n/a	n/a	n/a	"False"	n/a	n/a	"2020-02-12 10:49:11.094593"	"2020-02-12 10:49:11.693039"	25	5.87134225
"S200212"	"Conflict_Resolution"	"LEFT"	"LEFT"	364.592300000027	1216.6666691	n/a	n/a	n/a	n/a	"False"	n/a	n/a	"2020-02-12 10:49:12.928144"	"2020-02-12 10:49:13.500240"	26	5.87134225
"S200212"	"Conflict_Resolution"	"RIGHT"	"RIGHT"	406.467000000021	733.3333348	n/a	n/a	n/a	n/a	"False"	n/a	n/a	"2020-02-12 10:49:14.254930"	"2020-02-12 10:49:14.870635"	27	5.87134225
"S200212"	"Conflict_Resolution"	"LEFT"	"LEFT"	421.504099999993	1000.000002	n/a	n/a	n/a	n/a	"True"	n/a	n/a	"2020-02-12 10:49:15.888593"	"2020-02-12 10:49:16.517510"	28	5.87134225
"S200212"	"Conflict_Resolution"	"RIGHT"	"RIGHT"	497.246099999984	883.3333351	n/a	n/a	n/a	n/a	"True"	n/a	n/a	"2020-02-12 10:49:17.420302"	"2020-02-12 10:49:18.124573"	29	5.87134225
"S200212"	"Conflict_Resolution"	"LEFT"	"LEFT"	360.912699999972	916.6666685	n/a	n/a	n/a	n/a	"False"	n/a	n/a	"2020-02-12 10:49:19.060012"	"2020-02-12 10:49:19.629708"	30	5.87134225
"S200212"	"Conflict_Resolution"	"LEFT"	"LEFT"	378.369199999952	850.0000017	n/a	n/a	n/a	n/a	"False"	n/a	n/a	"2020-02-12 10:49:20.499077"	"2020-02-12 10:49:21.085506"	31	5.87134225
"S200212"	"Conflict_Resolution"	"LEFT"	"LEFT"	341.371500000037	766.6666682	n/a	n/a	n/a	n/a	"False"	n/a	n/a	"2020-02-12 10:49:21.872028"	"2020-02-12 10:49:22.420697"	32	5.87134225
"S200212"	"Conflict_Resolution"	"RIGHT"	"RIGHT"	449.702000000002	1100.0000022	n/a	n/a	n/a	n/a	"True"	n/a	n/a	"2020-02-12 10:49:23.539327"	"2020-02-12 10:49:24.197754"	33	5.87134225
"S200212"	"Conflict_Resolution"	"LEFT"	"LEFT"	361.578299999906	1066.6666688	n/a	n/a	n/a	n/a	"False"	n/a	n/a	"2020-02-12 10:49:25.283206"	"2020-02-12 10:49:25.852461"	34	5.87134225
"S200212"	"Conflict_Resolution"	"RIGHT"	"RIGHT"	292.910900000038	1416.6666695	n/a	n/a	n/a	n/a	"False"	n/a	n/a	"2020-02-12 10:49:27.288141"	"2020-02-12 10:49:27.787960"	35	5.87134225
"S200212"	"Conflict_Resolution"	"LEFT"	"LEFT"	429.110100000003	1216.6666691	n/a	n/a	n/a	n/a	"True"	n/a	n/a	"2020-02-12 10:49:29.023813"	"2020-02-12 10:49:29.661583"	36	5.87134225
"S200212"	"Conflict_Resolution"	"RIGHT"	"RIGHT"	308.494399999972	800.0000016	n/a	n/a	n/a	n/a	"False"	n/a	n/a	"2020-02-12 10:49:30.480485"	"2020-02-12 10:49:30.997832"	37	5.87134225
"S200212"	"Conflict_Resolution"	"LEFT"	"LEFT"	344.178599999964	1100.0000022	n/a	n/a	n/a	n/a	"False"	n/a	n/a	"2020-02-12 10:49:32.116671"	"2020-02-12 10:49:32.669671"	38	5.87134225
"S200212"	"Conflict_Resolution"	"RIGHT"	"RIGHT"	552.384400000051	1133.3333356	n/a	n/a	n/a	n/a	"True"	n/a	n/a	"2020-02-12 10:49:33.821149"	"2020-02-12 10:49:34.581619"	39	5.87134225
"S200212"	"Conflict_Resolution"	"RIGHT"	"RIGHT"	511.415799999895	500.000001	n/a	n/a	n/a	n/a	"True"	n/a	n/a	"2020-02-12 10:49:35.101843"	"2020-02-12 10:49:35.821712"	40	5.87134225
"S200212"	"Conflict_Resolution"	"LEFT"	"LEFT"	435.534299999972	616.6666679	n/a	n/a	n/a	n/a	"True"	n/a	n/a	"2020-02-12 10:49:36.458108"	"2020-02-12 10:49:37.101301"	41	5.87134225
"S200212"	"Conflict_Resolution"	"RIGHT"	"RIGHT"	470.666899999969	1150.0000023	n/a	n/a	n/a	n/a	"True"	n/a	n/a	"2020-02-12 10:49:38.270213"	"2020-02-12 10:49:38.949150"	42	5.87134225
"S200212"	"Conflict_Resolution"	"RIGHT"	"RIGHT"	336.912299999995	1333.333336	n/a	n/a	n/a	n/a	"False"	n/a	n/a	"2020-02-12 10:49:40.300616"	"2020-02-12 10:49:40.845882"	43	5.87134225
"S200212"	"Conflict_Resolution"	"RIGHT"	"RIGHT"	462.460399999941	783.3333349	n/a	n/a	n/a	n/a	"True"	n/a	n/a	"2020-02-12 10:49:41.646861"	"2020-02-12 10:49:42.317605"	44	5.87134225
"S200212"	"Conflict_Resolution"	"RIGHT"	"RIGHT"	449.906700000042	633.3333346	n/a	n/a	n/a	n/a	"True"	n/a	n/a	"2020-02-12 10:49:42.971608"	"2020-02-12 10:49:43.629797"	45	5.87134225
"S200212"	"Conflict_Resolution"	"RIGHT"	"RIGHT"	308.975700000019	1183.3333357	n/a	n/a	n/a	n/a	"False"	n/a	n/a	"2020-02-12 10:49:44.831778"	"2020-02-12 10:49:45.348412"	46	5.87134225
"S200212"	"Conflict_Resolution"	"LEFT"	"RIGHT"	343.005100000028	966.6666686	n/a	n/a	n/a	n/a	"True"	n/a	n/a	"2020-02-12 10:49:46.333849"	"2020-02-12 10:49:46.885679"	47	5.87134225
"S200212"	"Conflict_Resolution"	"LEFT"	"LEFT"	414.285599999971	716.6666681	n/a	n/a	n/a	n/a	"True"	n/a	n/a	"2020-02-12 10:49:47.623250"	"2020-02-12 10:49:48.245128"	48	5.87134225
"S200212"	"Conflict_Resolution"	"LEFT"	"LEFT"	375.29649999999	1116.6666689	n/a	n/a	n/a	n/a	"False"	n/a	n/a	"2020-02-12 10:49:49.381434"	"2020-02-12 10:49:49.965885"	49	5.87134225
"S200212"	"Conflict_Resolution"	"LEFT"	"LEFT"	390.993899999899	1316.6666693	n/a	n/a	n/a	n/a	"False"	n/a	n/a	"2020-02-12 10:49:51.302159"	"2020-02-12 10:49:51.901550"	50	5.87134225
"S200212"	"Conflict_Resolution"	"RIGHT"	"RIGHT"	356.191699999954	850.0000017	n/a	n/a	n/a	n/a	"False"	n/a	n/a	"2020-02-12 10:49:52.769407"	"2020-02-12 10:49:53.333899"	51	5.87134225
"S200212"	"Conflict_Resolution"	"RIGHT"	"RIGHT"	495.568800000001	750.0000015	n/a	n/a	n/a	n/a	"True"	n/a	n/a	"2020-02-12 10:49:54.101549"	"2020-02-12 10:49:54.805869"	52	5.87134225
"S200212"	"Conflict_Resolution"	"LEFT"	"LEFT"	430.29480000007	733.3333348	n/a	n/a	n/a	n/a	"True"	n/a	n/a	"2020-02-12 10:49:55.558802"	"2020-02-12 10:49:56.196631"	53	5.87134225
"S200212"	"Conflict_Resolution"	"LEFT"	"LEFT"	415.998800000011	566.6666678	n/a	n/a	n/a	n/a	"False"	n/a	n/a	"2020-02-12 10:49:56.781070"	"2020-02-12 10:49:57.405678"	54	5.87134225
"S200212"	"Conflict_Resolution"	"LEFT"	"LEFT"	366.782199999989	733.3333348	n/a	n/a	n/a	n/a	"False"	n/a	n/a	"2020-02-12 10:49:58.158217"	"2020-02-12 10:49:58.733036"	55	5.87134225
"S200212"	"Conflict_Resolution"	"RIGHT"	"RIGHT"	448.590500000023	900.0000018	n/a	n/a	n/a	n/a	"True"	n/a	n/a	"2020-02-12 10:49:59.652960"	"2020-02-12 10:50:00.309887"	56	5.87134225
"S200212"	"Conflict_Resolution"	"LEFT"	"LEFT"	328.906200000006	716.6666681	n/a	n/a	n/a	n/a	"False"	n/a	n/a	"2020-02-12 10:50:01.043950"	"2020-02-12 10:50:01.580948"	57	5.87134225
"S200212"	"Conflict_Resolution"	"RIGHT"	"RIGHT"	406.796899999904	950.0000019	n/a	n/a	n/a	n/a	"True"	n/a	n/a	"2020-02-12 10:50:02.550820"	"2020-02-12 10:50:03.165788"	58	5.87134225
"S200212"	"Conflict_Resolution"	"RIGHT"	"RIGHT"	468.124500000044	800.0000016	n/a	n/a	n/a	n/a	"True"	n/a	n/a	"2020-02-12 10:50:03.984740"	"2020-02-12 10:50:04.661521"	59	5.87134225
"S200212"	"Conflict_Resolution"	"LEFT"	"LEFT"	538.002399999982	1466.6666696	n/a	n/a	n/a	n/a	"True"	n/a	n/a	"2020-02-12 10:50:06.147597"	"2020-02-12 10:50:06.892628"	60	5.87134225
"S200212"	"Conflict_Resolution"	"LEFT"	"LEFT"	361.989699999981	1500.000003	n/a	n/a	n/a	n/a	"False"	n/a	n/a	"2020-02-12 10:50:08.411217"	"2020-02-12 10:50:08.980412"	61	5.87134225
"S200212"	"Conflict_Resolution"	"RIGHT"	"RIGHT"	429.627499999924	600.0000012	n/a	n/a	n/a	n/a	"True"	n/a	n/a	"2020-02-12 10:50:09.599335"	"2020-02-12 10:50:10.237662"	62	5.87134225
"S200212"	"Conflict_Resolution"	"LEFT"	"RIGHT"	362.055800000007	1266.6666692	n/a	n/a	n/a	n/a	"True"	n/a	n/a	"2020-02-12 10:50:11.522874"	"2020-02-12 10:50:12.092924"	63	5.87134225
"S200212"	"Conflict_Resolution"	"LEFT"	"LEFT"	324.435999999992	816.6666683	n/a	n/a	n/a	n/a	"False"	n/a	n/a	"2020-02-12 10:50:12.928446"	"2020-02-12 10:50:13.462710"	64	5.87134225
"S200212"	"Conflict_Resolution"	"RIGHT"	"RIGHT"	444.771199999991	583.3333345	n/a	n/a	n/a	n/a	"True"	n/a	n/a	"2020-02-12 10:50:14.064678"	"2020-02-12 10:50:14.717770"	65	5.87134225
"S200212"	"Conflict_Resolution"	"RIGHT"	"RIGHT"	451.783399999954	1233.3333358	n/a	n/a	n/a	n/a	"True"	n/a	n/a	"2020-02-12 10:50:15.970314"	"2020-02-12 10:50:16.629336"	66	5.87134225
"S200212"	"Conflict_Resolution"	"RIGHT"	"RIGHT"	347.35169999999	1233.3333358	n/a	n/a	n/a	n/a	"False"	n/a	n/a	"2020-02-12 10:50:17.882307"	"2020-02-12 10:50:18.436899"	67	5.87134225
"S200212"	"Conflict_Resolution"	"RIGHT"	"RIGHT"	357.595999999944	1366.6666694	n/a	n/a	n/a	n/a	"False"	n/a	n/a	"2020-02-12 10:50:19.823537"	"2020-02-12 10:50:20.389888"	68	5.87134225
"S200212"	"Conflict_Resolution"	"LEFT"	"LEFT"	490.313599999922	666.666668	n/a	n/a	n/a	n/a	"True"	n/a	n/a	"2020-02-12 10:50:21.074510"	"2020-02-12 10:50:21.773678"	69	5.87134225
"S200212"	"Conflict_Resolution"	"LEFT"	"LEFT"	462.348099999986	583.3333345	n/a	n/a	n/a	n/a	"True"	n/a	n/a	"2020-02-12 10:50:22.374279"	"2020-02-12 10:50:23.044284"	70	5.87134225
"S200212"	"Conflict_Resolution"	"LEFT"	"LEFT"	509.867100000065	566.6666678	n/a	n/a	n/a	n/a	"True"	n/a	n/a	"2020-02-12 10:50:23.631825"	"2020-02-12 10:50:24.349038"	71	5.87134225
"S200212"	"Conflict_Resolution"	"LEFT"	"LEFT"	375.948999999991	1300.0000026	n/a	n/a	n/a	n/a	"False"	n/a	n/a	"2020-02-12 10:50:25.668987"	"2020-02-12 10:50:26.252018"	72	5.87134225
"S200212"	"Conflict_Resolution"	"LEFT"	"RIGHT"	394.16540000002	533.3333344	n/a	n/a	n/a	n/a	"True"	n/a	n/a	"2020-02-12 10:50:26.802512"	"2020-02-12 10:50:27.404444"	73	5.87134225
"S200212"	"Conflict_Resolution"	"LEFT"	"LEFT"	394.63109999997	1016.6666687	n/a	n/a	n/a	n/a	"False"	n/a	n/a	"2020-02-12 10:50:28.442209"	"2020-02-12 10:50:29.045355"	74	5.87134225
"S200212"	"Conflict_Resolution"	"RIGHT"	"RIGHT"	459.472399999981	600.0000012	n/a	n/a	n/a	n/a	"False"	n/a	n/a	"2020-02-12 10:50:29.665731"	"2020-02-12 10:50:30.333942"	75	5.87134225
"S200212"	"Conflict_Resolution"	"LEFT"	"LEFT"	462.424699999929	1150.0000023	n/a	n/a	n/a	n/a	"True"	n/a	n/a	"2020-02-12 10:50:31.502656"	"2020-02-12 10:50:32.173802"	76	5.87134225
"S200212"	"Conflict_Resolution"	"RIGHT"	"RIGHT"	465.746999999965	650.0000013	n/a	n/a	n/a	n/a	"True"	n/a	n/a	"2020-02-12 10:50:32.843434"	"2020-02-12 10:50:33.517779"	77	5.87134225
"S200212"	"Conflict_Resolution"	"LEFT"	"LEFT"	360.135799999966	900.0000018	n/a	n/a	n/a	n/a	"False"	n/a	n/a	"2020-02-12 10:50:34.437378"	"2020-02-12 10:50:35.004979"	78	5.87134225
"S200212"	"Conflict_Resolution"	"LEFT"	"LEFT"	573.209999999904	950.0000019	n/a	n/a	n/a	n/a	"True"	n/a	n/a	"2020-02-12 10:50:35.976012"	"2020-02-12 10:50:36.757505"	79	5.87134225
"S200212"	"Conflict_Resolution"	"RIGHT"	"RIGHT"	532.710800000018	833.333335	n/a	n/a	n/a	n/a	"True"	n/a	n/a	"2020-02-12 10:50:37.608825"	"2020-02-12 10:50:38.349661"	80	5.87134225
"S200212"	"Conflict_Resolution"	"LEFT"	"LEFT"	506.481800000074	816.6666683	n/a	n/a	n/a	n/a	"True"	n/a	n/a	"2020-02-12 10:50:39.187005"	"2020-02-12 10:50:39.901751"	81	5.87134225
"S200212"	"Conflict_Resolution"	"RIGHT"	"RIGHT"	439.738000000034	1316.6666693	n/a	n/a	n/a	n/a	"False"	n/a	n/a	"2020-02-12 10:50:41.237599"	"2020-02-12 10:50:41.885852"	82	5.87134225
"S200212"	"Conflict_Resolution"	"LEFT"	"LEFT"	444.191200000091	1416.6666695	n/a	n/a	n/a	n/a	"False"	n/a	n/a	"2020-02-12 10:50:43.321141"	"2020-02-12 10:50:43.973071"	83	5.87134225
"S200212"	"Conflict_Resolution"	"RIGHT"	"RIGHT"	473.691599999938	1483.3333363	n/a	n/a	n/a	n/a	"True"	n/a	n/a	"2020-02-12 10:50:45.475139"	"2020-02-12 10:50:46.156497"	84	5.87134225
"S200212"	"Conflict_Resolution"	"RIGHT"	"RIGHT"	516.114700000003	1433.3333362	n/a	n/a	n/a	n/a	"False"	n/a	n/a	"2020-02-12 10:50:47.608673"	"2020-02-12 10:50:48.333730"	85	5.87134225
"S200212"	"Conflict_Resolution"	"RIGHT"	"RIGHT"	391.635400000041	750.0000015	n/a	n/a	n/a	n/a	"False"	n/a	n/a	"2020-02-12 10:50:49.102830"	"2020-02-12 10:50:49.701341"	86	5.87134225
"S200212"	"Conflict_Resolution"	"RIGHT"	"RIGHT"	522.192000000018	1266.6666692	n/a	n/a	n/a	n/a	"True"	n/a	n/a	"2020-02-12 10:50:50.987207"	"2020-02-12 10:50:51.717012"	87	5.87134225
"S200212"	"Conflict_Resolution"	"RIGHT"	"RIGHT"	468.54959999996	1000.000002	n/a	n/a	n/a	n/a	"True"	n/a	n/a	"2020-02-12 10:50:52.736986"	"2020-02-12 10:50:53.413806"	88	5.87134225
"S200212"	"Conflict_Resolution"	"LEFT"	"LEFT"	473.358500000018	1066.6666688	n/a	n/a	n/a	n/a	"True"	n/a	n/a	"2020-02-12 10:50:54.500184"	"2020-02-12 10:50:55.180066"	89	5.87134225
"S200212"	"Conflict_Resolution"	"LEFT"	"LEFT"	442.689099999939	783.3333349	n/a	n/a	n/a	n/a	"True"	n/a	n/a	"2020-02-12 10:50:55.986570"	"2020-02-12 10:50:56.638566"	90	5.87134225
"S200212"	"Conflict_Resolution"	"LEFT"	"LEFT"	456.073399999923	1300.0000026	n/a	n/a	n/a	n/a	"True"	n/a	n/a	"2020-02-12 10:50:57.957155"	"2020-02-12 10:50:58.621767"	91	5.87134225
"S200212"	"Conflict_Resolution"	"RIGHT"	"RIGHT"	483.946299999957	1383.3333361	n/a	n/a	n/a	n/a	"True"	n/a	n/a	"2020-02-12 10:51:00.025576"	"2020-02-12 10:51:00.717617"	92	5.87134225
"S200212"	"Conflict_Resolution"	"RIGHT"	"RIGHT"	405.912000000058	1000.000002	n/a	n/a	n/a	n/a	"False"	n/a	n/a	"2020-02-12 10:51:01.734910"	"2020-02-12 10:51:02.349343"	93	5.87134225
"S200212"	"Conflict_Resolution"	"LEFT"	"LEFT"	454.11880000006	1200.0000024	n/a	n/a	n/a	n/a	"True"	n/a	n/a	"2020-02-12 10:51:03.567196"	"2020-02-12 10:51:04.228976"	94	5.87134225
"S200212"	"Conflict_Resolution"	"LEFT"	"LEFT"	459.399199999893	1050.0000021	n/a	n/a	n/a	n/a	"True"	n/a	n/a	"2020-02-12 10:51:05.298073"	"2020-02-12 10:51:05.965210"	95	5.87134225
"S200212"	"Conflict_Resolution"	"RIGHT"	"RIGHT"	397.903999999926	1383.3333361	n/a	n/a	n/a	n/a	"False"	n/a	n/a	"2020-02-12 10:51:07.367619"	"2020-02-12 10:51:07.972687"	96	5.87134225
"S200212"	"Conflict_Resolution"	"LEFT"	"LEFT"	431.653100000062	533.3333344	n/a	n/a	n/a	n/a	"False"	n/a	n/a	"2020-02-12 10:51:08.525215"	"2020-02-12 10:51:09.165213"	97	5.87134225
"S200212"	"Conflict_Resolution"	"LEFT"	"LEFT"	393.148399999973	683.3333347	n/a	n/a	n/a	n/a	"False"	n/a	n/a	"2020-02-12 10:51:09.867553"	"2020-02-12 10:51:10.469069"	98	5.87134225
"S200212"	"Conflict_Resolution"	"LEFT"	"LEFT"	448.375800000008	900.0000018	n/a	n/a	n/a	n/a	"True"	n/a	n/a	"2020-02-12 10:51:11.388783"	"2020-02-12 10:51:12.044623"	99	5.87134225
"S200212"	"Conflict_Resolution"	"LEFT"	"LEFT"	373.182199999974	1400.0000028	n/a	n/a	n/a	n/a	"False"	n/a	n/a	"2020-02-12 10:51:13.463735"	"2020-02-12 10:51:14.045801"	100	5.87134225
"S200212"	"Conflict_Resolution"	"RIGHT"	"RIGHT"	374.611100000038	1133.3333356	n/a	n/a	n/a	n/a	"False"	n/a	n/a	"2020-02-12 10:51:15.198338"	"2020-02-12 10:51:15.781339"	101	5.87134225
"S200212"	"Conflict_Resolution"	"LEFT"	"LEFT"	543.534700000009	1500.000003	n/a	n/a	n/a	n/a	"True"	n/a	n/a	"2020-02-12 10:51:17.301608"	"2020-02-12 10:51:18.053647"	102	5.87134225
"S200212"	"Conflict_Resolution"	"LEFT"	"LEFT"	495.601399999941	1316.6666693	n/a	n/a	n/a	n/a	"True"	n/a	n/a	"2020-02-12 10:51:19.389797"	"2020-02-12 10:51:20.093945"	103	5.87134225
"S200212"	"Conflict_Resolution"	"LEFT"	"LEFT"	455.184000000031	1100.0000022	n/a	n/a	n/a	n/a	"True"	n/a	n/a	"2020-02-12 10:51:21.213916"	"2020-02-12 10:51:21.877759"	104	5.87134225
"S200212"	"Conflict_Resolution"	"LEFT"	"LEFT"	389.566999999943	1366.6666694	n/a	n/a	n/a	n/a	"False"	n/a	n/a	"2020-02-12 10:51:23.263687"	"2020-02-12 10:51:23.861309"	105	5.87134225
"S200212"	"Conflict_Resolution"	"RIGHT"	"RIGHT"	554.650300000048	683.3333347	n/a	n/a	n/a	n/a	"True"	n/a	n/a	"2020-02-12 10:51:24.562601"	"2020-02-12 10:51:25.325964"	106	5.87134225
"S200212"	"Conflict_Resolution"	"LEFT"	"LEFT"	439.470300000039	1350.0000027	n/a	n/a	n/a	n/a	"True"	n/a	n/a	"2020-02-12 10:51:26.693393"	"2020-02-12 10:51:27.341728"	107	5.87134225
"S200212"	"Conflict_Resolution"	"LEFT"	"LEFT"	347.226400000068	1266.6666692	n/a	n/a	n/a	n/a	"False"	n/a	n/a	"2020-02-12 10:51:28.625940"	"2020-02-12 10:51:29.181034"	108	5.87134225
"S200212"	"Conflict_Resolution"	"RIGHT"	"RIGHT"	524.332500000014	1216.6666691	n/a	n/a	n/a	n/a	"True"	n/a	n/a	"2020-02-12 10:51:30.417241"	"2020-02-12 10:51:31.149163"	109	5.87134225
"S200212"	"Conflict_Resolution"	"LEFT"	"LEFT"	452.237299999979	1166.666669	n/a	n/a	n/a	n/a	"True"	n/a	n/a	"2020-02-12 10:51:32.337245"	"2020-02-12 10:51:32.997480"	110	5.87134225
"S200212"	"Conflict_Resolution"	"RIGHT"	"RIGHT"	446.437199999991	533.3333344	n/a	n/a	n/a	n/a	"False"	n/a	n/a	"2020-02-12 10:51:33.550650"	"2020-02-12 10:51:34.205811"	111	5.87134225
"S200212"	"Conflict_Resolution"	"RIGHT"	"RIGHT"	518.593099999975	533.3333344	n/a	n/a	n/a	n/a	"True"	n/a	n/a	"2020-02-12 10:51:34.758881"	"2020-02-12 10:51:35.484326"	112	5.87134225
"S200212"	"Conflict_Resolution"	"RIGHT"	"RIGHT"	358.030600000006	1216.6666691	n/a	n/a	n/a	n/a	"False"	n/a	n/a	"2020-02-12 10:51:36.719235"	"2020-02-12 10:51:37.285890"	113	5.87134225
"S200212"	"Conflict_Resolution"	"RIGHT"	"RIGHT"	365.982899999949	550.0000011	n/a	n/a	n/a	n/a	"False"	n/a	n/a	"2020-02-12 10:51:37.855005"	"2020-02-12 10:51:38.429441"	114	5.87134225
"S200212"	"Conflict_Resolution"	"RIGHT"	"RIGHT"	337.646999999947	1100.0000022	n/a	n/a	n/a	n/a	"False"	n/a	n/a	"2020-02-12 10:51:39.547613"	"2020-02-12 10:51:40.093869"	115	5.87134225
"S200212"	"Conflict_Resolution"	"LEFT"	"LEFT"	455.08719999998	516.6666677	n/a	n/a	n/a	n/a	"True"	n/a	n/a	"2020-02-12 10:51:40.630123"	"2020-02-12 10:51:41.294436"	116	5.87134225
"S200212"	"Conflict_Resolution"	"LEFT"	"LEFT"	422.455099999979	1366.6666694	n/a	n/a	n/a	n/a	"True"	n/a	n/a	"2020-02-12 10:51:42.678942"	"2020-02-12 10:51:43.308762"	117	5.87134225
"S200212"	"Conflict_Resolution"	"RIGHT"	"RIGHT"	500.513700000056	1466.6666696	n/a	n/a	n/a	n/a	"True"	n/a	n/a	"2020-02-12 10:51:44.792237"	"2020-02-12 10:51:45.500406"	118	5.87134225
"S200212"	"Conflict_Resolution"	"RIGHT"	"RIGHT"	398.078400000031	583.3333345	n/a	n/a	n/a	n/a	"False"	n/a	n/a	"2020-02-12 10:51:46.102842"	"2020-02-12 10:51:46.708600"	119	5.87134225
"S200212"	"Conflict_Resolution"	"LEFT"	"LEFT"	379.358899999943	1450.0000029	n/a	n/a	n/a	n/a	"False"	n/a	n/a	"2020-02-12 10:51:48.178072"	"2020-02-12 10:51:48.765501"	120	5.87134225
"S200212"	"Conflict_Resolution"	"LEFT"	"LEFT"	419.690599999967	783.3333349	n/a	n/a	n/a	n/a	"False"	n/a	n/a	"2020-02-12 10:51:49.569589"	"2020-02-12 10:51:50.197905"	121	5.87134225
"S200212"	"Conflict_Resolution"	"RIGHT"	"RIGHT"	348.811399999931	1150.0000023	n/a	n/a	n/a	n/a	"False"	n/a	n/a	"2020-02-12 10:51:51.368160"	"2020-02-12 10:51:51.925302"	122	5.87134225
"S200212"	"Conflict_Resolution"	"RIGHT"	"RIGHT"	410.319700000173	1466.6666696	n/a	n/a	n/a	n/a	"False"	n/a	n/a	"2020-02-12 10:51:53.410468"	"2020-02-12 10:51:54.028421"	123	5.87134225
"S200212"	"Conflict_Resolution"	"RIGHT"	"RIGHT"	576.311299999816	733.3333348	n/a	n/a	n/a	n/a	"True"	n/a	n/a	"2020-02-12 10:51:54.780866"	"2020-02-12 10:51:55.565122"	124	5.87134225
"S200212"	"Conflict_Resolution"	"LEFT"	"LEFT"	366.530999999895	1200.0000024	n/a	n/a	n/a	n/a	"False"	n/a	n/a	"2020-02-12 10:51:56.782265"	"2020-02-12 10:51:57.356245"	125	5.87134225
"S200212"	"Conflict_Resolution"	"RIGHT"	"RIGHT"	439.272699999947	1083.3333355	n/a	n/a	n/a	n/a	"True"	n/a	n/a	"2020-02-12 10:51:58.461234"	"2020-02-12 10:51:59.109648"	126	5.87134225
"S200212"	"Conflict_Resolution"	"LEFT"	"LEFT"	388.735300000008	616.6666679	n/a	n/a	n/a	n/a	"False"	n/a	n/a	"2020-02-12 10:51:59.743951"	"2020-02-12 10:52:00.341551"	127	5.87134225
"S200212"	"Conflict_Resolution"	"LEFT"	"LEFT"	403.023100000155	866.6666684	n/a	n/a	n/a	n/a	"False"	n/a	n/a	"2020-02-12 10:52:01.226126"	"2020-02-12 10:52:01.837490"	128	5.87134225
"S200212"	"Conflict_Resolution"	"RIGHT"	"RIGHT"	353.209099999958	1083.3333355	n/a	n/a	n/a	n/a	"False"	n/a	n/a	"2020-02-12 10:52:02.940095"	"2020-02-12 10:52:03.501625"	129	5.87134225
"S200212"	"Conflict_Resolution"	"RIGHT"	"RIGHT"	521.227700000054	1433.3333362	n/a	n/a	n/a	n/a	"True"	n/a	n/a	"2020-02-12 10:52:04.956058"	"2020-02-12 10:52:05.684383"	130	5.87134225
"S200212"	"Conflict_Resolution"	"RIGHT"	"RIGHT"	435.47169999988	650.0000013	n/a	n/a	n/a	n/a	"False"	n/a	n/a	"2020-02-12 10:52:06.354016"	"2020-02-12 10:52:06.997506"	131	5.87134225
"S200212"	"Conflict_Resolution"	"RIGHT"	"RIGHT"	419.275299999981	983.3333353	n/a	n/a	n/a	n/a	"True"	n/a	n/a	"2020-02-12 10:52:08.001789"	"2020-02-12 10:52:08.629751"	132	5.87134225
"S200212"	"Conflict_Resolution"	"LEFT"	"LEFT"	404.619400000001	583.3333345	n/a	n/a	n/a	n/a	"False"	n/a	n/a	"2020-02-12 10:52:09.232389"	"2020-02-12 10:52:09.844396"	133	5.87134225
"S200212"	"Conflict_Resolution"	"LEFT"	"LEFT"	366.8361	1150.0000023	n/a	n/a	n/a	n/a	"False"	n/a	n/a	"2020-02-12 10:52:11.014544"	"2020-02-12 10:52:11.589551"	134	5.87134225
"S200212"	"Conflict_Resolution"	"LEFT"	"LEFT"	370.247999999947	1250.0000025	n/a	n/a	n/a	n/a	"False"	n/a	n/a	"2020-02-12 10:52:12.859183"	"2020-02-12 10:52:13.436246"	135	5.87134225
"S200212"	"Conflict_Resolution"	"LEFT"	"RIGHT"	397.114999999985	1016.6666687	n/a	n/a	n/a	n/a	"True"	n/a	n/a	"2020-02-12 10:52:14.471592"	"2020-02-12 10:52:15.077151"	136	5.87134225
"S200212"	"Conflict_Resolution"	"RIGHT"	"RIGHT"	358.518000000004	783.3333349	n/a	n/a	n/a	n/a	"False"	n/a	n/a	"2020-02-12 10:52:15.878354"	"2020-02-12 10:52:16.445094"	137	5.87134225
"S200212"	"Conflict_Resolution"	"RIGHT"	"RIGHT"	501.073799999858	1033.3333354	n/a	n/a	n/a	n/a	"True"	n/a	n/a	"2020-02-12 10:52:17.496028"	"2020-02-12 10:52:18.205441"	138	5.87134225
"S200212"	"Conflict_Resolution"	"LEFT"	"LEFT"	535.555000000159	916.6666685	n/a	n/a	n/a	n/a	"True"	n/a	n/a	"2020-02-12 10:52:19.141444"	"2020-02-12 10:52:19.885594"	139	5.87134225
"S200212"	"Conflict_Resolution"	"LEFT"	"LEFT"	498.123299999861	1450.0000029	n/a	n/a	n/a	n/a	"True"	n/a	n/a	"2020-02-12 10:52:21.354467"	"2020-02-12 10:52:22.060041"	140	5.87134225
"S200212"	"Conflict_Resolution"	"RIGHT"	"RIGHT"	751.804800000173	550.0000011	n/a	n/a	n/a	n/a	"True"	n/a	n/a	"2020-02-12 10:52:22.628852"	"2020-02-12 10:52:23.588001"	141	5.87134225
"S200212"	"Conflict_Resolution"	"RIGHT"	"RIGHT"	408.231899999919	983.3333353	n/a	n/a	n/a	n/a	"False"	n/a	n/a	"2020-02-12 10:52:24.589034"	"2020-02-12 10:52:25.204061"	142	5.87134225
"S200212"	"Conflict_Resolution"	"RIGHT"	"RIGHT"	393.976699999939	500.000001	n/a	n/a	n/a	n/a	"False"	n/a	n/a	"2020-02-12 10:52:25.723539"	"2020-02-12 10:52:26.325917"	143	5.87134225
"S200212"	"Conflict_Resolution"	"RIGHT"	"RIGHT"	384.914199999912	1483.3333363	n/a	n/a	n/a	n/a	"False"	n/a	n/a	"2020-02-12 10:52:27.828257"	"2020-02-12 10:52:28.420215"	144	5.87134225
"S200212"	"Conflict_Resolution"	"LEFT"	"LEFT"	420.627899999999	633.3333346	n/a	n/a	n/a	n/a	"False"	n/a	n/a	"2020-02-12 10:52:29.072662"	"2020-02-12 10:52:29.700989"	145	5.87134225
"S200212"	"Conflict_Resolution"	"LEFT"	"LEFT"	713.967899999943	683.3333347	n/a	n/a	n/a	n/a	"True"	n/a	n/a	"2020-02-12 10:52:30.403474"	"2020-02-12 10:52:31.324320"	146	5.87134225
"S200212"	"Conflict_Resolution"	"RIGHT"	"RIGHT"	406.58970000004	950.0000019	n/a	n/a	n/a	n/a	"False"	n/a	n/a	"2020-02-12 10:52:32.294898"	"2020-02-12 10:52:32.909904"	147	5.87134225
"S200212"	"Conflict_Resolution"	"LEFT"	"LEFT"	381.000399999948	1000.000002	n/a	n/a	n/a	n/a	"False"	n/a	n/a	"2020-02-12 10:52:33.927435"	"2020-02-12 10:52:34.517507"	148	5.87134225
"S200212"	"Conflict_Resolution"	"LEFT"	"LEFT"	354.399900000089	1050.0000021	n/a	n/a	n/a	n/a	"False"	n/a	n/a	"2020-02-12 10:52:35.586689"	"2020-02-12 10:52:36.148261"	149	5.87134225
"S200212"	"Conflict_Resolution"	"LEFT"	"LEFT"	379.116899999872	666.666668	n/a	n/a	n/a	n/a	"False"	n/a	n/a	"2020-02-12 10:52:36.834416"	"2020-02-12 10:52:37.421798"	150	5.87134225
"S200212"	"Conflict_Resolution"	"RIGHT"	"RIGHT"	474.411400000008	1266.6666692	n/a	n/a	n/a	n/a	"False"	n/a	n/a	"2020-02-12 10:52:38.706801"	"2020-02-12 10:52:39.387984"	151	5.87134225
"S200212"	"Conflict_Resolution"	"LEFT"	"LEFT"	392.371200000071	966.6666686	n/a	n/a	n/a	n/a	"False"	n/a	n/a	"2020-02-12 10:52:40.372348"	"2020-02-12 10:52:40.973121"	152	5.87134225
"S200212"	"Conflict_Resolution"	"RIGHT"	"RIGHT"	552.266599999939	1316.6666693	n/a	n/a	n/a	n/a	"True"	n/a	n/a	"2020-02-12 10:52:42.308352"	"2020-02-12 10:52:43.068231"	153	5.87134225
"S200212"	"Conflict_Resolution"	"RIGHT"	"RIGHT"	387.559199999941	683.3333347	n/a	n/a	n/a	n/a	"False"	n/a	n/a	"2020-02-12 10:52:43.769379"	"2020-02-12 10:52:44.364875"	154	5.87134225
"S200212"	"Conflict_Resolution"	"RIGHT"	"RIGHT"	584.28170000002	933.3333352	n/a	n/a	n/a	n/a	"True"	n/a	n/a	"2020-02-12 10:52:45.316398"	"2020-02-12 10:52:46.108013"	155	5.87134225
"S200212"	"Conflict_Resolution"	"RIGHT"	"RIGHT"	494.391599999972	1366.6666694	n/a	n/a	n/a	n/a	"True"	n/a	n/a	"2020-02-12 10:52:47.494812"	"2020-02-12 10:52:48.197478"	156	5.87134225
"S200212"	"Conflict_Resolution"	"RIGHT"	"RIGHT"	451.793199999884	850.0000017	n/a	n/a	n/a	n/a	"True"	n/a	n/a	"2020-02-12 10:52:49.064831"	"2020-02-12 10:52:49.724276"	157	5.87134225
"S200212"	"Conflict_Resolution"	"RIGHT"	"RIGHT"	386.55719999997	1283.3333359	n/a	n/a	n/a	n/a	"False"	n/a	n/a	"2020-02-12 10:52:51.026639"	"2020-02-12 10:52:51.621634"	158	5.87134225
"S200212"	"Conflict_Resolution"	"RIGHT"	"RIGHT"	532.908800000087	1183.3333357	n/a	n/a	n/a	n/a	"True"	n/a	n/a	"2020-02-12 10:52:52.824393"	"2020-02-12 10:52:53.564451"	159	5.87134225
"S200212"	"Conflict_Resolution"	"LEFT"	"LEFT"	520.645399999921	1116.6666689	n/a	n/a	n/a	n/a	"True"	n/a	n/a	"2020-02-12 10:52:54.700174"	"2020-02-12 10:52:55.428257"	160	5.87134225
"S200212"	"Processing_Speed"	"RIGHT"	"DOWN"	444.032800000002	1366.6666694	n/a	n/a	n/a	n/a	n/a	n/a	n/a	"2020-02-12 10:36:57.009865"	"2020-02-12 10:36:57.663382"	1	1.95358781666667
"S200212"	"Processing_Speed"	"RIGHT"	"DOWN"	349.712400000016	600.0000012	n/a	n/a	n/a	n/a	n/a	n/a	n/a	"2020-02-12 10:36:58.271801"	"2020-02-12 10:36:58.829057"	2	1.95358781666667
"S200212"	"Processing_Speed"	"LEFT"	"DOWN"	263.519899999977	1016.6666687	n/a	n/a	n/a	n/a	n/a	n/a	n/a	"2020-02-12 10:36:59.853971"	"2020-02-12 10:37:00.325293"	3	1.95358781666667
"S200212"	"Processing_Speed"	"RIGHT"	"DOWN"	278.60720000001	633.3333346	n/a	n/a	n/a	n/a	n/a	n/a	n/a	"2020-02-12 10:37:00.967088"	"2020-02-12 10:37:01.453135"	4	1.95358781666667
"S200212"	"Processing_Speed"	"RIGHT"	"DOWN"	278.161600000004	850.0000017	n/a	n/a	n/a	n/a	n/a	n/a	n/a	"2020-02-12 10:37:02.312108"	"2020-02-12 10:37:02.798160"	5	1.95358781666667
"S200212"	"Processing_Speed"	"LEFT"	"DOWN"	274.657100000013	1300.0000026	n/a	n/a	n/a	n/a	n/a	n/a	n/a	"2020-02-12 10:37:04.106899"	"2020-02-12 10:37:04.590282"	6	1.95358781666667
"S200212"	"Processing_Speed"	"RIGHT"	"DOWN"	227.701400000001	1083.3333355	n/a	n/a	n/a	n/a	n/a	n/a	n/a	"2020-02-12 10:37:05.682080"	"2020-02-12 10:37:06.117922"	7	1.95358781666667
"S200212"	"Processing_Speed"	"RIGHT"	"DOWN"	272.594600000019	566.6666678	n/a	n/a	n/a	n/a	n/a	n/a	n/a	"2020-02-12 10:37:06.693377"	"2020-02-12 10:37:07.174699"	8	1.95358781666667
"S200212"	"Processing_Speed"	"RIGHT"	"DOWN"	239.07920000002	983.3333353	n/a	n/a	n/a	n/a	n/a	n/a	n/a	"2020-02-12 10:37:08.166738"	"2020-02-12 10:37:08.614541"	9	1.95358781666667
"S200212"	"Processing_Speed"	"LEFT"	"DOWN"	227.373699999987	883.3333351	n/a	n/a	n/a	n/a	n/a	n/a	n/a	"2020-02-12 10:37:09.506530"	"2020-02-12 10:37:09.941929"	10	1.95358781666667
"S200212"	"Processing_Speed"	"LEFT"	"DOWN"	222.374300000013	983.3333353	n/a	n/a	n/a	n/a	n/a	n/a	n/a	"2020-02-12 10:37:10.934896"	"2020-02-12 10:37:11.365353"	11	1.95358781666667
"S200212"	"Processing_Speed"	"LEFT"	"DOWN"	266.507899999993	533.3333344	n/a	n/a	n/a	n/a	n/a	n/a	n/a	"2020-02-12 10:37:11.906873"	"2020-02-12 10:37:12.381925"	12	1.95358781666667
"S200212"	"Processing_Speed"	"RIGHT"	"DOWN"	257.588099999992	1333.333336	n/a	n/a	n/a	n/a	n/a	n/a	n/a	"2020-02-12 10:37:13.723932"	"2020-02-12 10:37:14.190052"	13	1.95358781666667
"S200212"	"Processing_Speed"	"RIGHT"	"DOWN"	243.252900000016	700.0000014	n/a	n/a	n/a	n/a	n/a	n/a	n/a	"2020-02-12 10:37:14.898549"	"2020-02-12 10:37:15.349398"	14	1.95358781666667
"S200212"	"Processing_Speed"	"RIGHT"	"DOWN"	316.403800000018	883.3333351	n/a	n/a	n/a	n/a	n/a	n/a	n/a	"2020-02-12 10:37:16.240802"	"2020-02-12 10:37:16.766381"	15	1.95358781666667
"S200212"	"Processing_Speed"	"RIGHT"	"DOWN"	229.860000000002	1216.6666691	n/a	n/a	n/a	n/a	n/a	n/a	n/a	"2020-02-12 10:37:17.992028"	"2020-02-12 10:37:18.429105"	16	1.95358781666667
"S200212"	"Processing_Speed"	"LEFT"	"DOWN"	250.15209999998	1150.0000023	n/a	n/a	n/a	n/a	n/a	n/a	n/a	"2020-02-12 10:37:19.587093"	"2020-02-12 10:37:20.045862"	17	1.95358781666667
"S200212"	"Processing_Speed"	"LEFT"	"DOWN"	262.02459999999	633.3333346	n/a	n/a	n/a	n/a	n/a	n/a	n/a	"2020-02-12 10:37:20.688161"	"2020-02-12 10:37:21.156974"	18	1.95358781666667
"S200212"	"Processing_Speed"	"LEFT"	"DOWN"	223.544599999997	816.6666683	n/a	n/a	n/a	n/a	n/a	n/a	n/a	"2020-02-12 10:37:21.982253"	"2020-02-12 10:37:22.413700"	19	1.95358781666667
"S200212"	"Processing_Speed"	"RIGHT"	"DOWN"	241.327200000001	1150.0000023	n/a	n/a	n/a	n/a	n/a	n/a	n/a	"2020-02-12 10:37:23.572755"	"2020-02-12 10:37:24.022126"	20	1.95358781666667
"S200212"	"Processing_Speed"	"LEFT"	"DOWN"	292.028600000009	1466.6666696	n/a	n/a	n/a	n/a	n/a	n/a	n/a	"2020-02-12 10:37:25.497617"	"2020-02-12 10:37:25.997796"	21	1.95358781666667
"S200212"	"Processing_Speed"	"RIGHT"	"DOWN"	212.776600000012	1266.6666692	n/a	n/a	n/a	n/a	n/a	n/a	n/a	"2020-02-12 10:37:27.273098"	"2020-02-12 10:37:27.694839"	22	1.95358781666667
"S200212"	"Processing_Speed"	"RIGHT"	"DOWN"	243.6419	1466.6666696	n/a	n/a	n/a	n/a	n/a	n/a	n/a	"2020-02-12 10:37:29.170038"	"2020-02-12 10:37:29.621517"	23	1.95358781666667
"S200212"	"Processing_Speed"	"LEFT"	"DOWN"	267.090599999989	1500.000003	n/a	n/a	n/a	n/a	n/a	n/a	n/a	"2020-02-12 10:37:31.130513"	"2020-02-12 10:37:31.605719"	24	1.95358781666667
"S200212"	"Processing_Speed"	"RIGHT"	"DOWN"	217.472299999997	950.0000019	n/a	n/a	n/a	n/a	n/a	n/a	n/a	"2020-02-12 10:37:32.564363"	"2020-02-12 10:37:32.989110"	25	1.95358781666667
"S200212"	"Processing_Speed"	"LEFT"	"DOWN"	223.640700000004	783.3333349	n/a	n/a	n/a	n/a	n/a	n/a	n/a	"2020-02-12 10:37:33.782283"	"2020-02-12 10:37:34.213748"	26	1.95358781666667
"S200212"	"Processing_Speed"	"LEFT"	"DOWN"	269.657899999999	1433.3333362	n/a	n/a	n/a	n/a	n/a	n/a	n/a	"2020-02-12 10:37:35.656201"	"2020-02-12 10:37:36.133523"	27	1.95358781666667
"S200212"	"Processing_Speed"	"RIGHT"	"DOWN"	237.258400000002	1433.3333362	n/a	n/a	n/a	n/a	n/a	n/a	n/a	"2020-02-12 10:37:37.576410"	"2020-02-12 10:37:38.022776"	28	1.95358781666667
"S200212"	"Processing_Speed"	"LEFT"	"DOWN"	219.203800000003	1083.3333355	n/a	n/a	n/a	n/a	n/a	n/a	n/a	"2020-02-12 10:37:39.114065"	"2020-02-12 10:37:39.541239"	29	1.95358781666667
"S200212"	"Processing_Speed"	"LEFT"	"DOWN"	253.940999999998	1050.0000021	n/a	n/a	n/a	n/a	n/a	n/a	n/a	"2020-02-12 10:37:40.600121"	"2020-02-12 10:37:41.062034"	30	1.95358781666667
"S200212"	"Processing_Speed"	"RIGHT"	"DOWN"	244.437599999998	666.666668	n/a	n/a	n/a	n/a	n/a	n/a	n/a	"2020-02-12 10:37:41.736850"	"2020-02-12 10:37:42.189452"	31	1.95358781666667
"S200212"	"Processing_Speed"	"RIGHT"	"DOWN"	258.204799999987	533.3333344	n/a	n/a	n/a	n/a	n/a	n/a	n/a	"2020-02-12 10:37:42.731975"	"2020-02-12 10:37:43.198941"	32	1.95358781666667
"S200212"	"Processing_Speed"	"LEFT"	"DOWN"	245.625399999994	1216.6666691	n/a	n/a	n/a	n/a	n/a	n/a	n/a	"2020-02-12 10:37:44.424163"	"2020-02-12 10:37:44.877322"	33	1.95358781666667
"S200212"	"Processing_Speed"	"RIGHT"	"DOWN"	258.668099999994	500.000001	n/a	n/a	n/a	n/a	n/a	n/a	n/a	"2020-02-12 10:37:45.387215"	"2020-02-12 10:37:45.854092"	34	1.95358781666667
"S200212"	"Processing_Speed"	"LEFT"	"DOWN"	263.194199999987	1400.0000028	n/a	n/a	n/a	n/a	n/a	n/a	n/a	"2020-02-12 10:37:47.262321"	"2020-02-12 10:37:47.733935"	35	1.95358781666667
"S200212"	"Processing_Speed"	"RIGHT"	"DOWN"	266.74109999999	916.6666685	n/a	n/a	n/a	n/a	n/a	n/a	n/a	"2020-02-12 10:37:48.659106"	"2020-02-12 10:37:49.133415"	36	1.95358781666667
"S200212"	"Processing_Speed"	"RIGHT"	"DOWN"	211.241000000001	1116.6666689	n/a	n/a	n/a	n/a	n/a	n/a	n/a	"2020-02-12 10:37:50.258522"	"2020-02-12 10:37:50.678477"	37	1.95358781666667
"S200212"	"Processing_Speed"	"LEFT"	"DOWN"	249.915299999998	1116.6666689	n/a	n/a	n/a	n/a	n/a	n/a	n/a	"2020-02-12 10:37:51.804063"	"2020-02-12 10:37:52.261515"	38	1.95358781666667
"S200212"	"Processing_Speed"	"RIGHT"	"DOWN"	266.306200000002	733.3333348	n/a	n/a	n/a	n/a	n/a	n/a	n/a	"2020-02-12 10:37:53.003000"	"2020-02-12 10:37:53.477019"	39	1.95358781666667
"S200212"	"Processing_Speed"	"LEFT"	"DOWN"	266.882200000026	733.3333348	n/a	n/a	n/a	n/a	n/a	n/a	n/a	"2020-02-12 10:37:54.218662"	"2020-02-12 10:37:54.693757"	40	1.95358781666667
"S200212"	"Processing_Speed"	"RIGHT"	"DOWN"	270.8461	1016.6666687	n/a	n/a	n/a	n/a	n/a	n/a	n/a	"2020-02-12 10:37:55.718585"	"2020-02-12 10:37:56.197451"	41	1.95358781666667
"S200212"	"Processing_Speed"	"LEFT"	"DOWN"	243.99630000002	666.666668	n/a	n/a	n/a	n/a	n/a	n/a	n/a	"2020-02-12 10:37:56.873609"	"2020-02-12 10:37:57.326362"	42	1.95358781666667
"S200212"	"Processing_Speed"	"LEFT"	"DOWN"	241.677199999998	1333.333336	n/a	n/a	n/a	n/a	n/a	n/a	n/a	"2020-02-12 10:37:58.667857"	"2020-02-12 10:37:59.117518"	43	1.95358781666667
"S200212"	"Processing_Speed"	"LEFT"	"DOWN"	256.405400000006	1183.3333357	n/a	n/a	n/a	n/a	n/a	n/a	n/a	"2020-02-12 10:38:00.309683"	"2020-02-12 10:38:00.773471"	44	1.95358781666667
"S200212"	"Processing_Speed"	"LEFT"	"DOWN"	367.540900000023	600.0000012	n/a	n/a	n/a	n/a	n/a	n/a	n/a	"2020-02-12 10:38:01.381981"	"2020-02-12 10:38:01.958476"	45	1.95358781666667
"S200212"	"Processing_Speed"	"LEFT"	"DOWN"	220.427199999989	850.0000017	n/a	n/a	n/a	n/a	n/a	n/a	n/a	"2020-02-12 10:38:02.816760"	"2020-02-12 10:38:03.245644"	46	1.95358781666667
"S200212"	"Processing_Speed"	"LEFT"	"DOWN"	248.927600000002	566.6666678	n/a	n/a	n/a	n/a	n/a	n/a	n/a	"2020-02-12 10:38:03.821098"	"2020-02-12 10:38:04.277778"	47	1.95358781666667
"S200212"	"Processing_Speed"	"RIGHT"	"DOWN"	243.314400000003	1500.000003	n/a	n/a	n/a	n/a	n/a	n/a	n/a	"2020-02-12 10:38:05.786558"	"2020-02-12 10:38:06.236966"	48	1.95358781666667
"S200212"	"Processing_Speed"	"RIGHT"	"DOWN"	238.386999999989	1183.3333357	n/a	n/a	n/a	n/a	n/a	n/a	n/a	"2020-02-12 10:38:07.431139"	"2020-02-12 10:38:07.878334"	49	1.95358781666667
"S200212"	"Processing_Speed"	"LEFT"	"DOWN"	276.237699999996	1266.6666692	n/a	n/a	n/a	n/a	n/a	n/a	n/a	"2020-02-12 10:38:09.153232"	"2020-02-12 10:38:09.638172"	50	1.95358781666667
"S200212"	"Processing_Speed"	"RIGHT"	"DOWN"	235.167000000018	1300.0000026	n/a	n/a	n/a	n/a	n/a	n/a	n/a	"2020-02-12 10:38:10.946127"	"2020-02-12 10:38:11.389950"	51	1.95358781666667
"S200212"	"Processing_Speed"	"RIGHT"	"DOWN"	231.281899999999	1400.0000028	n/a	n/a	n/a	n/a	n/a	n/a	n/a	"2020-02-12 10:38:12.798332"	"2020-02-12 10:38:13.237003"	52	1.95358781666667
"S200212"	"Processing_Speed"	"LEFT"	"DOWN"	291.189500000002	700.0000014	n/a	n/a	n/a	n/a	n/a	n/a	n/a	"2020-02-12 10:38:13.946758"	"2020-02-12 10:38:14.445596"	53	1.95358781666667
"S200212"	"Processing_Speed"	"LEFT"	"DOWN"	240.918800000003	950.0000019	n/a	n/a	n/a	n/a	n/a	n/a	n/a	"2020-02-12 10:38:15.404570"	"2020-02-12 10:38:15.853052"	54	1.95358781666667
"S200212"	"Processing_Speed"	"LEFT"	"DOWN"	235.6403	916.6666685	n/a	n/a	n/a	n/a	n/a	n/a	n/a	"2020-02-12 10:38:16.778320"	"2020-02-12 10:38:17.221139"	55	1.95358781666667
"S200212"	"Processing_Speed"	"RIGHT"	"DOWN"	205.88939999999	1050.0000021	n/a	n/a	n/a	n/a	n/a	n/a	n/a	"2020-02-12 10:38:18.279928"	"2020-02-12 10:38:18.693827"	56	1.95358781666667
"S200212"	"Processing_Speed"	"RIGHT"	"DOWN"	223.975699999983	783.3333349	n/a	n/a	n/a	n/a	n/a	n/a	n/a	"2020-02-12 10:38:19.485404"	"2020-02-12 10:38:19.917854"	57	1.95358781666667
"S200212"	"Processing_Speed"	"LEFT"	"DOWN"	264.36609999999	1366.6666694	n/a	n/a	n/a	n/a	n/a	n/a	n/a	"2020-02-12 10:38:21.292889"	"2020-02-12 10:38:21.766910"	58	1.95358781666667
"S200212"	"Processing_Speed"	"LEFT"	"DOWN"	289.925400000016	500.000001	n/a	n/a	n/a	n/a	n/a	n/a	n/a	"2020-02-12 10:38:22.276162"	"2020-02-12 10:38:22.773012"	59	1.95358781666667
"S200212"	"Processing_Speed"	"RIGHT"	"DOWN"	246.642100000003	816.6666683	n/a	n/a	n/a	n/a	n/a	n/a	n/a	"2020-02-12 10:38:23.598886"	"2020-02-12 10:38:24.053532"	60	1.95358781666667
"S200212"	"Response_Inhibition"	"LEFT"	"LEFT"	325.892099999976	1316.6666693	n/a	n/a	n/a	n/a	n/a	n/a	n/a	"2020-02-12 10:41:58.887815"	"2020-02-12 10:41:59.421010"	1	5.75621401666667
"S200212"	"Response_Inhibition"	"RIGHT"	"RIGHT"	351.870500000018	600.0000012	n/a	n/a	n/a	n/a	n/a	n/a	n/a	"2020-02-12 10:42:00.029403"	"2020-02-12 10:42:00.589112"	2	5.75621401666667
"S200212"	"Response_Inhibition"	"LEFT"	"LEFT"	262.198699999999	850.0000017	n/a	n/a	n/a	n/a	n/a	n/a	n/a	"2020-02-12 10:42:01.447490"	"2020-02-12 10:42:01.917242"	3	5.75621401666667
"S200212"	"Response_Inhibition"	"RIGHT"	"RIGHT"	310.948767199975	533.3333344	n/a	n/a	n/a	n/a	n/a	n/a	n/a	"2020-02-12 10:42:02.459524"	"2020-02-12 10:42:02.981390"	4	5.75621401666667
"S200212"	"Response_Inhibition"	"LEFT"	"LEFT"	232.054567100007	516.6666677	n/a	n/a	n/a	n/a	n/a	n/a	n/a	"2020-02-12 10:42:03.506089"	"2020-02-12 10:42:03.950093"	5	5.75621401666667
"S200212"	"Response_Inhibition"	"LEFT"	"LEFT"	480.980999999986	950.0000019	n/a	n/a	n/a	n/a	n/a	n/a	n/a	"2020-02-12 10:42:04.908542"	"2020-02-12 10:42:05.597092"	6	5.75621401666667
"S200212"	"Response_Inhibition"	"LEFT"	"LEFT"	280.798899999979	766.6666682	n/a	n/a	n/a	n/a	n/a	n/a	n/a	"2020-02-12 10:42:06.372569"	"2020-02-12 10:42:06.861338"	7	5.75621401666667
"S200212"	"Response_Inhibition"	"LEFT"	"LEFT"	291.69330000002	1300.0000026	n/a	n/a	n/a	n/a	n/a	n/a	n/a	"2020-02-12 10:42:08.169650"	"2020-02-12 10:42:08.669481"	8	5.75621401666667
"S200212"	"Response_Inhibition"	"RIGHT"	"RIGHT"	338.517899999999	1316.6666693	n/a	n/a	n/a	n/a	n/a	n/a	n/a	"2020-02-12 10:42:09.994435"	"2020-02-12 10:42:10.541578"	9	5.75621401666667
"S200212"	"Response_Inhibition"	"LEFT"	"LEFT"	275.97863359997	800.0000016	n/a	n/a	n/a	n/a	n/a	n/a	n/a	"2020-02-12 10:42:11.350461"	"2020-02-12 10:42:11.837170"	10	5.75621401666667
"S200212"	"Response_Inhibition"	"RIGHT"	"RIGHT"	261.848333399959	1166.666669	n/a	n/a	n/a	n/a	n/a	n/a	n/a	"2020-02-12 10:42:13.012585"	"2020-02-12 10:42:13.485337"	11	5.75621401666667
"S200212"	"Response_Inhibition"	"LEFT"	"LEFT"	493.129600000032	1466.6666696	n/a	n/a	n/a	n/a	n/a	n/a	n/a	"2020-02-12 10:42:14.960836"	"2020-02-12 10:42:15.661116"	12	5.75621401666667
"S200212"	"Response_Inhibition"	"RIGHT"	"RIGHT"	279.956299999981	1000.000002	n/a	n/a	n/a	n/a	n/a	n/a	n/a	"2020-02-12 10:42:16.669655"	"2020-02-12 10:42:17.156903"	13	5.75621401666667
"S200212"	"Response_Inhibition"	"RIGHT"	"RIGHT"	317.560100000037	1250.0000025	n/a	n/a	n/a	n/a	n/a	n/a	n/a	"2020-02-12 10:42:18.416072"	"2020-02-12 10:42:18.941442"	14	5.75621401666667
"S200212"	"Response_Inhibition"	"LEFT"	"LEFT"	280.708600500025	883.3333351	n/a	n/a	n/a	n/a	n/a	n/a	n/a	"2020-02-12 10:42:19.833595"	"2020-02-12 10:42:20.325642"	15	5.75621401666667
"S200212"	"Response_Inhibition"	"RIGHT"	"RIGHT"	297.48190049998	1266.6666692	n/a	n/a	n/a	n/a	n/a	n/a	n/a	"2020-02-12 10:42:21.600318"	"2020-02-12 10:42:22.108958"	16	5.75621401666667
"S200212"	"Response_Inhibition"	"RIGHT"	"Time_Max_Exceeded"	1500.0532002	666.666668	n/a	n/a	n/a	n/a	n/a	n/a	n/a	"2020-02-12 10:42:22.784314"	"2020-02-12 10:42:24.288214"	17	5.75621401666667
"S200212"	"Response_Inhibition"	"RIGHT"	"RIGHT"	314.719400000001	1050.0000021	n/a	n/a	n/a	n/a	n/a	n/a	n/a	"2020-02-12 10:42:25.346709"	"2020-02-12 10:42:25.869118"	18	5.75621401666667
"S200212"	"Response_Inhibition"	"LEFT"	"LEFT"	290.996800000016	1316.6666693	n/a	n/a	n/a	n/a	n/a	n/a	n/a	"2020-02-12 10:42:27.194966"	"2020-02-12 10:42:27.693675"	19	5.75621401666667
"S200212"	"Response_Inhibition"	"LEFT"	"LEFT"	326.014500000042	833.333335	n/a	n/a	n/a	n/a	n/a	n/a	n/a	"2020-02-12 10:42:28.535913"	"2020-02-12 10:42:29.069260"	20	5.75621401666667
"S200212"	"Response_Inhibition"	"RIGHT"	"RIGHT"	260.528600000043	1283.3333359	n/a	n/a	n/a	n/a	n/a	n/a	n/a	"2020-02-12 10:42:30.361170"	"2020-02-12 10:42:30.829330"	21	5.75621401666667
"S200212"	"Response_Inhibition"	"LEFT"	"LEFT"	296.837066999997	1466.6666696	n/a	n/a	n/a	n/a	n/a	n/a	n/a	"2020-02-12 10:42:32.305599"	"2020-02-12 10:42:32.815502"	22	5.75621401666667
"S200212"	"Response_Inhibition"	"RIGHT"	"RIGHT"	314.895700299988	583.3333345	n/a	n/a	n/a	n/a	n/a	n/a	n/a	"2020-02-12 10:42:33.407502"	"2020-02-12 10:42:33.933674"	23	5.75621401666667
"S200212"	"Response_Inhibition"	"RIGHT"	"RIGHT"	525.231799999972	850.0000017	n/a	n/a	n/a	n/a	n/a	n/a	n/a	"2020-02-12 10:42:34.791984"	"2020-02-12 10:42:35.525698"	24	5.75621401666667
"S200212"	"Response_Inhibition"	"RIGHT"	"RIGHT"	372.459100000015	1466.6666696	n/a	n/a	n/a	n/a	n/a	n/a	n/a	"2020-02-12 10:42:37.001192"	"2020-02-12 10:42:37.581627"	25	5.75621401666667
"S200212"	"Response_Inhibition"	"LEFT"	"LEFT"	345.417499999996	1350.0000027	n/a	n/a	n/a	n/a	n/a	n/a	n/a	"2020-02-12 10:42:38.939677"	"2020-02-12 10:42:39.493212"	26	5.75621401666667
"S200212"	"Response_Inhibition"	"LEFT"	"Time_Max_Exceeded"	1500.05336669998	1416.6666695	n/a	n/a	n/a	n/a	n/a	n/a	n/a	"2020-02-12 10:42:40.918307"	"2020-02-12 10:42:42.421802"	27	5.75621401666667
"S200212"	"Response_Inhibition"	"LEFT"	"LEFT"	534.206999999981	1000.000002	n/a	n/a	n/a	n/a	n/a	n/a	n/a	"2020-02-12 10:42:43.431645"	"2020-02-12 10:42:44.173385"	28	5.75621401666667
"S200212"	"Response_Inhibition"	"RIGHT"	"RIGHT"	356.978500400037	783.3333349	n/a	n/a	n/a	n/a	n/a	n/a	n/a	"2020-02-12 10:42:44.965130"	"2020-02-12 10:42:45.533263"	29	5.75621401666667
"S200212"	"Response_Inhibition"	"RIGHT"	"RIGHT"	345.875066999993	1066.6666688	n/a	n/a	n/a	n/a	n/a	n/a	n/a	"2020-02-12 10:42:46.608573"	"2020-02-12 10:42:47.165927"	30	5.75621401666667
"S200212"	"Response_Inhibition"	"RIGHT"	"RIGHT"	608.867499999974	1133.3333356	n/a	n/a	n/a	n/a	n/a	n/a	n/a	"2020-02-12 10:42:48.308448"	"2020-02-12 10:42:49.125531"	31	5.75621401666667
"S200212"	"Response_Inhibition"	"RIGHT"	"RIGHT"	512.943900000039	1366.6666694	n/a	n/a	n/a	n/a	n/a	n/a	n/a	"2020-02-12 10:42:50.500302"	"2020-02-12 10:42:51.221006"	32	5.75621401666667
"S200212"	"Response_Inhibition"	"LEFT"	"LEFT"	409.65940000001	950.0000019	n/a	n/a	n/a	n/a	n/a	n/a	n/a	"2020-02-12 10:42:52.179868"	"2020-02-12 10:42:52.798430"	33	5.75621401666667
"S200212"	"Response_Inhibition"	"LEFT"	"LEFT"	335.877967200006	1266.6666692	n/a	n/a	n/a	n/a	n/a	n/a	n/a	"2020-02-12 10:42:54.074788"	"2020-02-12 10:42:54.621767"	34	5.75621401666667
"S200212"	"Response_Inhibition"	"LEFT"	"LEFT"	434.514700000022	916.6666685	n/a	n/a	n/a	n/a	n/a	n/a	n/a	"2020-02-12 10:42:55.547307"	"2020-02-12 10:42:56.189162"	35	5.75621401666667
"S200212"	"Response_Inhibition"	"LEFT"	"LEFT"	349.170599999979	866.6666684	n/a	n/a	n/a	n/a	n/a	n/a	n/a	"2020-02-12 10:42:57.063859"	"2020-02-12 10:42:57.621057"	36	5.75621401666667
"S200212"	"Response_Inhibition"	"RIGHT"	"RIGHT"	327.896400000043	1400.0000028	n/a	n/a	n/a	n/a	n/a	n/a	n/a	"2020-02-12 10:42:59.029108"	"2020-02-12 10:42:59.565217"	37	5.75621401666667
"S200212"	"Response_Inhibition"	"RIGHT"	"RIGHT"	564.208500000007	1083.3333355	n/a	n/a	n/a	n/a	n/a	n/a	n/a	"2020-02-12 10:43:00.657236"	"2020-02-12 10:43:01.428795"	38	5.75621401666667
"S200212"	"Response_Inhibition"	"RIGHT"	"Time_Max_Exceeded"	1500.04916679999	1116.6666689	n/a	n/a	n/a	n/a	n/a	n/a	n/a	"2020-02-12 10:43:02.553822"	"2020-02-12 10:43:04.057342"	39	5.75621401666667
"S200212"	"Response_Inhibition"	"RIGHT"	"RIGHT"	508.561199999974	750.0000015	n/a	n/a	n/a	n/a	n/a	n/a	n/a	"2020-02-12 10:43:04.816859"	"2020-02-12 10:43:05.533908"	40	5.75621401666667
"S200212"	"Response_Inhibition"	"LEFT"	"Time_Max_Exceeded"	1500.04946670002	1183.3333357	n/a	n/a	n/a	n/a	n/a	n/a	n/a	"2020-02-12 10:43:06.725967"	"2020-02-12 10:43:08.229204"	41	5.75621401666667
"S200212"	"Response_Inhibition"	"LEFT"	"LEFT"	373.606533699979	1366.6666694	n/a	n/a	n/a	n/a	n/a	n/a	n/a	"2020-02-12 10:43:09.605063"	"2020-02-12 10:43:10.189073"	42	5.75621401666667
"S200212"	"Response_Inhibition"	"RIGHT"	"RIGHT"	537.05199999996	533.3333344	n/a	n/a	n/a	n/a	n/a	n/a	n/a	"2020-02-12 10:43:10.732146"	"2020-02-12 10:43:11.477281"	43	5.75621401666667
"S200212"	"Response_Inhibition"	"RIGHT"	"RIGHT"	406.472599999972	1433.3333362	n/a	n/a	n/a	n/a	n/a	n/a	n/a	"2020-02-12 10:43:12.918777"	"2020-02-12 10:43:13.533709"	44	5.75621401666667
"S200212"	"Response_Inhibition"	"RIGHT"	"Time_Max_Exceeded"	1500.05556670002	1500.000003	n/a	n/a	n/a	n/a	n/a	n/a	n/a	"2020-02-12 10:43:15.041992"	"2020-02-12 10:43:16.544968"	45	5.75621401666667
"S200212"	"Response_Inhibition"	"RIGHT"	"Time_Max_Exceeded"	1500.06029999997	1200.0000024	n/a	n/a	n/a	n/a	n/a	n/a	n/a	"2020-02-12 10:43:17.754641"	"2020-02-12 10:43:19.254812"	46	5.75621401666667
"S200212"	"Response_Inhibition"	"LEFT"	"LEFT"	469.232799999986	616.6666679	n/a	n/a	n/a	n/a	n/a	n/a	n/a	"2020-02-12 10:43:19.879901"	"2020-02-12 10:43:20.557663"	47	5.75621401666667
"S200212"	"Response_Inhibition"	"LEFT"	"Time_Max_Exceeded"	1500.06713390004	850.0000017	n/a	n/a	n/a	n/a	n/a	n/a	n/a	"2020-02-12 10:43:21.416376"	"2020-02-12 10:43:22.920125"	48	5.75621401666667
"S200212"	"Response_Inhibition"	"LEFT"	"LEFT"	427.77250000006	1233.3333358	n/a	n/a	n/a	n/a	n/a	n/a	n/a	"2020-02-12 10:43:24.161763"	"2020-02-12 10:43:24.797610"	49	5.75621401666667
"S200212"	"Response_Inhibition"	"RIGHT"	"Time_Max_Exceeded"	1500.0499335999	1316.6666693	n/a	n/a	n/a	n/a	n/a	n/a	n/a	"2020-02-12 10:43:26.122570"	"2020-02-12 10:43:27.626398"	50	5.75621401666667
"S200212"	"Response_Inhibition"	"LEFT"	"LEFT"	440.831099999969	1016.6666687	n/a	n/a	n/a	n/a	n/a	n/a	n/a	"2020-02-12 10:43:28.652991"	"2020-02-12 10:43:29.301604"	51	5.75621401666667
"S200212"	"Response_Inhibition"	"RIGHT"	"RIGHT"	680.030600000009	583.3333345	n/a	n/a	n/a	n/a	n/a	n/a	n/a	"2020-02-12 10:43:29.893184"	"2020-02-12 10:43:30.781654"	52	5.75621401666667
"S200212"	"Response_Inhibition"	"RIGHT"	"RIGHT"	449.05689999996	1150.0000023	n/a	n/a	n/a	n/a	n/a	n/a	n/a	"2020-02-12 10:43:31.940774"	"2020-02-12 10:43:32.597028"	53	5.75621401666667
"S200212"	"Response_Inhibition"	"LEFT"	"LEFT"	483.166399999959	1116.6666689	n/a	n/a	n/a	n/a	n/a	n/a	n/a	"2020-02-12 10:43:33.722598"	"2020-02-12 10:43:34.413646"	54	5.75621401666667
"S200212"	"Response_Inhibition"	"LEFT"	"LEFT"	570.241499999952	900.0000018	n/a	n/a	n/a	n/a	n/a	n/a	n/a	"2020-02-12 10:43:35.323516"	"2020-02-12 10:43:36.102671"	55	5.75621401666667
"S200212"	"Response_Inhibition"	"RIGHT"	"RIGHT"	650.28390000009	900.0000018	n/a	n/a	n/a	n/a	n/a	n/a	n/a	"2020-02-12 10:43:37.011370"	"2020-02-12 10:43:37.869712"	56	5.75621401666667
"S200212"	"Response_Inhibition"	"LEFT"	"LEFT"	597.857699999963	816.6666683	n/a	n/a	n/a	n/a	n/a	n/a	n/a	"2020-02-12 10:43:38.695639"	"2020-02-12 10:43:39.501742"	57	5.75621401666667
"S200212"	"Response_Inhibition"	"LEFT"	"LEFT"	326.609700199926	733.3333348	n/a	n/a	n/a	n/a	n/a	n/a	n/a	"2020-02-12 10:43:40.243757"	"2020-02-12 10:43:40.781622"	58	5.75621401666667
"S200212"	"Response_Inhibition"	"RIGHT"	"RIGHT"	396.804100000054	1266.6666692	n/a	n/a	n/a	n/a	n/a	n/a	n/a	"2020-02-12 10:43:42.056438"	"2020-02-12 10:43:42.661845"	59	5.75621401666667
"S200212"	"Response_Inhibition"	"RIGHT"	"Time_Max_Exceeded"	1500.05023349998	1366.6666694	n/a	n/a	n/a	n/a	n/a	n/a	n/a	"2020-02-12 10:43:44.036459"	"2020-02-12 10:43:45.540033"	60	5.75621401666667
"S200212"	"Response_Inhibition"	"RIGHT"	"Time_Max_Exceeded"	1500.25183350007	1216.6666691	n/a	n/a	n/a	n/a	n/a	n/a	n/a	"2020-02-12 10:43:46.766375"	"2020-02-12 10:43:48.269834"	61	5.75621401666667
"S200212"	"Response_Inhibition"	"RIGHT"	"RIGHT"	639.292999999952	966.6666686	n/a	n/a	n/a	n/a	n/a	n/a	n/a	"2020-02-12 10:43:49.246368"	"2020-02-12 10:43:50.094258"	62	5.75621401666667
"S200212"	"Response_Inhibition"	"RIGHT"	"RIGHT"	589.092399999913	1233.3333358	n/a	n/a	n/a	n/a	n/a	n/a	n/a	"2020-02-12 10:43:51.336481"	"2020-02-12 10:43:52.133090"	63	5.75621401666667
"S200212"	"Response_Inhibition"	"RIGHT"	"Time_Max_Exceeded"	1500.08633370006	916.6666685	n/a	n/a	n/a	n/a	n/a	n/a	n/a	"2020-02-12 10:43:53.058352"	"2020-02-12 10:43:54.562024"	64	5.75621401666667
"S200212"	"Response_Inhibition"	"LEFT"	"Time_Max_Exceeded"	1500.04926680007	1333.333336	n/a	n/a	n/a	n/a	n/a	n/a	n/a	"2020-02-12 10:43:55.905166"	"2020-02-12 10:43:57.408310"	65	5.75621401666667
"S200212"	"Response_Inhibition"	"RIGHT"	"RIGHT"	551.809599999956	1300.0000026	n/a	n/a	n/a	n/a	n/a	n/a	n/a	"2020-02-12 10:43:58.717428"	"2020-02-12 10:43:59.477366"	66	5.75621401666667
"S200212"	"Response_Inhibition"	"LEFT"	"LEFT"	501.531200000045	1050.0000021	n/a	n/a	n/a	n/a	n/a	n/a	n/a	"2020-02-12 10:44:00.535664"	"2020-02-12 10:44:01.245470"	67	5.75621401666667
"S200212"	"Response_Inhibition"	"LEFT"	"Time_Max_Exceeded"	1500.04950010009	733.3333348	n/a	n/a	n/a	n/a	n/a	n/a	n/a	"2020-02-12 10:44:01.987490"	"2020-02-12 10:44:03.490626"	68	5.75621401666667
"S200212"	"Response_Inhibition"	"LEFT"	"LEFT"	502.448800000025	1083.3333355	n/a	n/a	n/a	n/a	n/a	n/a	n/a	"2020-02-12 10:44:04.583011"	"2020-02-12 10:44:05.293111"	69	5.75621401666667
"S200212"	"Response_Inhibition"	"LEFT"	"Time_Max_Exceeded"	1500.04603349995	1250.0000025	n/a	n/a	n/a	n/a	n/a	n/a	n/a	"2020-02-12 10:44:06.551502"	"2020-02-12 10:44:08.055092"	70	5.75621401666667
"S200212"	"Response_Inhibition"	"LEFT"	"LEFT"	496.120800000085	716.6666681	n/a	n/a	n/a	n/a	n/a	n/a	n/a	"2020-02-12 10:44:08.781117"	"2020-02-12 10:44:09.485371"	71	5.75621401666667
"S200212"	"Response_Inhibition"	"RIGHT"	"RIGHT"	400.273033800057	900.0000018	n/a	n/a	n/a	n/a	n/a	n/a	n/a	"2020-02-12 10:44:10.393948"	"2020-02-12 10:44:11.005362"	72	5.75621401666667
"S200212"	"Response_Inhibition"	"LEFT"	"Time_Max_Exceeded"	1500.04556690003	1383.3333361	n/a	n/a	n/a	n/a	n/a	n/a	n/a	"2020-02-12 10:44:12.398041"	"2020-02-12 10:44:13.901704"	73	5.75621401666667
"S200212"	"Response_Inhibition"	"LEFT"	"LEFT"	613.608800000065	1216.6666691	n/a	n/a	n/a	n/a	n/a	n/a	n/a	"2020-02-12 10:44:15.128190"	"2020-02-12 10:44:15.949066"	74	5.75621401666667
"S200212"	"Response_Inhibition"	"RIGHT"	"RIGHT"	728.172000000086	783.3333349	n/a	n/a	n/a	n/a	n/a	n/a	n/a	"2020-02-12 10:44:16.741526"	"2020-02-12 10:44:17.677206"	75	5.75621401666667
"S200212"	"Response_Inhibition"	"RIGHT"	"RIGHT"	571.809400000006	1100.0000022	n/a	n/a	n/a	n/a	n/a	n/a	n/a	"2020-02-12 10:44:18.785850"	"2020-02-12 10:44:19.565643"	76	5.75621401666667
"S200212"	"Response_Inhibition"	"RIGHT"	"Time_Max_Exceeded"	1500.05166690009	816.6666683	n/a	n/a	n/a	n/a	n/a	n/a	n/a	"2020-02-12 10:44:20.391533"	"2020-02-12 10:44:21.894234"	77	5.75621401666667
"S200212"	"Response_Inhibition"	"LEFT"	"Time_Max_Exceeded"	1500.06426700001	1033.3333354	n/a	n/a	n/a	n/a	n/a	n/a	n/a	"2020-02-12 10:44:22.937380"	"2020-02-12 10:44:24.440992"	78	5.75621401666667
"S200212"	"Response_Inhibition"	"RIGHT"	"Time_Max_Exceeded"	1500.05536679991	633.3333346	n/a	n/a	n/a	n/a	n/a	n/a	n/a	"2020-02-12 10:44:25.083856"	"2020-02-12 10:44:26.587044"	79	5.75621401666667
"S200212"	"Response_Inhibition"	"LEFT"	"LEFT"	591.925400000036	1433.3333362	n/a	n/a	n/a	n/a	n/a	n/a	n/a	"2020-02-12 10:44:28.029534"	"2020-02-12 10:44:28.828285"	80	5.75621401666667
"S200212"	"Response_Inhibition"	"LEFT"	"LEFT"	577.700400000026	566.6666678	n/a	n/a	n/a	n/a	n/a	n/a	n/a	"2020-02-12 10:44:29.403933"	"2020-02-12 10:44:30.189787"	81	5.75621401666667
"S200212"	"Response_Inhibition"	"RIGHT"	"RIGHT"	629.257199999984	1450.0000029	n/a	n/a	n/a	n/a	n/a	n/a	n/a	"2020-02-12 10:44:31.648484"	"2020-02-12 10:44:32.485829"	82	5.75621401666667
"S200212"	"Response_Inhibition"	"LEFT"	"LEFT"	612.047299999972	683.3333347	n/a	n/a	n/a	n/a	n/a	n/a	n/a	"2020-02-12 10:44:33.177174"	"2020-02-12 10:44:33.998901"	83	5.75621401666667
"S200212"	"Response_Inhibition"	"LEFT"	"Time_Max_Exceeded"	1500.0498671	1133.3333356	n/a	n/a	n/a	n/a	n/a	n/a	n/a	"2020-02-12 10:44:35.140478"	"2020-02-12 10:44:36.644027"	84	5.75621401666667
"S200212"	"Response_Inhibition"	"RIGHT"	"RIGHT"	564.948400000048	716.6666681	n/a	n/a	n/a	n/a	n/a	n/a	n/a	"2020-02-12 10:44:37.370086"	"2020-02-12 10:44:38.142707"	85	5.75621401666667
"S200212"	"Response_Inhibition"	"LEFT"	"LEFT"	584.865400000012	533.3333344	n/a	n/a	n/a	n/a	n/a	n/a	n/a	"2020-02-12 10:44:38.684363"	"2020-02-12 10:44:39.477852"	86	5.75621401666667
"S200212"	"Response_Inhibition"	"RIGHT"	"RIGHT"	657.242099999962	1350.0000027	n/a	n/a	n/a	n/a	n/a	n/a	n/a	"2020-02-12 10:44:40.835873"	"2020-02-12 10:44:41.701490"	87	5.75621401666667
"S200212"	"Response_Inhibition"	"RIGHT"	"Time_Max_Exceeded"	1500.0591004	1466.6666696	n/a	n/a	n/a	n/a	n/a	n/a	n/a	"2020-02-12 10:44:43.176564"	"2020-02-12 10:44:44.680358"	88	5.75621401666667
"S200212"	"Response_Inhibition"	"RIGHT"	"RIGHT"	679.260699999986	500.000001	n/a	n/a	n/a	n/a	n/a	n/a	n/a	"2020-02-12 10:44:45.190279"	"2020-02-12 10:44:46.078353"	89	5.75621401666667
"S200212"	"Response_Inhibition"	"LEFT"	"LEFT"	640.069600000061	750.0000015	n/a	n/a	n/a	n/a	n/a	n/a	n/a	"2020-02-12 10:44:46.836989"	"2020-02-12 10:44:47.685287"	90	5.75621401666667
"S200212"	"Response_Inhibition"	"RIGHT"	"RIGHT"	666.170000000079	733.3333348	n/a	n/a	n/a	n/a	n/a	n/a	n/a	"2020-02-12 10:44:48.427496"	"2020-02-12 10:44:49.301178"	91	5.75621401666667
"S200212"	"Response_Inhibition"	"LEFT"	"LEFT"	620.314699999994	683.3333347	n/a	n/a	n/a	n/a	n/a	n/a	n/a	"2020-02-12 10:44:49.992877"	"2020-02-12 10:44:50.821298"	92	5.75621401666667
"S200212"	"Response_Inhibition"	"LEFT"	"Time_Max_Exceeded"	1500.06593359998	900.0000018	n/a	n/a	n/a	n/a	n/a	n/a	n/a	"2020-02-12 10:44:51.730170"	"2020-02-12 10:44:53.233339"	93	5.75621401666667
"S200212"	"Response_Inhibition"	"LEFT"	"LEFT"	659.519899999964	983.3333353	n/a	n/a	n/a	n/a	n/a	n/a	n/a	"2020-02-12 10:44:54.226162"	"2020-02-12 10:44:55.093928"	94	5.75621401666667
"S200212"	"Response_Inhibition"	"RIGHT"	"RIGHT"	736.690599999974	550.0000011	n/a	n/a	n/a	n/a	n/a	n/a	n/a	"2020-02-12 10:44:55.653053"	"2020-02-12 10:44:56.597548"	95	5.75621401666667
"S200212"	"Response_Inhibition"	"LEFT"	"Time_Max_Exceeded"	1500.05180029996	933.3333352	n/a	n/a	n/a	n/a	n/a	n/a	n/a	"2020-02-12 10:44:57.539848"	"2020-02-12 10:44:59.042999"	96	5.75621401666667
"S200212"	"Response_Inhibition"	"RIGHT"	"RIGHT"	573.576600000024	683.3333347	n/a	n/a	n/a	n/a	n/a	n/a	n/a	"2020-02-12 10:44:59.735814"	"2020-02-12 10:45:00.516996"	97	5.75621401666667
"S200212"	"Response_Inhibition"	"RIGHT"	"RIGHT"	736.667200000056	1383.3333361	n/a	n/a	n/a	n/a	n/a	n/a	n/a	"2020-02-12 10:45:01.908371"	"2020-02-12 10:45:02.853629"	98	5.75621401666667
"S200212"	"Response_Inhibition"	"RIGHT"	"RIGHT"	685.05289999996	650.0000013	n/a	n/a	n/a	n/a	n/a	n/a	n/a	"2020-02-12 10:45:03.512577"	"2020-02-12 10:45:04.404967"	99	5.75621401666667
"S200212"	"Response_Inhibition"	"RIGHT"	"RIGHT"	892.291799999953	883.3333351	n/a	n/a	n/a	n/a	n/a	n/a	n/a	"2020-02-12 10:45:05.297141"	"2020-02-12 10:45:06.397899"	100	5.75621401666667
"S200212"	"Response_Inhibition"	"LEFT"	"LEFT"	845.124100000021	650.0000013	n/a	n/a	n/a	n/a	n/a	n/a	n/a	"2020-02-12 10:45:07.056069"	"2020-02-12 10:45:08.109590"	101	5.75621401666667
"S200212"	"Response_Inhibition"	"LEFT"	"LEFT"	435.370900000066	700.0000014	n/a	n/a	n/a	n/a	n/a	n/a	n/a	"2020-02-12 10:45:08.817816"	"2020-02-12 10:45:09.461128"	102	5.75621401666667
"S200212"	"Response_Inhibition"	"RIGHT"	"Time_Max_Exceeded"	1500.08696709999	1416.6666695	n/a	n/a	n/a	n/a	n/a	n/a	n/a	"2020-02-12 10:45:10.886227"	"2020-02-12 10:45:12.389657"	103	5.75621401666667
"S200212"	"Response_Inhibition"	"LEFT"	"Time_Max_Exceeded"	1500.05883390005	633.3333346	n/a	n/a	n/a	n/a	n/a	n/a	n/a	"2020-02-12 10:45:13.031954"	"2020-02-12 10:45:14.535375"	104	5.75621401666667
"S200212"	"Response_Inhibition"	"LEFT"	"Time_Max_Exceeded"	1500.05440040002	1100.0000022	n/a	n/a	n/a	n/a	n/a	n/a	n/a	"2020-02-12 10:45:15.644458"	"2020-02-12 10:45:17.148159"	105	5.75621401666667
"S200212"	"Response_Inhibition"	"RIGHT"	"RIGHT"	519.296700000041	1216.6666691	n/a	n/a	n/a	n/a	n/a	n/a	n/a	"2020-02-12 10:45:18.374434"	"2020-02-12 10:45:19.101085"	106	5.75621401666667
"S200212"	"Response_Inhibition"	"LEFT"	"Time_Max_Exceeded"	1500.07480010004	1200.0000024	n/a	n/a	n/a	n/a	n/a	n/a	n/a	"2020-02-12 10:45:20.309534"	"2020-02-12 10:45:21.813158"	107	5.75621401666667
"S200212"	"Response_Inhibition"	"RIGHT"	"Time_Max_Exceeded"	1500.04940010001	516.6666677	n/a	n/a	n/a	n/a	n/a	n/a	n/a	"2020-02-12 10:45:22.339786"	"2020-02-12 10:45:23.842513"	108	5.75621401666667
"S200212"	"Response_Inhibition"	"RIGHT"	"Time_Max_Exceeded"	1500.0631669	1333.333336	n/a	n/a	n/a	n/a	n/a	n/a	n/a	"2020-02-12 10:45:25.185513"	"2020-02-12 10:45:26.688808"	109	5.75621401666667
"S200212"	"Response_Inhibition"	"RIGHT"	"RIGHT"	801.1798	850.0000017	n/a	n/a	n/a	n/a	n/a	n/a	n/a	"2020-02-12 10:45:27.548540"	"2020-02-12 10:45:28.558439"	110	5.75621401666667
"S200212"	"Response_Inhibition"	"RIGHT"	"RIGHT"	413.678000000004	1016.6666687	n/a	n/a	n/a	n/a	n/a	n/a	n/a	"2020-02-12 10:45:29.583587"	"2020-02-12 10:45:30.205561"	111	5.75621401666667
"S200212"	"Response_Inhibition"	"LEFT"	"Time_Max_Exceeded"	1500.05810020002	1050.0000021	n/a	n/a	n/a	n/a	n/a	n/a	n/a	"2020-02-12 10:45:31.264718"	"2020-02-12 10:45:32.768066"	112	5.75621401666667
"S200212"	"Response_Inhibition"	"RIGHT"	"Time_Max_Exceeded"	1500.06836719994	866.6666684	n/a	n/a	n/a	n/a	n/a	n/a	n/a	"2020-02-12 10:45:33.644533"	"2020-02-12 10:45:35.147917"	113	5.75621401666667
"S200212"	"Response_Inhibition"	"LEFT"	"LEFT"	605.690800000048	1283.3333359	n/a	n/a	n/a	n/a	n/a	n/a	n/a	"2020-02-12 10:45:36.440201"	"2020-02-12 10:45:37.253668"	114	5.75621401666667
"S200212"	"Response_Inhibition"	"RIGHT"	"RIGHT"	745.101599999998	1150.0000023	n/a	n/a	n/a	n/a	n/a	n/a	n/a	"2020-02-12 10:45:38.412364"	"2020-02-12 10:45:39.365140"	115	5.75621401666667
"S200212"	"Response_Inhibition"	"LEFT"	"LEFT"	424.102400000038	783.3333349	n/a	n/a	n/a	n/a	n/a	n/a	n/a	"2020-02-12 10:45:40.157591"	"2020-02-12 10:45:40.789924"	116	5.75621401666667
"S200212"	"Response_Inhibition"	"RIGHT"	"RIGHT"	365.729999999985	1033.3333354	n/a	n/a	n/a	n/a	n/a	n/a	n/a	"2020-02-12 10:45:41.831341"	"2020-02-12 10:45:42.405229"	117	5.75621401666667
"S200212"	"Response_Inhibition"	"RIGHT"	"RIGHT"	649.028299999941	566.6666678	n/a	n/a	n/a	n/a	n/a	n/a	n/a	"2020-02-12 10:45:42.980305"	"2020-02-12 10:45:43.836386"	118	5.75621401666667
"S200212"	"Response_Inhibition"	"LEFT"	"LEFT"	508.340599999997	1100.0000022	n/a	n/a	n/a	n/a	n/a	n/a	n/a	"2020-02-12 10:45:44.945048"	"2020-02-12 10:45:45.661776"	119	5.75621401666667
"S200212"	"Response_Inhibition"	"RIGHT"	"RIGHT"	456.651899999997	950.0000019	n/a	n/a	n/a	n/a	n/a	n/a	n/a	"2020-02-12 10:45:46.620330"	"2020-02-12 10:45:47.285696"	120	5.75621401666667
"S200212"	"Response_Inhibition"	"LEFT"	"LEFT"	483.380500000067	1266.6666692	n/a	n/a	n/a	n/a	n/a	n/a	n/a	"2020-02-12 10:45:48.562208"	"2020-02-12 10:45:49.252448"	121	5.75621401666667
"S200212"	"Response_Inhibition"	"RIGHT"	"RIGHT"	378.573000000074	933.3333352	n/a	n/a	n/a	n/a	n/a	n/a	n/a	"2020-02-12 10:45:50.195094"	"2020-02-12 10:45:50.781121"	122	5.75621401666667
"S200212"	"Response_Inhibition"	"LEFT"	"LEFT"	504.888100000016	1166.666669	n/a	n/a	n/a	n/a	n/a	n/a	n/a	"2020-02-12 10:45:51.956450"	"2020-02-12 10:45:52.668286"	123	5.75621401666667
"S200212"	"Response_Inhibition"	"RIGHT"	"RIGHT"	621.348399999988	1483.3333363	n/a	n/a	n/a	n/a	n/a	n/a	n/a	"2020-02-12 10:45:54.159740"	"2020-02-12 10:45:54.989834"	124	5.75621401666667
"S200212"	"Response_Inhibition"	"RIGHT"	"RIGHT"	854.272600000058	1416.6666695	n/a	n/a	n/a	n/a	n/a	n/a	n/a	"2020-02-12 10:45:56.414960"	"2020-02-12 10:45:57.476366"	125	5.75621401666667
"S200212"	"Response_Inhibition"	"RIGHT"	"RIGHT"	664.974400000006	1183.3333357	n/a	n/a	n/a	n/a	n/a	n/a	n/a	"2020-02-12 10:45:58.668761"	"2020-02-12 10:45:59.541228"	126	5.75621401666667
"S200212"	"Response_Inhibition"	"LEFT"	"Time_Max_Exceeded"	1500.05913380002	666.666668	n/a	n/a	n/a	n/a	n/a	n/a	n/a	"2020-02-12 10:46:00.216154"	"2020-02-12 10:46:01.719350"	127	5.75621401666667
"S200212"	"Response_Inhibition"	"RIGHT"	"RIGHT"	736.580099999969	1100.0000022	n/a	n/a	n/a	n/a	n/a	n/a	n/a	"2020-02-12 10:46:02.828345"	"2020-02-12 10:46:03.773689"	128	5.75621401666667
"S200212"	"Response_Inhibition"	"LEFT"	"LEFT"	535.296899999935	600.0000012	n/a	n/a	n/a	n/a	n/a	n/a	n/a	"2020-02-12 10:46:04.382065"	"2020-02-12 10:46:05.125762"	129	5.75621401666667
"S200212"	"Response_Inhibition"	"RIGHT"	"RIGHT"	392.462200000068	766.6666682	n/a	n/a	n/a	n/a	n/a	n/a	n/a	"2020-02-12 10:46:05.901265"	"2020-02-12 10:46:06.500274"	130	5.75621401666667
"S200212"	"Response_Inhibition"	"LEFT"	"Time_Max_Exceeded"	1500.06000029998	550.0000011	n/a	n/a	n/a	n/a	n/a	n/a	n/a	"2020-02-12 10:46:07.059936"	"2020-02-12 10:46:08.563356"	131	5.75621401666667
"S200212"	"Response_Inhibition"	"LEFT"	"LEFT"	489.827399999967	966.6666686	n/a	n/a	n/a	n/a	n/a	n/a	n/a	"2020-02-12 10:46:09.539431"	"2020-02-12 10:46:10.237458"	132	5.75621401666667
"S200212"	"Response_Inhibition"	"LEFT"	"LEFT"	409.278299999983	1150.0000023	n/a	n/a	n/a	n/a	n/a	n/a	n/a	"2020-02-12 10:46:11.396387"	"2020-02-12 10:46:12.013743"	133	5.75621401666667
"S200212"	"Response_Inhibition"	"LEFT"	"LEFT"	613.683199999969	633.3333346	n/a	n/a	n/a	n/a	n/a	n/a	n/a	"2020-02-12 10:46:12.655576"	"2020-02-12 10:46:13.477926"	134	5.75621401666667
"S200212"	"Response_Inhibition"	"RIGHT"	"Time_Max_Exceeded"	1500.06353379998	1050.0000021	n/a	n/a	n/a	n/a	n/a	n/a	n/a	"2020-02-12 10:46:14.536367"	"2020-02-12 10:46:16.039975"	135	5.75621401666667
"S200212"	"Response_Inhibition"	"RIGHT"	"Time_Max_Exceeded"	1500.05413339996	683.3333347	n/a	n/a	n/a	n/a	n/a	n/a	n/a	"2020-02-12 10:46:16.733126"	"2020-02-12 10:46:18.236501"	136	5.75621401666667
"S200212"	"Response_Inhibition"	"LEFT"	"LEFT"	477.498600000104	1066.6666688	n/a	n/a	n/a	n/a	n/a	n/a	n/a	"2020-02-12 10:46:19.312326"	"2020-02-12 10:46:19.997085"	137	5.75621401666667
"S200212"	"Response_Inhibition"	"LEFT"	"LEFT"	670.672399999944	1400.0000028	n/a	n/a	n/a	n/a	n/a	n/a	n/a	"2020-02-12 10:46:21.407119"	"2020-02-12 10:46:22.285010"	138	5.75621401666667
"S200212"	"Response_Inhibition"	"LEFT"	"LEFT"	409.149800000023	1366.6666694	n/a	n/a	n/a	n/a	n/a	n/a	n/a	"2020-02-12 10:46:23.660140"	"2020-02-12 10:46:24.277182"	139	5.75621401666667
"S200212"	"Response_Inhibition"	"RIGHT"	"RIGHT"	606.50099999998	616.6666679	n/a	n/a	n/a	n/a	n/a	n/a	n/a	"2020-02-12 10:46:24.902477"	"2020-02-12 10:46:25.717099"	140	5.75621401666667
"S200212"	"Response_Inhibition"	"RIGHT"	"RIGHT"	406.135000000063	833.333335	n/a	n/a	n/a	n/a	n/a	n/a	n/a	"2020-02-12 10:46:26.559033"	"2020-02-12 10:46:27.173884"	141	5.75621401666667
"S200212"	"Response_Inhibition"	"LEFT"	"LEFT"	478.39769999996	1416.6666695	n/a	n/a	n/a	n/a	n/a	n/a	n/a	"2020-02-12 10:46:28.598723"	"2020-02-12 10:46:29.285620"	142	5.75621401666667
"S200212"	"Response_Inhibition"	"RIGHT"	"RIGHT"	406.085299999972	633.3333346	n/a	n/a	n/a	n/a	n/a	n/a	n/a	"2020-02-12 10:46:29.927536"	"2020-02-12 10:46:30.541890"	143	5.75621401666667
"S200212"	"Response_Inhibition"	"RIGHT"	"RIGHT"	599.171699999943	800.0000016	n/a	n/a	n/a	n/a	n/a	n/a	n/a	"2020-02-12 10:46:31.350421"	"2020-02-12 10:46:32.156271"	144	5.75621401666667
"S200212"	"Response_Inhibition"	"RIGHT"	"Time_Max_Exceeded"	1500.05470050008	733.3333348	n/a	n/a	n/a	n/a	n/a	n/a	n/a	"2020-02-12 10:46:32.897904"	"2020-02-12 10:46:34.401607"	145	5.75621401666667
"S200212"	"Response_Inhibition"	"RIGHT"	"RIGHT"	643.480600000089	983.3333353	n/a	n/a	n/a	n/a	n/a	n/a	n/a	"2020-02-12 10:46:35.394061"	"2020-02-12 10:46:36.245369"	146	5.75621401666667
"S200212"	"Response_Inhibition"	"LEFT"	"Time_Max_Exceeded"	1500.08100000002	1000.000002	n/a	n/a	n/a	n/a	n/a	n/a	n/a	"2020-02-12 10:46:37.254716"	"2020-02-12 10:46:38.755073"	147	5.75621401666667
"S200212"	"Response_Inhibition"	"RIGHT"	"RIGHT"	476.830899999982	700.0000014	n/a	n/a	n/a	n/a	n/a	n/a	n/a	"2020-02-12 10:46:39.464822"	"2020-02-12 10:46:40.149770"	148	5.75621401666667
"S200212"	"Response_Inhibition"	"LEFT"	"LEFT"	529.974599999946	1500.000003	n/a	n/a	n/a	n/a	n/a	n/a	n/a	"2020-02-12 10:46:41.659705"	"2020-02-12 10:46:42.397586"	149	5.75621401666667
"S200212"	"Response_Inhibition"	"LEFT"	"LEFT"	738.01919999994	500.000001	n/a	n/a	n/a	n/a	n/a	n/a	n/a	"2020-02-12 10:46:42.907224"	"2020-02-12 10:46:43.853718"	150	5.75621401666667
"S200212"	"Response_Inhibition"	"LEFT"	"LEFT"	503.786199999922	783.3333349	n/a	n/a	n/a	n/a	n/a	n/a	n/a	"2020-02-12 10:46:44.645591"	"2020-02-12 10:46:45.356267"	151	5.75621401666667
"S200212"	"Response_Inhibition"	"LEFT"	"LEFT"	599.679300000048	1216.6666691	n/a	n/a	n/a	n/a	n/a	n/a	n/a	"2020-02-12 10:46:46.582060"	"2020-02-12 10:46:47.389941"	152	5.75621401666667
"S200212"	"Response_Inhibition"	"LEFT"	"Time_Max_Exceeded"	1500.04553369998	583.3333345	n/a	n/a	n/a	n/a	n/a	n/a	n/a	"2020-02-12 10:46:47.982357"	"2020-02-12 10:46:49.485569"	153	5.75621401666667
"S200212"	"Response_Inhibition"	"LEFT"	"LEFT"	516.234899999972	1483.3333363	n/a	n/a	n/a	n/a	n/a	n/a	n/a	"2020-02-12 10:46:50.977862"	"2020-02-12 10:46:51.701953"	154	5.75621401666667
"S200212"	"Response_Inhibition"	"LEFT"	"LEFT"	360.769799999957	1150.0000023	n/a	n/a	n/a	n/a	n/a	n/a	n/a	"2020-02-12 10:46:52.860795"	"2020-02-12 10:46:53.429853"	155	5.75621401666667
"S200212"	"Response_Inhibition"	"LEFT"	"LEFT"	431.294699999967	583.3333345	n/a	n/a	n/a	n/a	n/a	n/a	n/a	"2020-02-12 10:46:54.021882"	"2020-02-12 10:46:54.661816"	156	5.75621401666667
"S200212"	"Response_Inhibition"	"RIGHT"	"Time_Max_Exceeded"	1500.07503360003	1000.000002	n/a	n/a	n/a	n/a	n/a	n/a	n/a	"2020-02-12 10:46:55.670790"	"2020-02-12 10:46:57.174199"	157	5.75621401666667
"S200212"	"Response_Inhibition"	"LEFT"	"LEFT"	436.661099999924	1450.0000029	n/a	n/a	n/a	n/a	n/a	n/a	n/a	"2020-02-12 10:46:58.632809"	"2020-02-12 10:46:59.276244"	158	5.75621401666667
"S200212"	"Response_Inhibition"	"LEFT"	"LEFT"	554.917700000033	533.3333344	n/a	n/a	n/a	n/a	n/a	n/a	n/a	"2020-02-12 10:46:59.818806"	"2020-02-12 10:47:00.581944"	159	5.75621401666667
"S200212"	"Response_Inhibition"	"RIGHT"	"Time_Max_Exceeded"	1500.0583334	950.0000019	n/a	n/a	n/a	n/a	n/a	n/a	n/a	"2020-02-12 10:47:01.541906"	"2020-02-12 10:47:03.045000"	160	5.75621401666667
"S200212"	"Response_Selection"	"RIGHT"	"RIGHT"	729.108499999995	533.3333344	n/a	n/a	n/a	n/a	n/a	n/a	n/a	"2020-02-12 10:39:16.228711"	"2020-02-12 10:39:17.165278"	1	2.86079911666667
"S200212"	"Response_Selection"	"LEFT"	"LEFT"	267.884600000002	1500.000003	n/a	n/a	n/a	n/a	n/a	n/a	n/a	"2020-02-12 10:39:18.673312"	"2020-02-12 10:39:19.149946"	2	2.86079911666667
"S200212"	"Response_Selection"	"RIGHT"	"RIGHT"	294.767100000001	800.0000016	n/a	n/a	n/a	n/a	n/a	n/a	n/a	"2020-02-12 10:39:19.959326"	"2020-02-12 10:39:20.461392"	3	2.86079911666667
"S200212"	"Response_Selection"	"LEFT"	"LEFT"	297.456399999987	1350.0000027	n/a	n/a	n/a	n/a	n/a	n/a	n/a	"2020-02-12 10:39:21.820124"	"2020-02-12 10:39:22.325786"	4	2.86079911666667
"S200212"	"Response_Selection"	"RIGHT"	"RIGHT"	285.868300000004	1250.0000025	n/a	n/a	n/a	n/a	n/a	n/a	n/a	"2020-02-12 10:39:23.584397"	"2020-02-12 10:39:24.077081"	5	2.86079911666667
"S200212"	"Response_Selection"	"LEFT"	"LEFT"	269.038099999989	866.6666684	n/a	n/a	n/a	n/a	n/a	n/a	n/a	"2020-02-12 10:39:24.953054"	"2020-02-12 10:39:25.429603"	6	2.86079911666667
"S200212"	"Response_Selection"	"LEFT"	"LEFT"	351.216099999988	1200.0000024	n/a	n/a	n/a	n/a	n/a	n/a	n/a	"2020-02-12 10:39:26.638385"	"2020-02-12 10:39:27.196961"	7	2.86079911666667
"S200212"	"Response_Selection"	"RIGHT"	"RIGHT"	294.296099999997	633.3333346	n/a	n/a	n/a	n/a	n/a	n/a	n/a	"2020-02-12 10:39:27.839211"	"2020-02-12 10:39:28.341401"	8	2.86079911666667
"S200212"	"Response_Selection"	"LEFT"	"LEFT"	299.897200000032	1300.0000026	n/a	n/a	n/a	n/a	n/a	n/a	n/a	"2020-02-12 10:39:29.649595"	"2020-02-12 10:39:30.156980"	9	2.86079911666667
"S200212"	"Response_Selection"	"LEFT"	"LEFT"	331.853200000012	500.000001	n/a	n/a	n/a	n/a	n/a	n/a	n/a	"2020-02-12 10:39:30.665780"	"2020-02-12 10:39:31.205334"	10	2.86079911666667
"S200212"	"Response_Selection"	"RIGHT"	"RIGHT"	212.17310000003	1083.3333355	n/a	n/a	n/a	n/a	n/a	n/a	n/a	"2020-02-12 10:39:32.297930"	"2020-02-12 10:39:32.717805"	11	2.86079911666667
"S200212"	"Response_Selection"	"LEFT"	"LEFT"	246.011699999997	1033.3333354	n/a	n/a	n/a	n/a	n/a	n/a	n/a	"2020-02-12 10:39:33.759350"	"2020-02-12 10:39:34.213174"	12	2.86079911666667
"S200212"	"Response_Selection"	"RIGHT"	"RIGHT"	310.942899999986	650.0000013	n/a	n/a	n/a	n/a	n/a	n/a	n/a	"2020-02-12 10:39:34.871470"	"2020-02-12 10:39:35.390782"	13	2.86079911666667
"S200212"	"Response_Selection"	"LEFT"	"LEFT"	262.207700000033	833.333335	n/a	n/a	n/a	n/a	n/a	n/a	n/a	"2020-02-12 10:39:36.232397"	"2020-02-12 10:39:36.702140"	14	2.86079911666667
"S200212"	"Response_Selection"	"LEFT"	"LEFT"	334.18979999999	1016.6666687	n/a	n/a	n/a	n/a	n/a	n/a	n/a	"2020-02-12 10:39:37.727199"	"2020-02-12 10:39:38.269778"	15	2.86079911666667
"S200212"	"Response_Selection"	"RIGHT"	"RIGHT"	295.56580000002	600.0000012	n/a	n/a	n/a	n/a	n/a	n/a	n/a	"2020-02-12 10:39:38.877836"	"2020-02-12 10:39:39.381727"	16	2.86079911666667
"S200212"	"Response_Selection"	"RIGHT"	"RIGHT"	504.646900000012	1166.666669	n/a	n/a	n/a	n/a	n/a	n/a	n/a	"2020-02-12 10:39:40.556657"	"2020-02-12 10:39:41.269090"	17	2.86079911666667
"S200212"	"Response_Selection"	"RIGHT"	"RIGHT"	286.058099999991	1450.0000029	n/a	n/a	n/a	n/a	n/a	n/a	n/a	"2020-02-12 10:39:42.727192"	"2020-02-12 10:39:43.221444"	18	2.86079911666667
"S200212"	"Response_Selection"	"LEFT"	"LEFT"	485.174299999983	1250.0000025	n/a	n/a	n/a	n/a	n/a	n/a	n/a	"2020-02-12 10:39:44.480316"	"2020-02-12 10:39:45.174243"	19	2.86079911666667
"S200212"	"Response_Selection"	"RIGHT"	"RIGHT"	522.786600000018	500.000001	n/a	n/a	n/a	n/a	n/a	n/a	n/a	"2020-02-12 10:39:45.682423"	"2020-02-12 10:39:46.414631"	20	2.86079911666667
"S200212"	"Response_Selection"	"RIGHT"	"RIGHT"	395.693700000038	1466.6666696	n/a	n/a	n/a	n/a	n/a	n/a	n/a	"2020-02-12 10:39:47.889591"	"2020-02-12 10:39:48.493011"	21	2.86079911666667
"S200212"	"Response_Selection"	"LEFT"	"LEFT"	286.782499999958	633.3333346	n/a	n/a	n/a	n/a	n/a	n/a	n/a	"2020-02-12 10:39:49.135258"	"2020-02-12 10:39:49.630382"	22	2.86079911666667
"S200212"	"Response_Selection"	"LEFT"	"LEFT"	335.969599999999	966.6666686	n/a	n/a	n/a	n/a	n/a	n/a	n/a	"2020-02-12 10:39:50.605938"	"2020-02-12 10:39:51.149049"	23	2.86079911666667
"S200212"	"Response_Selection"	"LEFT"	"LEFT"	289.532699999995	1366.6666694	n/a	n/a	n/a	n/a	n/a	n/a	n/a	"2020-02-12 10:39:52.524018"	"2020-02-12 10:39:53.021811"	24	2.86079911666667
"S200212"	"Response_Selection"	"RIGHT"	"RIGHT"	280.590200000006	1366.6666694	n/a	n/a	n/a	n/a	n/a	n/a	n/a	"2020-02-12 10:39:54.397450"	"2020-02-12 10:39:54.885184"	25	2.86079911666667
"S200212"	"Response_Selection"	"RIGHT"	"RIGHT"	321.990800000037	750.0000015	n/a	n/a	n/a	n/a	n/a	n/a	n/a	"2020-02-12 10:39:55.643228"	"2020-02-12 10:39:56.173668"	26	2.86079911666667
"S200212"	"Response_Selection"	"LEFT"	"LEFT"	259.862399999975	883.3333351	n/a	n/a	n/a	n/a	n/a	n/a	n/a	"2020-02-12 10:39:57.065829"	"2020-02-12 10:39:57.533175"	27	2.86079911666667
"S200212"	"Response_Selection"	"RIGHT"	"RIGHT"	245.463099999995	866.6666684	n/a	n/a	n/a	n/a	n/a	n/a	n/a	"2020-02-12 10:39:58.407927"	"2020-02-12 10:39:58.861005"	28	2.86079911666667
"S200212"	"Response_Selection"	"RIGHT"	"RIGHT"	303.423500000008	1016.6666687	n/a	n/a	n/a	n/a	n/a	n/a	n/a	"2020-02-12 10:39:59.886562"	"2020-02-12 10:40:00.397379"	29	2.86079911666667
"S200212"	"Response_Selection"	"LEFT"	"LEFT"	258.467100000018	1133.3333356	n/a	n/a	n/a	n/a	n/a	n/a	n/a	"2020-02-12 10:40:01.539082"	"2020-02-12 10:40:02.005879"	30	2.86079911666667
"S200212"	"Response_Selection"	"LEFT"	"LEFT"	277.110100000016	650.0000013	n/a	n/a	n/a	n/a	n/a	n/a	n/a	"2020-02-12 10:40:02.664199"	"2020-02-12 10:40:03.150556"	31	2.86079911666667
"S200212"	"Response_Selection"	"RIGHT"	"RIGHT"	331.026300000019	683.3333347	n/a	n/a	n/a	n/a	n/a	n/a	n/a	"2020-02-12 10:40:03.842954"	"2020-02-12 10:40:04.380968"	32	2.86079911666667
"S200212"	"Response_Selection"	"LEFT"	"LEFT"	304.217499999993	1400.0000028	n/a	n/a	n/a	n/a	n/a	n/a	n/a	"2020-02-12 10:40:05.789307"	"2020-02-12 10:40:06.301107"	33	2.86079911666667
"S200212"	"Response_Selection"	"LEFT"	"LEFT"	307.256800000005	916.6666685	n/a	n/a	n/a	n/a	n/a	n/a	n/a	"2020-02-12 10:40:07.226681"	"2020-02-12 10:40:07.741920"	34	2.86079911666667
"S200212"	"Response_Selection"	"RIGHT"	"RIGHT"	280.526099999975	1350.0000027	n/a	n/a	n/a	n/a	n/a	n/a	n/a	"2020-02-12 10:40:09.101269"	"2020-02-12 10:40:09.589792"	35	2.86079911666667
"S200212"	"Response_Selection"	"LEFT"	"LEFT"	241.969900000015	933.3333352	n/a	n/a	n/a	n/a	n/a	n/a	n/a	"2020-02-12 10:40:10.531318"	"2020-02-12 10:40:10.981522"	36	2.86079911666667
"S200212"	"Response_Selection"	"LEFT"	"LEFT"	267.551200000014	1450.0000029	n/a	n/a	n/a	n/a	n/a	n/a	n/a	"2020-02-12 10:40:12.442026"	"2020-02-12 10:40:12.917436"	37	2.86079911666667
"S200212"	"Response_Selection"	"RIGHT"	"RIGHT"	344.237099999987	983.3333353	n/a	n/a	n/a	n/a	n/a	n/a	n/a	"2020-02-12 10:40:13.909684"	"2020-02-12 10:40:14.461932"	38	2.86079911666667
"S200212"	"Response_Selection"	"LEFT"	"LEFT"	245.823199999961	1216.6666691	n/a	n/a	n/a	n/a	n/a	n/a	n/a	"2020-02-12 10:40:15.688326"	"2020-02-12 10:40:16.141659"	39	2.86079911666667
"S200212"	"Response_Selection"	"RIGHT"	"RIGHT"	255.924199999981	783.3333349	n/a	n/a	n/a	n/a	n/a	n/a	n/a	"2020-02-12 10:40:16.934059"	"2020-02-12 10:40:17.397773"	40	2.86079911666667
"S200212"	"Response_Selection"	"LEFT"	"LEFT"	224.210400000004	583.3333345	n/a	n/a	n/a	n/a	n/a	n/a	n/a	"2020-02-12 10:40:17.989213"	"2020-02-12 10:40:18.421276"	41	2.86079911666667
"S200212"	"Response_Selection"	"RIGHT"	"RIGHT"	263.709399999982	1200.0000024	n/a	n/a	n/a	n/a	n/a	n/a	n/a	"2020-02-12 10:40:19.630137"	"2020-02-12 10:40:20.101197"	42	2.86079911666667
"S200212"	"Response_Selection"	"RIGHT"	"RIGHT"	307.105100000001	700.0000014	n/a	n/a	n/a	n/a	n/a	n/a	n/a	"2020-02-12 10:40:20.810334"	"2020-02-12 10:40:21.327950"	43	2.86079911666667
"S200212"	"Response_Selection"	"RIGHT"	"RIGHT"	295.659900000032	733.3333348	n/a	n/a	n/a	n/a	n/a	n/a	n/a	"2020-02-12 10:40:22.069628"	"2020-02-12 10:40:22.573773"	44	2.86079911666667
"S200212"	"Response_Selection"	"RIGHT"	"RIGHT"	230.340200000001	1416.6666695	n/a	n/a	n/a	n/a	n/a	n/a	n/a	"2020-02-12 10:40:23.999498"	"2020-02-12 10:40:24.437313"	45	2.86079911666667
"S200212"	"Response_Selection"	"LEFT"	"LEFT"	256.045900000004	783.3333349	n/a	n/a	n/a	n/a	n/a	n/a	n/a	"2020-02-12 10:40:25.229320"	"2020-02-12 10:40:25.692963"	46	2.86079911666667
"S200212"	"Response_Selection"	"LEFT"	"LEFT"	283.394499999986	1116.6666689	n/a	n/a	n/a	n/a	n/a	n/a	n/a	"2020-02-12 10:40:26.818480"	"2020-02-12 10:40:27.309571"	47	2.86079911666667
"S200212"	"Response_Selection"	"LEFT"	"LEFT"	272.506399999997	1166.666669	n/a	n/a	n/a	n/a	n/a	n/a	n/a	"2020-02-12 10:40:28.484778"	"2020-02-12 10:40:28.965236"	48	2.86079911666667
"S200212"	"Response_Selection"	"LEFT"	"LEFT"	335.209599999985	1416.6666695	n/a	n/a	n/a	n/a	n/a	n/a	n/a	"2020-02-12 10:40:30.390630"	"2020-02-12 10:40:30.933567"	49	2.86079911666667
"S200212"	"Response_Selection"	"LEFT"	"LEFT"	273.478399999988	750.0000015	n/a	n/a	n/a	n/a	n/a	n/a	n/a	"2020-02-12 10:40:31.692151"	"2020-02-12 10:40:32.174600"	50	2.86079911666667
"S200212"	"Response_Selection"	"LEFT"	"LEFT"	329.824699999961	1316.6666693	n/a	n/a	n/a	n/a	n/a	n/a	n/a	"2020-02-12 10:40:33.500117"	"2020-02-12 10:40:34.037706"	51	2.86079911666667
"S200212"	"Response_Selection"	"RIGHT"	"RIGHT"	315.413599999999	1300.0000026	n/a	n/a	n/a	n/a	n/a	n/a	n/a	"2020-02-12 10:40:35.346455"	"2020-02-12 10:40:35.869060"	52	2.86079911666667
"S200212"	"Response_Selection"	"RIGHT"	"RIGHT"	299.436700000001	883.3333351	n/a	n/a	n/a	n/a	n/a	n/a	n/a	"2020-02-12 10:40:36.762311"	"2020-02-12 10:40:37.269581"	53	2.86079911666667
"S200212"	"Response_Selection"	"LEFT"	"LEFT"	252.063799999974	1466.6666696	n/a	n/a	n/a	n/a	n/a	n/a	n/a	"2020-02-12 10:40:38.745979"	"2020-02-12 10:40:39.206784"	54	2.86079911666667
"S200212"	"Response_Selection"	"RIGHT"	"RIGHT"	269.200900000044	1216.6666691	n/a	n/a	n/a	n/a	n/a	n/a	n/a	"2020-02-12 10:40:40.432247"	"2020-02-12 10:40:40.909235"	55	2.86079911666667
"S200212"	"Response_Selection"	"RIGHT"	"RIGHT"	337.640700000009	966.6666686	n/a	n/a	n/a	n/a	n/a	n/a	n/a	"2020-02-12 10:40:41.884328"	"2020-02-12 10:40:42.430707"	56	2.86079911666667
"S200212"	"Response_Selection"	"LEFT"	"LEFT"	494.387300000028	600.0000012	n/a	n/a	n/a	n/a	n/a	n/a	n/a	"2020-02-12 10:40:43.039046"	"2020-02-12 10:40:43.741436"	57	2.86079911666667
"S200212"	"Response_Selection"	"LEFT"	"LEFT"	313.146800000027	533.3333344	n/a	n/a	n/a	n/a	n/a	n/a	n/a	"2020-02-12 10:40:44.284187"	"2020-02-12 10:40:44.805798"	58	2.86079911666667
"S200212"	"Response_Selection"	"RIGHT"	"RIGHT"	309.289699999965	833.333335	n/a	n/a	n/a	n/a	n/a	n/a	n/a	"2020-02-12 10:40:45.648130"	"2020-02-12 10:40:46.165333"	59	2.86079911666667
"S200212"	"Response_Selection"	"RIGHT"	"RIGHT"	335.810800000047	583.3333345	n/a	n/a	n/a	n/a	n/a	n/a	n/a	"2020-02-12 10:40:46.757275"	"2020-02-12 10:40:47.302895"	60	2.86079911666667
"S200212"	"Response_Selection"	"LEFT"	"LEFT"	280.176799999992	550.0000011	n/a	n/a	n/a	n/a	n/a	n/a	n/a	"2020-02-12 10:40:47.861210"	"2020-02-12 10:40:48.349937"	61	2.86079911666667
"S200212"	"Response_Selection"	"RIGHT"	"RIGHT"	274.468999999954	1116.6666689	n/a	n/a	n/a	n/a	n/a	n/a	n/a	"2020-02-12 10:40:49.475245"	"2020-02-12 10:40:49.956959"	62	2.86079911666667
"S200212"	"Response_Selection"	"RIGHT"	"RIGHT"	292.059600000016	1500.000003	n/a	n/a	n/a	n/a	n/a	n/a	n/a	"2020-02-12 10:40:51.465308"	"2020-02-12 10:40:51.965901"	63	2.86079911666667
"S200212"	"Response_Selection"	"LEFT"	"LEFT"	350.998600000025	800.0000016	n/a	n/a	n/a	n/a	n/a	n/a	n/a	"2020-02-12 10:40:52.774528"	"2020-02-12 10:40:53.333033"	64	2.86079911666667
"S200212"	"Response_Selection"	"LEFT"	"LEFT"	276.890900000012	1266.6666692	n/a	n/a	n/a	n/a	n/a	n/a	n/a	"2020-02-12 10:40:54.609028"	"2020-02-12 10:40:55.093762"	65	2.86079911666667
"S200212"	"Response_Selection"	"RIGHT"	"RIGHT"	368.325499999969	550.0000011	n/a	n/a	n/a	n/a	n/a	n/a	n/a	"2020-02-12 10:40:55.653477"	"2020-02-12 10:40:56.229935"	66	2.86079911666667
"S200212"	"Response_Selection"	"LEFT"	"LEFT"	268.448899999953	1066.6666688	n/a	n/a	n/a	n/a	n/a	n/a	n/a	"2020-02-12 10:40:57.305169"	"2020-02-12 10:40:57.781419"	67	2.86079911666667
"S200212"	"Response_Selection"	"LEFT"	"LEFT"	268.562200000019	1083.3333355	n/a	n/a	n/a	n/a	n/a	n/a	n/a	"2020-02-12 10:40:58.873191"	"2020-02-12 10:40:59.349954"	68	2.86079911666667
"S200212"	"Response_Selection"	"RIGHT"	"RIGHT"	328.747099999987	933.3333352	n/a	n/a	n/a	n/a	n/a	n/a	n/a	"2020-02-12 10:41:00.292600"	"2020-02-12 10:41:00.830843"	69	2.86079911666667
"S200212"	"Response_Selection"	"LEFT"	"LEFT"	271.221700000012	983.3333353	n/a	n/a	n/a	n/a	n/a	n/a	n/a	"2020-02-12 10:41:01.822745"	"2020-02-12 10:41:02.301196"	70	2.86079911666667
"S200212"	"Response_Selection"	"LEFT"	"LEFT"	316.219200000035	683.3333347	n/a	n/a	n/a	n/a	n/a	n/a	n/a	"2020-02-12 10:41:02.993110"	"2020-02-12 10:41:03.518737"	71	2.86079911666667
"S200212"	"Response_Selection"	"RIGHT"	"RIGHT"	276.820500000042	1033.3333354	n/a	n/a	n/a	n/a	n/a	n/a	n/a	"2020-02-12 10:41:04.561127"	"2020-02-12 10:41:05.045402"	72	2.86079911666667
"S200212"	"Response_Selection"	"RIGHT"	"RIGHT"	265.734100000032	1133.3333356	n/a	n/a	n/a	n/a	n/a	n/a	n/a	"2020-02-12 10:41:06.187987"	"2020-02-12 10:41:06.661296"	73	2.86079911666667
"S200212"	"Response_Selection"	"RIGHT"	"RIGHT"	276.842199999976	1266.6666692	n/a	n/a	n/a	n/a	n/a	n/a	n/a	"2020-02-12 10:41:07.936929"	"2020-02-12 10:41:08.421761"	74	2.86079911666667
"S200212"	"Response_Selection"	"LEFT"	"LEFT"	347.379399999966	700.0000014	n/a	n/a	n/a	n/a	n/a	n/a	n/a	"2020-02-12 10:41:09.129847"	"2020-02-12 10:41:09.686582"	75	2.86079911666667
"S200212"	"Response_Selection"	"RIGHT"	"RIGHT"	283.687699999973	1066.6666688	n/a	n/a	n/a	n/a	n/a	n/a	n/a	"2020-02-12 10:41:10.762352"	"2020-02-12 10:41:11.253889"	76	2.86079911666667
"S200212"	"Response_Selection"	"LEFT"	"LEFT"	289.741200000037	733.3333348	n/a	n/a	n/a	n/a	n/a	n/a	n/a	"2020-02-12 10:41:11.995926"	"2020-02-12 10:41:12.492959"	77	2.86079911666667
"S200212"	"Response_Selection"	"RIGHT"	"RIGHT"	243.752799999982	916.6666685	n/a	n/a	n/a	n/a	n/a	n/a	n/a	"2020-02-12 10:41:13.417799"	"2020-02-12 10:41:13.869190"	78	2.86079911666667
"S200212"	"Response_Selection"	"RIGHT"	"RIGHT"	310.881800000004	1400.0000028	n/a	n/a	n/a	n/a	n/a	n/a	n/a	"2020-02-12 10:41:15.279120"	"2020-02-12 10:41:15.797088"	79	2.86079911666667
"S200212"	"Response_Selection"	"RIGHT"	"RIGHT"	275.310999999988	1316.6666693	n/a	n/a	n/a	n/a	n/a	n/a	n/a	"2020-02-12 10:41:17.122220"	"2020-02-12 10:41:17.605337"	80	2.86079911666667
