index	Trial_Type	Participant_ID	Trial_Probability	Question_Position_Prediction_Correct	Question_Position_Prediction_Agent	Question_Position_Comparison_Self	Question_Position_Comparison_Irrelevant	Trial_Stake	Trial_Stake_Jitter	Trial_Type_Jitter	Trial_Result_Jitter	Balance_Update_Jitter	Question_Comparison_Condition	Question_Comparison_Type	Question_Comparison_Question	Question_Comparison_Label	Question_Comparison_Item	Question_Comparison_Proportion_Yes	Question_Factual_Condition	Question_Factual_Item	Question_Factual_Question	Question_Factual_Label	Question_Factual_Proportion_DontKnow	Question_Factual_Type	Answer_Prediction_Correct	Answer_Prediction_Correct_RT	Answer_Prediction_Agent	Answer_Prediction_Agent_RT	Answer_Self	Answer_Self_RT	Answer_Irrelevant	Answer_Irrelevant_RT	Trial_Balance	Trial_Balance_Effect	Trial_Condition	Trial_ProbableSide	Prediction_Choice	Prediction_Result	Prediction_RT	Trial_Order	Trial_Datetime
128	Computer	S200212	0.8333333333333334	1	2	1	2	0.6	1150.0000023	1150.0000023	2066.6666708	2216.6666711000003	Minor	Good_deeds	54	You have given up your seat in the MRT	C2_9	0.95	Hard	I1_29	35	North Korea is more developed than South Korea	0.833333333333333	No	RIGHT	575.3222999999821	RIGHT	622.6474000000053	RIGHT	1008.882299999982	LEFT	1471.7787000000726	10.6	0.6	Probable_Truth	RIGHT	RIGHT	3	623.7653700402426	0	2020-02-12 11:14:57.730183
20	Self	S200212	0.6666666666666666	1	2	2	1	0.5	1500.000003	1500.000003	2066.6666708	2500.000005	Major	Wrong_doings	37	You have kidnapped someone	C2_28	0.95	Hard	I1_35	35	Fibers in oranges can be used to make fabric	0.0	Yes	RIGHT	526.4854999999216	RIGHT	486.6127000000233	LEFT	742.1384000000444	RIGHT	2323.465599999963	11.1	0.5	Probable_Truth	LEFT	LEFT	2	1585.106400000086	1	2020-02-12 11:15:23.545802
110	Computer	S200212	0.5	2	1	2	1	0.8	1066.6666688	1500.000003	2216.6666711000003	1650.0000033	Major	Good_deeds	34	You have signed up as a bone marrow donor	C2_48	0.0	Hard	I1_23	23	Malay is one of the races in Singapore	0.111111111111111	No	RIGHT	360.8563999999888	RIGHT	405.0949999999602	LEFT	1278.903600000035	RIGHT	1287.2608999999784	11.9	0.8	Probable_Truth	LEFT	RIGHT	5	790.4601514887247	2	2020-02-12 11:15:46.667013
24	Self	S200212	0.6666666666666666	2	1	1	2	0.2	1150.0000023	1150.0000023	1783.3333369	1933.3333372	Minor	Wrong_doings	29	You have organized a violent protest	C2_33	0.9	Easy	I2_16	58	Cleopatra was born in Greece	0.722222222222222	Yes	RIGHT	384.26700000002256	RIGHT	417.942499999981	LEFT	1659.9469000000229	RIGHT	2254.600200000027	12.1	0.2	Probable_Lie	RIGHT	RIGHT	1	411.283899999944	3	2020-02-12 11:16:10.387133
47	Self	S200212	0.8333333333333334	2	1	2	1	0.2	1000.000002	1433.3333362	1500.000003	2350.0000047	Minor	Wrong_doings	27	You have let a homeless man into your house	C2_8	0.0	Hard	I1_12	4	Mozambique is the world's poorest country	0.833333333333333	Yes	RIGHT	375.2299999999877	RIGHT	556.5292999999656	LEFT	2079.021799999964	LEFT	1891.6746999999527	12.3	0.2	Probable_Truth	LEFT	LEFT	1	994.0785999999662	4	2020-02-12 11:16:35.147236
100	Computer	S200212	0.5	1	2	2	1	0.8	1283.3333359	1500.000003	2500.000005	2350.0000047	Major	Wrong_doings	3	You have donated blood every 6 months for many years	C1_22	0.0	Hard	I1_58	58	Singapore has four seasons	0.833333333333333	No	RIGHT	662.7213000000438	RIGHT	407.9891999999745	LEFT	1455.3770999999642	LEFT	1492.452299999968	13.1	0.8	Probable_Truth	LEFT	RIGHT	6	993.8984863632433	5	2020-02-12 11:17:00.369497
116	Computer	S200212	0.6666666666666666	1	2	2	1	0.3	1000.000002	1500.000003	2216.6666711000003	1933.3333372	Major	Wrong_doings	37	You have kidnapped someone	C2_28	0.95	Hard	I1_35	35	Fibers in oranges can be used to make fabric	0.0	Yes	RIGHT	660.901400000057	RIGHT	343.08950000001914	LEFT	767.8341000000728	LEFT	3478.7293000000545	13.4	0.3	Probable_Lie	LEFT	LEFT	4	661.4732639794537	6	2020-02-12 11:17:25.505757
53	Self	S200212	0.5	1	2	2	1	0.4	1150.0000023	1350.0000027	2500.000005	2216.6666711000003	Minor	Good_deeds	16	You have been convicted in court	C2_60	0.2	Hard	I1_44	18	It is snowing outside now	0.0	Yes	RIGHT	838.082800000052	RIGHT	638.9504999999644	LEFT	887.0205000000624	LEFT	1000.1263999999992	13.8	0.4	Probable_Truth	RIGHT	LEFT	1	572.1489999999676	7	2020-02-12 11:17:49.233522
58	Self	S200212	0.5	2	1	1	2	0.3	1000.000002	1216.6666691	1500.000003	1500.000003	Major	Good_deeds	44	You have held the elevator doors for others	C2_35	1.0	Hard	I2_22	24	Marijuana is legal in Singapore	0.944444444444444	No	RIGHT	328.7894000000051	RIGHT	749.9606000000085	RIGHT	1285.1082000000815	LEFT	912.0497000000114	14.1	0.3	Probable_Lie	LEFT	LEFT	4	1071.883200000002	8	2020-02-12 11:18:11.370702
21	Self	S200212	0.6666666666666666	1	2	2	1	0.8	1433.3333362	1066.6666688	1783.3333369	2350.0000047	Major	Wrong_doings	47	You have held the door open for a stranger	C2_10	0.05	Easy	I2_43	43	R. Amundsen discovered the South Pole	1.0	No	RIGHT	490.1490999999396	RIGHT	511.934999999994	RIGHT	1222.4508999998989	LEFT	1707.253200000082	14.900000000000002	0.8	Probable_Truth	LEFT	RIGHT	5	564.0677000000096	9	2020-02-12 11:18:35.073861
119	Computer	S200212	0.6666666666666666	1	2	2	1	0.2	1433.3333362	1216.6666691	1650.0000033	1650.0000033	Major	Good_deeds	10	You have made someone cry	C1_47	0.0	Easy	I1_2	17	Singapore is a country	0.0555555555555556	No	RIGHT	566.7310000000043	RIGHT	472.4588999999924	RIGHT	1200.2641000000267	RIGHT	790.907299999958	15.1	0.2	Probable_Truth	RIGHT	LEFT	2	808.2507764893912	10	2020-02-12 11:18:57.425720
56	Self	S200212	0.5	2	1	1	2	0.5	1350.0000027	1150.0000023	1933.3333372	1783.3333369	Minor	Good_deeds	29	You have lied to your parents	C2_29	0.0	Easy	I2_46	22	February has 30 days	0.0	Yes	RIGHT	328.7979000000405	RIGHT	411.5888000000041	RIGHT	979.6475999999076	LEFT	1119.066699999962	15.6	0.5	Probable_Lie	RIGHT	RIGHT	3	379.9284000000398	11	2020-02-12 11:19:19.433615
84	Self	S200212	0.8333333333333334	1	2	2	1	0.3	1433.3333362	1216.6666691	1500.000003	2216.6666711000003	Major	Good_deeds	57	You have deceived a loved one	C2_6	0.65	Easy	I1_15	43	Cheese is an Asian staple	0.0	Yes	RIGHT	413.6271000000989	RIGHT	374.4817999998986	LEFT	2022.6391999999576	RIGHT	2273.146899999915	15.900000000000002	0.3	Probable_Lie	LEFT	RIGHT	1	406.71850000001086	12	2020-02-12 11:19:43.866222
118	Computer	S200212	0.6666666666666666	1	2	2	1	0.4	1283.3333359	1000.000002	1933.3333372	2066.6666708	Major	Wrong_doings	14	You have adopted a zero-waste lifestyle	C1_40	0.85	Hard	I2_48	55	December is the last month of the year	1.0	No	RIGHT	418.792499999995	RIGHT	359.9014999999781	LEFT	2559.618099999966	RIGHT	1231.4976000000115	16.3	0.4	Probable_Lie	LEFT	RIGHT	1	643.8502661976589	13	2020-02-12 11:20:07.937939
65	Self	S200212	0.6666666666666666	1	2	1	2	0.8	1216.6666691	1066.6666688	1500.000003	1650.0000033	Major	Good_deeds	46	You have engaged in drink-driving	C1_45	0.7	Easy	I1_24	60	"Statue of Liberty is 151 feet tall"	0.777777777777778	Yes	RIGHT	454.15059999993446	RIGHT	368.6993999999686	LEFT	1062.8911999999673	RIGHT	1839.0296000000037	17.1	0.8	Probable_Lie	LEFT	RIGHT	2	814.0214999999671	14	2020-02-12 11:20:30.481833
1	Self	S200212	0.5	1	2	1	2	0.6	1150.0000023	1433.3333362	1933.3333372	1783.3333369	Major	Good_deeds	43	You have made counterfeit money	C2_31	1.0	Easy	I2_52	44	There are 20 bones in the human skull	0.0	No	RIGHT	426.1347999999998	RIGHT	671.3568000000123	LEFT	1116.4846000000352	LEFT	1831.870399999957	17.700000000000003	0.6	Probable_Lie	LEFT	RIGHT	2	457.9357999999729	15	2020-02-12 11:20:53.858227
41	Self	S200212	0.8333333333333334	2	1	1	2	0.8	1066.6666688	1216.6666691	1650.0000033	2216.6666711000003	Major	Wrong_doings	33	You have told someone's secret to others	C1_11	0.95	Easy	I1_4	12	The first Grammy awards was held in 1959	0.0	No	RIGHT	304.5981000000211	RIGHT	647.3552999999583	RIGHT	1888.4186999999883	RIGHT	1615.7855000000154	18.500000000000004	0.8	Probable_Lie	LEFT	RIGHT	1	562.6719999999068	16	2020-02-12 11:21:17.602233
86	Self	S200212	0.8333333333333334	1	2	2	1	0.7	1500.000003	1283.3333359	2500.000005	2500.000005	Major	Wrong_doings	6	You have helped your parents when asked to	C2_56	1.0	Hard	I1_43	31	Nanyang Technological University is in Australia	0.0	No	RIGHT	644.1876999999749	RIGHT	320.7882999998901	RIGHT	2774.6907000000647	LEFT	1325.8446999999478	19.200000000000003	0.7	Probable_Lie	LEFT	RIGHT	1	545.7398000000921	17	2020-02-12 11:21:43.569720
93	Self	S200212	0.8333333333333334	2	1	2	1	0.4	1283.3333359	1216.6666691	1933.3333372	2500.000005	Minor	Good_deeds	20	You have donated a pay cheque to charity	C1_20	0.2	Easy	I2_2	34	South East Asia is currently free from polio	0.0	Yes	RIGHT	360.3777999999238	RIGHT	1053.0636999999388	LEFT	1231.2125000000833	LEFT	3783.402999999908	19.6	0.4	Probable_Lie	LEFT	RIGHT	1	763.8783999999532	18	2020-02-12 11:22:10.266080
45	Self	S200212	0.8333333333333334	2	1	2	1	0.6	1216.6666691	1283.3333359	2350.0000047	1500.000003	Minor	Wrong_doings	27	You have started a movement to support a cause	C2_47	1.0	Hard	I2_54	40	It is 20th Century now	0.0	Yes	RIGHT	335.88320000001204	RIGHT	465.7594999999901	LEFT	1790.4032000000143	RIGHT	3700.772400000005	20.200000000000003	0.6	Probable_Lie	LEFT	RIGHT	1	858.2407000000103	19	2020-02-12 11:22:36.346112
28	Self	S200212	0.6666666666666666	2	1	2	1	0.1	1283.3333359	1283.3333359	1650.0000033	1783.3333369	Major	Wrong_doings	23	You have volunteered for a disaster-related humanitarian mission	C2_14	0.15	Easy	I2_23	23	Earth's atmosphere extends up to 10,000km into space	0.0555555555555556	No	RIGHT	280.6636000000253	RIGHT	709.4373999999561	LEFT	2663.1122000000005	RIGHT	1978.135899999984	20.300000000000004	0.1	Probable_Lie	LEFT	RIGHT	1	713.2653999999548	20	2020-02-12 11:23:01.266283
91	Self	S200212	0.8333333333333334	2	1	1	2	0.5	1350.0000027	1000.000002	1500.000003	2350.0000047	Minor	Wrong_doings	38	You have illegally stayed in a country	C1_38	0.85	Hard	I2_8	50	The current century is 21st	0.0	Yes	RIGHT	511.62440000007336	RIGHT	669.3596999999727	LEFT	1723.64349999998	RIGHT	2182.7423999999382	20.800000000000004	0.5	Probable_Lie	LEFT	RIGHT	1	361.8182000000161	21	2020-02-12 11:23:25.489695
55	Self	S200212	0.5	1	2	2	1	0.6	1000.000002	1216.6666691	1500.000003	2066.6666708	Minor	Good_deeds	4	You have provided shelter for stray animals	C2_16	0.0	Easy	I2_18	59	The sun rises at night	0.0555555555555556	No	RIGHT	1069.4490999999289	RIGHT	311.18770000011864	LEFT	1431.9298000000344	LEFT	1126.0919999999714	21.40000000000001	0.6	Probable_Lie	LEFT	RIGHT	2	884.1792000000623	22	2020-02-12 11:23:48.673978
102	Computer	S200212	0.5	1	2	2	1	0.1	1500.000003	1066.6666688	2066.6666708	1650.0000033	Minor	Wrong_doings	37	You have stolen something	C1_3	0.85	Hard	I2_44	21	Afghan Hound is the first cloned cat	0.764705882352941	Yes	RIGHT	661.8773999998666	RIGHT	320.2911000000768	LEFT	1008.6065000000416	RIGHT	2807.153400000061	21.500000000000007	0.1	Probable_Lie	RIGHT	RIGHT	2	923.585770873717	23	2020-02-12 11:24:13.241921
27	Self	S200212	0.6666666666666666	2	1	1	2	0.6	1000.000002	1350.0000027	2216.6666711000003	1650.0000033	Minor	Good_deeds	8	You have given way to the handicapped	C2_42	0.05	Hard	I2_58	16	The Eiffel Tower is in Paris	0.0	Yes	RIGHT	360.33610000004046	RIGHT	695.3891000000567	RIGHT	1832.346899999948	RIGHT	1120.2483000001848	22.10000000000001	0.6	Probable_Truth	LEFT	LEFT	2	917.0360999999048	24	2020-02-12 11:24:36.961883
30	Self	S200212	0.6666666666666666	2	1	2	1	0.4	1066.6666688	1433.3333362	1933.3333372	2216.6666711000003	Minor	Good_deeds	14	You have watched an M18 movie when you were underage	C1_29	1.0	Hard	I1_38	5	Mageirocophobia is a fear of deathly disease	0.0	Yes	RIGHT	319.8304999998527	RIGHT	684.481999999889	LEFT	1774.9069999999847	RIGHT	3224.0696000001208	22.500000000000007	0.4	Probable_Truth	LEFT	RIGHT	5	541.1706000002141	25	2020-02-12 11:25:02.729482
26	Self	S200212	0.6666666666666666	2	1	1	2	0.5	1433.3333362	1500.000003	1500.000003	2500.000005	Major	Good_deeds	33	You have said thank you when you have received help	C2_23	0.0	Hard	I2_21	60	There are 9 rings in the Olympic flag	0.666666666666667	No	RIGHT	551.5501999998378	RIGHT	428.3437000001413	RIGHT	1292.3066000000745	LEFT	1886.993699999948	23.000000000000007	0.5	Probable_Truth	RIGHT	RIGHT	6	697.7909999998246	26	2020-02-12 11:25:27.099118
39	Self	S200212	0.8333333333333334	1	2	2	1	0.7	1350.0000027	1433.3333362	1933.3333372	2350.0000047	Minor	Wrong_doings	36	You have done something against your values	C1_49	0.0	Easy	I2_42	30	There is typically 0.6 grams of mercury in glass thermometer	0.0	Yes	RIGHT	725.953299999901	RIGHT	288.7823999999455	LEFT	1407.380999999987	RIGHT	2154.484800000091	23.700000000000006	0.7	Probable_Lie	RIGHT	RIGHT	1	818.5552999998436	27	2020-02-12 11:25:52.129970
137	Computer	S200212	0.8333333333333334	2	1	1	2	0.7	1216.6666691	1350.0000027	2216.6666711000003	2350.0000047	Major	Wrong_doings	33	You have told someone's secret to others	C1_11	0.95	Easy	I1_4	12	The first Grammy awards was held in 1959	0.0	No	RIGHT	392.6440999998704	RIGHT	434.6533999998883	RIGHT	1475.0880999999936	RIGHT	2335.1202999999714	24.40000000000001	0.7	Probable_Lie	RIGHT	LEFT	5	613.7273426915124	28	2020-02-12 11:26:17.088779
76	Self	S200212	0.6666666666666666	2	1	2	1	0.4	1350.0000027	1433.3333362	2216.6666711000003	2500.000005	Major	Good_deeds	15	You have blackmailed others for money	C2_24	0.95	Easy	I1_14	36	Teddy Roosevelt was the youngest US President	0.0	No	RIGHT	272.4421999998867	RIGHT	648.6076999999568	LEFT	1071.4124000000993	RIGHT	3125.499600000012	24.800000000000004	0.4	Probable_Lie	LEFT	RIGHT	2	986.9664000000284	29	2020-02-12 11:26:43.265651
66	Self	S200212	0.6666666666666666	1	2	1	2	0.4	1350.0000027	1350.0000027	2500.000005	2500.000005	Minor	Good_deeds	40	You have started an NGO using your savings	C2_40	0.05	Easy	I1_42	8	Penguin can fly with their wings	0.0555555555555556	Yes	RIGHT	677.1784000000025	RIGHT	376.3168999998925	LEFT	1938.672100000076	LEFT	1008.0926000000544	25.200000000000003	0.4	Probable_Lie	RIGHT	RIGHT	2	819.804700000077	30	2020-02-12 11:27:08.361439
111	Computer	S200212	0.5	2	1	2	1	0.5	1500.000003	1150.0000023	1500.000003	2066.6666708	Minor	Wrong_doings	57	You have violated a traffic law	C2_30	0.75	Hard	I2_41	41	Brazil is in South America	0.888888888888889	Yes	RIGHT	255.40380000006732	RIGHT	507.1880999998939	LEFT	991.4547999999286	LEFT	2471.328399999948	25.700000000000003	0.5	Probable_Truth	LEFT	LEFT	3	908.528633941236	31	2020-02-12 11:27:32.274226
134	Computer	S200212	0.8333333333333334	1	2	2	1	0.8	1433.3333362	1283.3333359	1650.0000033	2500.000005	Major	Good_deeds	18	You have stopped using plastics completely	C1_6	0.05	Easy	I1_28	29	Today is a weekday	0.777777777777778	Yes	RIGHT	623.8439999999628	RIGHT	304.66630000000805	LEFT	2063.160200000084	RIGHT	1397.9392999999618	26.500000000000004	0.8	Probable_Lie	RIGHT	RIGHT	1	867.9630190796072	32	2020-02-12 11:27:56.969607
142	Computer	S200212	0.8333333333333334	2	1	2	1	0.4	1350.0000027	1433.3333362	1500.000003	1650.0000033	Major	Good_deeds	11	You have returned your trays in food courts	C2_27	0.0	Easy	I1_40	49	Singapore is in Africa	0.0	Yes	RIGHT	384.4738000000234	RIGHT	707.3523999999907	RIGHT	1063.5632000000896	LEFT	1247.1783999999388	26.9	0.4	Probable_Truth	RIGHT	RIGHT	3	944.0938425622286	33	2020-02-12 11:28:19.825834
112	Computer	S200212	0.6666666666666666	1	2	1	2	0.7	1066.6666688	1150.0000023	2500.000005	1783.3333369	Minor	Good_deeds	19	You have sign up to sponsor a needy child	C1_14	1.0	Hard	I1_52	52	It is night time now	0.611111111111111	Yes	RIGHT	597.8228000001309	RIGHT	328.1119000000672	LEFT	1962.4518999999052	LEFT	992.1699999999872	27.6	0.7	Probable_Lie	LEFT	RIGHT	2	901.8243483604044	34	2020-02-12 11:28:43.673545
83	Self	S200212	0.8333333333333334	1	2	1	2	0.5	1150.0000023	1000.000002	1933.3333372	1933.3333372	Minor	Wrong_doings	3	You have cursed at others	C2_3	0.05	Easy	I1_19	19	A caterpillar has more muscle than a human	0.111111111111111	No	RIGHT	565.762100000029	RIGHT	431.68070000001535	RIGHT	1438.4511999999177	LEFT	1503.6287000000357	28.1	0.5	Probable_Lie	LEFT	RIGHT	1	1116.2122999999156	35	2020-02-12 11:29:07.312578
61	Self	S200212	0.5	2	1	2	1	0.6	1150.0000023	1000.000002	2216.6666711000003	2066.6666708	Major	Good_deeds	5	You have attended all lectures as a student	C2_1	0.8	Hard	I1_13	48	Vegetarians can eat vegetable products	0.944444444444444	Yes	RIGHT	504.84069999993153	RIGHT	776.5477000000374	LEFT	1333.6810999999216	RIGHT	2470.0085000001764	28.700000000000003	0.6	Probable_Truth	LEFT	RIGHT	6	1212.6175000000785	36	2020-02-12 11:29:32.618300
9	Self	S200212	0.5	2	1	1	2	0.2	1000.000002	1066.6666688	2500.000005	1933.3333372	Major	Wrong_doings	7	You have helped with household chores	C1_48	0.0	Easy	I1_45	45	Kangaroos live in Africa	0.0555555555555556	Yes	RIGHT	120.06810000002588	RIGHT	381.0484999999062	RIGHT	965.5553000000054	RIGHT	3063.535400000092	28.9	0.2	Probable_Truth	LEFT	RIGHT	6	421.871499999952	37	2020-02-12 11:29:56.642002
7	Self	S200212	0.5	1	2	2	1	0.5	1433.3333362	1350.0000027	2350.0000047	1933.3333372	Major	Good_deeds	53	You have eaten something in the MRT train	C2_53	1.0	Hard	I2_25	6	Summer is hotter than winter	0.666666666666667	No	RIGHT	580.0338999999894	RIGHT	376.1572000000797	RIGHT	1383.0133999999816	RIGHT	2923.075499999868	29.4	0.5	Probable_Truth	RIGHT	RIGHT	4	622.4316000000272	38	2020-02-12 11:30:22.169619
123	Computer	S200212	0.6666666666666666	2	1	1	2	0.4	1216.6666691	1216.6666691	2350.0000047	1783.3333369	Minor	Good_deeds	8	You have given way to the handicapped	C2_42	0.05	Hard	I2_58	16	The Eiffel Tower is in Paris	0.0	Yes	RIGHT	184.9365000000489	RIGHT	778.4659999999803	RIGHT	1019.9353999998948	RIGHT	719.9414000001525	29.8	0.4	Probable_Lie	RIGHT	LEFT	5	919.6625894996404	39	2020-02-12 11:30:44.922228
96	Computer	S200212	0.5	1	2	1	2	0.4	1216.6666691	1150.0000023	1933.3333372	2216.6666711000003	Minor	Good_deeds	25	You have rescued others from a catastrophe	C1_37	0.1	Easy	I1_21	25	Last day of the year is 30th December	0.0	Yes	RIGHT	399.0186999999423	RIGHT	281.176799999912	RIGHT	2688.221500000054	LEFT	2256.8138999999974	30.2	0.4	Probable_Lie	RIGHT	LEFT	6	766.3494138278827	40	2020-02-12 11:31:10.403287
49	Self	S200212	0.5	1	2	1	2	0.1	1216.6666691	1283.3333359	2216.6666711000003	2350.0000047	Major	Wrong_doings	17	You have sorted your trash into recycling bin	C1_50	0.65	Hard	I2_59	47	There are 6 million animal species on Earth	0.944444444444444	Yes	RIGHT	400.1714000000902	RIGHT	303.6887000000661	RIGHT	1547.9949000000488	RIGHT	2791.304900000114	30.3	0.1	Probable_Truth	RIGHT	RIGHT	5	737.8822999999102	41	2020-02-12 11:31:35.825565
140	Computer	S200212	0.8333333333333334	2	1	2	1	0.2	1433.3333362	1283.3333359	2066.6666708	2066.6666708	Minor	Good_deeds	59	You have followed instructions	C1_33	1.0	Hard	I1_53	53	Animals are living things	0.611111111111111	Yes	RIGHT	519.3402000002152	RIGHT	759.7886999999446	RIGHT	1039.1875000000257	RIGHT	1052.2298000000774	30.5	0.2	Probable_Lie	LEFT	RIGHT	1	670.227950093077	42	2020-02-12 11:31:59.288662
80	Self	S200212	0.8333333333333334	1	2	1	2	0.8	1000.000002	1066.6666688	2216.6666711000003	2350.0000047	Minor	Wrong_doings	34	You have a non-judgmental attitude towards everyone	C1_28	0.9	Easy	I2_27	53	Red is a color	0.722222222222222	Yes	RIGHT	456.3141000000997	RIGHT	328.3037000001059	RIGHT	1492.375999999922	RIGHT	1095.3164000000015	31.3	0.8	Probable_Truth	RIGHT	RIGHT	4	547.2569000000931	43	2020-02-12 11:32:22.416459
139	Computer	S200212	0.8333333333333334	2	1	1	2	0.3	1000.000002	1066.6666688	1650.0000033	1783.3333369	Major	Wrong_doings	8	You have participated in a scamming business	C1_27	0.8	Easy	I2_49	26	The hardest bone in human body is the jawbone	0.888888888888889	No	RIGHT	497.1451999999772	RIGHT	567.6748000000771	LEFT	1273.8248000000567	RIGHT	2566.28580000006	31.6	0.3	Probable_Lie	LEFT	RIGHT	1	812.9494358572715	44	2020-02-12 11:32:46.209957
75	Self	S200212	0.6666666666666666	2	1	1	2	0.1	1150.0000023	1283.3333359	2350.0000047	1650.0000033	Minor	Good_deeds	53	You have taken part in violent demonstration	C2_58	0.0	Hard	I2_28	10	Nomophobia is the fear of being without a phone or computer	0.0	Yes	RIGHT	375.6376999999702	RIGHT	618.5773999998219	LEFT	967.5331000000824	RIGHT	4174.358900000016	31.700000000000003	0.1	Probable_Truth	LEFT	RIGHT	5	1117.5186000000394	45	2020-02-12 11:33:12.473931
6	Self	S200212	0.5	1	2	2	1	0.1	1283.3333359	1216.6666691	1783.3333369	1500.000003	Minor	Wrong_doings	37	You have stolen something	C1_3	0.85	Hard	I2_44	21	Afghan Hound is the first cloned cat	0.764705882352941	Yes	RIGHT	380.42449999989	RIGHT	225.29800000006617	LEFT	695.6217000001743	RIGHT	1405.9548000000177	31.800000000000004	0.1	Probable_Lie	LEFT	RIGHT	1	715.8693999999741	46	2020-02-12 11:33:34.250142
2	Self	S200212	0.5	1	2	1	2	0.2	1000.000002	1283.3333359	2216.6666711000003	2066.6666708	Minor	Wrong_doings	7	You have thrown your trash into the bin	C1_43	0.65	Easy	I1_39	39	Bears have the biggest eyes among mammals	0.0555555555555556	Yes	RIGHT	478.4261999998307	RIGHT	535.7550999999603	RIGHT	1415.049100000033	LEFT	1639.588199999935	32.00000000000001	0.2	Probable_Lie	RIGHT	RIGHT	1	741.0072999998647	47	2020-02-12 11:33:58.201423
69	Self	S200212	0.6666666666666666	1	2	2	1	0.6	1150.0000023	1283.3333359	2066.6666708	2066.6666708	Major	Wrong_doings	39	You have shown your appreciation to your teachers	C2_17	0.0	Easy	I2_60	42	Astatine is the rarest element in the Earth's crust	0.0555555555555556	Yes	RIGHT	556.4429999999447	RIGHT	479.1695000001255	RIGHT	966.9690000000628	LEFT	2871.000700000195	32.60000000000001	0.6	Probable_Lie	RIGHT	RIGHT	2	812.8171999999267	48	2020-02-12 11:35:47.120571
95	Self	S200212	0.8333333333333334	2	1	2	1	0.8	1000.000002	1150.0000023	1783.3333369	1650.0000033	Minor	Good_deeds	50	You have kept your promises	C1_31	1.0	Easy	I1_54	54	Some owl species hunt fish	1.0	No	RIGHT	575.1573000000008	RIGHT	474.4321000000582	RIGHT	727.9177000000345	RIGHT	1738.2431999999426	33.400000000000006	0.8	Probable_Truth	RIGHT	RIGHT	4	892.1550999998544	49	2020-02-12 11:36:09.682206
131	Computer	S200212	0.8333333333333334	1	2	1	2	0.4	1283.3333359	1350.0000027	2500.000005	1933.3333372	Minor	Wrong_doings	24	You have bought cigarettes for a minor	C1_35	0.85	Hard	I2_33	42	The Amazon forest covers an area of 1 billion acres	0.888888888888889	No	RIGHT	973.2258999999884	RIGHT	425.2845000000889	LEFT	1340.9006999997928	LEFT	2424.4108000000324	33.800000000000004	0.4	Probable_Lie	LEFT	RIGHT	1	862.2260619090363	50	2020-02-12 11:36:35.346247
11	Self	S200212	0.5	2	1	1	2	0.3	1150.0000023	1350.0000027	2350.0000047	1500.000003	Major	Wrong_doings	16	You have said sorry when you were rude	C1_34	1.0	Easy	I2_13	13	Polish is 20th most spoken language in the World	0.611111111111111	No	RIGHT	423.939799999971	RIGHT	570.6403000001501	RIGHT	2350.442900000189	LEFT	1768.8301000000592	34.1	0.3	Probable_Lie	LEFT	RIGHT	2	733.8158000000021	51	2020-02-12 11:37:00.120705
19	Self	S200212	0.6666666666666666	1	2	1	2	0.6	1350.0000027	1216.6666691	1650.0000033	1500.000003	Minor	Good_deeds	40	You have failed to keep promises	C2_43	0.95	Easy	I2_55	4	There are 6000 spoken languages in the World	0.0	No	RIGHT	920.009299999947	RIGHT	640.9664000000248	RIGHT	1717.4107000000731	RIGHT	1624.057399999856	34.7	0.6	Probable_Lie	LEFT	RIGHT	1	684.3366999999034	52	2020-02-12 11:37:23.992646
94	Self	S200212	0.8333333333333334	2	1	2	1	0.3	1500.000003	1283.3333359	1650.0000033	2216.6666711000003	Major	Good_deeds	46	You have gossiped about your best friend	C2_20	0.55	Hard	I2_34	1	It sometimes snows in Singapore	0.777777777777778	No	RIGHT	752.3281000001134	RIGHT	656.0138999998344	RIGHT	2159.4033999999738	LEFT	1143.4752999998636	35.0	0.3	Probable_Truth	RIGHT	RIGHT	2	853.6856000000625	53	2020-02-12 11:37:48.784623
12	Self	S200212	0.5	2	1	2	1	0.6	1350.0000027	1283.3333359	2216.6666711000003	2066.6666708	Major	Good_deeds	13	You have engaged in money laundering	C1_7	0.1	Easy	I2_56	50	There are 10 continents in the World	0.722222222222222	No	RIGHT	464.9552999999287	RIGHT	478.1040000000303	LEFT	919.6624999999584	LEFT	3046.084800000017	35.6	0.6	Probable_Truth	RIGHT	RIGHT	6	1151.1351999999988	54	2020-02-12 11:38:14.336958
15	Self	S200212	0.5	2	1	2	1	0.4	1433.3333362	1000.000002	1783.3333369	2500.000005	Minor	Wrong_doings	57	You have violated a traffic law	C2_30	0.75	Hard	I2_41	41	Brazil is in South America	0.888888888888889	Yes	RIGHT	335.64849999993385	RIGHT	770.3320000000531	LEFT	790.7373000000462	RIGHT	2630.268800000067	36.0	0.4	Probable_Lie	LEFT	RIGHT	2	928.4950999999636	55	2020-02-12 11:38:39.088997
52	Self	S200212	0.5	1	2	2	1	0.8	1066.6666688	1000.000002	1650.0000033	1500.000003	Major	Wrong_doings	42	You have cheated on a test	C2_11	0.0	Hard	I2_11	44	Most plants emit oxygen in the day	0.0	Yes	RIGHT	759.322500000053	RIGHT	280.05510000002687	LEFT	1056.197500000053	RIGHT	2790.3873000000203	36.8	0.8	Probable_Truth	RIGHT	RIGHT	5	973.7694000000374	56	2020-02-12 11:39:02.738186
141	Computer	S200212	0.8333333333333334	2	1	2	1	0.5	1283.3333359	1150.0000023	1783.3333369	1500.000003	Minor	Wrong_doings	27	You have started a movement to support a cause	C2_47	1.0	Hard	I2_54	40	It is 20th Century now	0.0	Yes	RIGHT	279.93339999989075	RIGHT	584.86599999992	LEFT	1014.6710999999868	LEFT	1238.2810999999947	37.3	0.5	Probable_Truth	LEFT	RIGHT	6	598.7113016647477	57	2020-02-12 11:39:24.744886
34	Self	S200212	0.8333333333333334	1	2	1	2	0.2	1000.000002	1350.0000027	2066.6666708	1783.3333369	Major	Good_deeds	35	You have intentionally let others cut in line	C2_18	0.9	Hard	I2_35	28	Christmas Day is in March	0.0	Yes	RIGHT	525.4926999998588	RIGHT	488.45219999998335	RIGHT	2729.6065000000453	LEFT	1319.766399999935	37.5	0.2	Probable_Lie	RIGHT	RIGHT	1	644.3262999998751	58	2020-02-12 11:39:49.224817
14	Self	S200212	0.5	2	1	2	1	0.8	1216.6666691	1216.6666691	2066.6666708	2216.6666711000003	Major	Good_deeds	34	You have signed up as a bone marrow donor	C2_48	0.0	Hard	I1_23	23	Malay is one of the races in Singapore	0.111111111111111	No	RIGHT	384.7949000000881	RIGHT	413.8432000002013	LEFT	950.6244000001516	RIGHT	1058.6751000000731	38.3	0.8	Probable_Truth	LEFT	RIGHT	6	1785.9324000000925	59	2020-02-12 11:40:13.112595
108	Computer	S200212	0.5	2	1	2	1	0.6	1150.0000023	1216.6666691	2350.0000047	1500.000003	Major	Good_deeds	13	You have engaged in money laundering	C1_7	0.1	Easy	I2_56	50	There are 10 continents in the World	0.722222222222222	No	RIGHT	512.4785000000429	RIGHT	811.2530000000788	LEFT	727.4050999999417	LEFT	1044.555400000263	38.9	0.6	Probable_Truth	LEFT	LEFT	1	505.991378379243	60	2020-02-12 11:40:35.496606
38	Self	S200212	0.8333333333333334	1	2	2	1	0.1	1283.3333359	1150.0000023	1783.3333369	2216.6666711000003	Major	Good_deeds	18	You have stopped using plastics completely	C1_6	0.05	Easy	I1_28	29	Today is a weekday	0.777777777777778	Yes	RIGHT	643.2072000002336	RIGHT	288.7228999998115	LEFT	1111.2722000002575	RIGHT	1552.8298999997787	39.0	0.1	Probable_Lie	LEFT	RIGHT	1	887.4186999996709	61	2020-02-12 11:40:58.986218
88	Self	S200212	0.8333333333333334	2	1	1	2	0.2	1216.6666691	1066.6666688	2500.000005	1933.3333372	Minor	Wrong_doings	20	You have helped others to pick up their belongings	C2_46	0.15	Easy	I1_1	2	Mexico's National Day is September 16	0.0555555555555556	No	RIGHT	439.2073999997592	RIGHT	637.1664999996938	RIGHT	1284.2851999998857	LEFT	2767.13989999962	39.2	0.2	Probable_Lie	LEFT	RIGHT	1	761.1970000002657	62	2020-02-12 11:41:24.169192
74	Self	S200212	0.6666666666666666	2	1	1	2	0.3	1433.3333362	1350.0000027	1500.000003	2216.6666711000003	Minor	Wrong_doings	58	You have taken responsibility for your actions	C2_19	0.0	Hard	I2_17	28	French is Singapore's official language	0.0	Yes	RIGHT	232.12390000026065	RIGHT	526.2533000000076	RIGHT	928.0017000000952	LEFT	1239.7906999999575	39.5	0.3	Probable_Lie	LEFT	RIGHT	1	902.4137000001248	63	2020-02-12 11:41:47.072590
63	Self	S200212	0.5	2	1	2	1	0.8	1066.6666688	1066.6666688	2500.000005	1650.0000033	Minor	Wrong_doings	59	You have used heroin	C1_59	1.0	Hard	I2_24	6	The Seine river is 50 feet above sea level	0.833333333333333	No	RIGHT	287.1322000000873	RIGHT	635.7155000000603	LEFT	927.7673000001414	LEFT	3184.0190999996594	40.3	0.8	Probable_Lie	RIGHT	RIGHT	1	589.0149000001657	64	2020-02-12 11:42:11.562247
72	Self	S200212	0.6666666666666666	2	1	1	2	0.2	1283.3333359	1066.6666688	2066.6666708	2066.6666708	Minor	Wrong_doings	30	You have been donating all your excess food to a food bank	C2_38	0.0	Hard	I1_36	41	Obama is the USA president now	0.833333333333333	Yes	RIGHT	368.3897999999317	RIGHT	468.7085999998999	LEFT	1783.1396000001405	LEFT	1190.777799999978	40.5	0.2	Probable_Truth	LEFT	RIGHT	5	820.8767999999509	65	2020-02-12 11:42:35.257091
23	Self	S200212	0.6666666666666666	1	2	2	1	0.4	1216.6666691	1350.0000027	2216.6666711000003	2216.6666711000003	Major	Good_deeds	10	You have made someone cry	C1_47	0.0	Easy	I1_2	17	Singapore is a country	0.0555555555555556	No	RIGHT	335.15299999999115	RIGHT	112.27660000031392	RIGHT	823.5232000001815	RIGHT	776.8240999998852	40.9	0.4	Probable_Lie	RIGHT	RIGHT	2	630.2839999998469	66	2020-02-12 11:42:57.512550
92	Self	S200212	0.8333333333333334	2	1	2	1	0.6	1066.6666688	1433.3333362	2216.6666711000003	1783.3333369	Major	Wrong_doings	9	You have engaged in underage smoking	C1_9	0.05	Easy	I2_50	37	Fishes can swim in water	0.833333333333333	No	RIGHT	312.8287999998065	RIGHT	615.368799999942	LEFT	976.475300000402	RIGHT	866.9486000003417	41.5	0.6	Probable_Truth	RIGHT	RIGHT	5	916.9090000000324	67	2020-02-12 11:43:20.272524
109	Computer	S200212	0.5	2	1	2	1	0.4	1283.3333359	1000.000002	2066.6666708	2350.0000047	Minor	Good_deeds	30	You have cheated on a national exam	C2_57	0.5	Hard	I1_27	27	Acoustic Kitty refers to cat with implants	0.0	No	RIGHT	304.0476000001036	RIGHT	716.0604000000603	LEFT	951.721400000224	LEFT	2668.6799000003703	41.9	0.4	Probable_Lie	RIGHT	RIGHT	2	857.4636220229253	68	2020-02-12 11:43:45.032518
106	Computer	S200212	0.5	2	1	1	2	0.1	1433.3333362	1350.0000027	2500.000005	2500.000005	Minor	Wrong_doings	48	You have fabricated facts about yourself	C1_16	0.05	Easy	I1_50	36	Arabi is the oldest surviving breed of horse	0.166666666666667	Yes	RIGHT	311.91979999994146	RIGHT	528.8630999998531	LEFT	1423.26120000007	LEFT	2351.934000000256	42.0	0.1	Probable_Truth	RIGHT	RIGHT	6	689.8330601950126	69	2020-02-12 11:44:10.681309
103	Computer	S200212	0.5	1	2	2	1	0.2	1000.000002	1000.000002	2216.6666711000003	2066.6666708	Major	Good_deeds	53	You have eaten something in the MRT train	C2_53	1.0	Hard	I2_25	6	Summer is hotter than winter	0.666666666666667	No	RIGHT	643.2653000001665	RIGHT	536.6076000000248	RIGHT	1440.423500000179	RIGHT	1278.8487000002533	42.2	0.2	Probable_Lie	RIGHT	RIGHT	3	778.2599668781797	70	2020-02-12 11:44:34.217698
121	Computer	S200212	0.6666666666666666	2	1	1	2	0.3	1150.0000023	1000.000002	1783.3333369	1500.000003	Major	Good_deeds	39	You have faked an illness	C1_39	0.65	Easy	I1_5	11	It takes 112 years to build the Pisa Tower	1.0	No	RIGHT	480.5661000000328	RIGHT	569.2110999998476	LEFT	1063.8244000001578	RIGHT	2462.325200000123	42.5	0.3	Probable_Lie	LEFT	RIGHT	1	977.9923913422612	71	2020-02-12 11:44:57.778256
122	Computer	S200212	0.6666666666666666	2	1	1	2	0.2	1283.3333359	1150.0000023	1500.000003	2350.0000047	Major	Good_deeds	33	You have said thank you when you have received help	C2_23	0.0	Hard	I2_21	60	There are 9 rings in the Olympic flag	0.666666666666667	No	RIGHT	183.54619999990973	RIGHT	507.3447000004308	RIGHT	920.670699999846	LEFT	1558.2862999999634	42.7	0.2	Probable_Lie	RIGHT	LEFT	6	916.4808728428718	72	2020-02-12 11:45:20.720568
32	Self	S200212	0.8333333333333334	1	2	1	2	0.4	1216.6666691	1283.3333359	2350.0000047	1650.0000033	Minor	Good_deeds	54	You have given up your seat in the MRT	C2_9	0.95	Hard	I1_29	35	North Korea is more developed than South Korea	0.833333333333333	No	RIGHT	673.6927000001742	RIGHT	367.8681000001234	RIGHT	791.8231999997261	LEFT	1056.0208000001694	43.1	0.4	Probable_Lie	LEFT	RIGHT	1	1211.2403000000995	73	2020-02-12 11:45:43.896767
78	Self	S200212	0.6666666666666666	2	1	2	1	0.8	1216.6666691	1500.000003	2500.000005	1783.3333369	Minor	Wrong_doings	19	You have drunk alcohol when you were underage	C1_60	0.95	Easy	I2_5	17	China is a part of Asia	0.944444444444444	Yes	RIGHT	136.75980000016352	RIGHT	564.9267999997392	LEFT	2263.1882000000587	LEFT	2042.643300000236	43.9	0.8	Probable_Lie	RIGHT	RIGHT	1	657.2165999996287	74	2020-02-12 11:46:09.138252
8	Self	S200212	0.5	2	1	1	2	0.5	1066.6666688	1433.3333362	1500.000003	1650.0000033	Minor	Good_deeds	48	You have lost everything just to help others	C2_13	0.95	Hard	I2_36	56	Africa is the continent with the least rainfall	0.888888888888889	Yes	RIGHT	111.21529999991252	RIGHT	493.19420000028913	LEFT	1918.8239999998584	RIGHT	2142.9259000001366	44.4	0.5	Probable_Lie	RIGHT	RIGHT	2	960.3159999996932	75	2020-02-12 11:46:32.993220
104	Computer	S200212	0.5	2	1	1	2	0.7	1216.6666691	1066.6666688	1650.0000033	1783.3333369	Minor	Good_deeds	48	You have lost everything just to help others	C2_13	0.95	Hard	I2_36	56	Africa is the continent with the least rainfall	0.888888888888889	Yes	RIGHT	455.2064999998038	RIGHT	486.7239999998674	LEFT	1426.9352000001163	RIGHT	1829.56379999996	45.1	0.7	Probable_Lie	LEFT	LEFT	4	518.1068088232083	76	2020-02-12 11:46:56.001271
127	Computer	S200212	0.6666666666666666	2	1	2	1	0.1	1350.0000027	1350.0000027	2500.000005	1933.3333372	Minor	Wrong_doings	42	You have volunteered every week for many years	C1_58	0.0	Hard	I1_60	21	A square has 3 corners	0.0	No	RIGHT	359.9773999999343	RIGHT	721.8302999999651	LEFT	1312.4612999999954	LEFT	1061.7663000002722	45.2	0.1	Probable_Lie	RIGHT	LEFT	6	811.2619617094317	77	2020-02-12 11:47:19.977358
113	Computer	S200212	0.6666666666666666	1	2	1	2	0.8	1350.0000027	1433.3333362	1783.3333369	1500.000003	Minor	Wrong_doings	28	You have assisted in a crime	C2_37	0.05	Easy	I2_4	48	Cernan was the second last man to walk on the Moon	0.0	Yes	RIGHT	386.2000000003718	RIGHT	368.4858000001441	LEFT	956.2959999998384	LEFT	2455.3547999998955	46.0	0.8	Probable_Truth	RIGHT	LEFT	2	796.5535230345265	78	2020-02-12 11:47:43.585247
10	Self	S200212	0.5	2	1	1	2	0.1	1500.000003	1150.0000023	1650.0000033	2350.0000047	Minor	Wrong_doings	48	You have fabricated facts about yourself	C1_16	0.05	Easy	I1_50	36	Arabi is the oldest surviving breed of horse	0.166666666666667	Yes	RIGHT	296.3176000002932	RIGHT	407.6386000001549	LEFT	1948.621799999728	RIGHT	2727.909100000033	46.1	0.1	Probable_Lie	RIGHT	RIGHT	1	436.852700000145	79	2020-02-12 11:48:08.625106
17	Self	S200212	0.6666666666666666	1	2	1	2	0.3	1000.000002	1150.0000023	2350.0000047	1933.3333372	Minor	Wrong_doings	28	You have assisted in a crime	C2_37	0.05	Easy	I2_4	48	Cernan was the second last man to walk on the Moon	0.0	Yes	RIGHT	331.4375999998447	RIGHT	199.7214000002714	LEFT	725.615999999718	LEFT	1656.145899999956	46.4	0.3	Probable_Lie	LEFT	RIGHT	2	1135.441599999922	80	2020-02-12 11:48:31.680882
31	Self	S200212	0.6666666666666666	2	1	2	1	0.3	1216.6666691	1066.6666688	2066.6666708	2350.0000047	Minor	Wrong_doings	42	You have volunteered every week for many years	C1_58	0.0	Hard	I1_60	21	A square has 3 corners	0.0	No	RIGHT	128.813799999989	RIGHT	606.6135000000941	LEFT	831.5256000000772	LEFT	788.3091000003333	46.7	0.3	Probable_Truth	RIGHT	RIGHT	6	946.0120999997343	81	2020-02-12 11:48:54.256591
89	Self	S200212	0.8333333333333334	2	1	1	2	0.7	1150.0000023	1350.0000027	2066.6666708	1500.000003	Major	Wrong_doings	31	You have sheltered others from disasters	C2_50	0.0	Hard	I1_37	25	Today is Sunday	0.0	Yes	RIGHT	296.4171999997234	RIGHT	597.7395999998407	LEFT	1696.3504999998804	LEFT	1096.1292000001777	47.4	0.7	Probable_Truth	RIGHT	RIGHT	3	504.4711000000461	82	2020-02-12 11:49:17.088985
36	Self	S200212	0.8333333333333334	1	2	2	1	0.5	1066.6666688	1500.000003	2500.000005	2066.6666708	Major	Wrong_doings	49	You have been physically hurt to protect others	C1_24	0.0	Easy	I2_30	33	The Earth is round	0.833333333333333	Yes	RIGHT	434.7328999997444	RIGHT	240.1723000002676	RIGHT	3494.9179000000186	RIGHT	1078.753200000392	47.9	0.5	Probable_Lie	LEFT	RIGHT	1	630.7870999999068	83	2020-02-12 11:49:42.681369
29	Self	S200212	0.6666666666666666	2	1	2	1	0.8	1500.000003	1000.000002	2350.0000047	2066.6666708	Major	Wrong_doings	58	You have bought cocaine	C1_8	1.0	Easy	I1_11	38	Chickens lay eggs	0.944444444444444	Yes	RIGHT	312.33760000031907	RIGHT	369.4821999997657	LEFT	919.0598000000136	RIGHT	1437.3999999997975	48.7	0.8	Probable_Lie	RIGHT	RIGHT	2	560.8523000000787	84	2020-02-12 11:50:05.776999
42	Self	S200212	0.8333333333333334	2	1	1	2	0.4	1150.0000023	1500.000003	2216.6666711000003	1933.3333372	Minor	Good_deeds	36	You have sold illegal drugs	C1_36	0.0	Hard	I2_26	54	The Franco-Prussian War occurred in the 19th century	0.944444444444444	No	RIGHT	360.08110000011584	RIGHT	401.39129999988654	LEFT	755.9168000002501	RIGHT	3607.52390000016	49.1	0.4	Probable_Truth	LEFT	LEFT	1	914.0506999997342	85	2020-02-12 11:50:31.192715
13	Self	S200212	0.5	2	1	2	1	0.7	1283.3333359	1500.000003	1933.3333372	1783.3333369	Minor	Good_deeds	30	You have cheated on a national exam	C2_57	0.5	Hard	I1_27	27	Acoustic Kitty refers to cat with implants	0.0	No	RIGHT	296.3913000003231	RIGHT	748.1051999998272	LEFT	951.88539999981	RIGHT	1642.2246000001903	49.8	0.7	Probable_Lie	RIGHT	RIGHT	2	868.6357000001408	86	2020-02-12 11:50:54.777295
22	Self	S200212	0.6666666666666666	1	2	2	1	0.1	1283.3333359	1433.3333362	2500.000005	1783.3333369	Major	Wrong_doings	14	You have adopted a zero-waste lifestyle	C1_40	0.85	Hard	I2_48	55	December is the last month of the year	1.0	No	RIGHT	645.4363999996531	RIGHT	485.369499999706	LEFT	815.6474000002163	RIGHT	968.9271000002008	49.9	0.1	Probable_Lie	LEFT	RIGHT	1	786.255600000004	87	2020-02-12 11:51:18.056427
5	Self	S200212	0.5	1	2	2	1	0.7	1350.0000027	1000.000002	1650.0000033	2500.000005	Major	Good_deeds	31	You have engaged in arson	C2_25	0.0	Easy	I2_40	52	The human's inner ear is larger than a pencil eraser	0.666666666666667	Yes	RIGHT	632.2681000001467	RIGHT	263.99410000021817	LEFT	807.2539999998298	RIGHT	2535.6418000001213	50.6	0.7	Probable_Truth	LEFT	RIGHT	6	735.7863000001998	88	2020-02-12 11:51:42.105130
82	Self	S200212	0.8333333333333334	1	2	1	2	0.2	1066.6666688	1433.3333362	1650.0000033	1650.0000033	Minor	Wrong_doings	13	You have extorted money from anyone	C1_51	0.85	Hard	I1_31	39	There are 7 days in a week	0.0	Yes	RIGHT	398.7666999996691	RIGHT	345.268600000054	LEFT	855.1596000002064	RIGHT	880.1863000003323	50.8	0.2	Probable_Truth	RIGHT	RIGHT	2	606.7563000001428	89	2020-02-12 11:52:03.568504
114	Computer	S200212	0.6666666666666666	1	2	1	2	0.1	1150.0000023	1283.3333359	2350.0000047	2216.6666711000003	Minor	Good_deeds	43	You have given directions to a lost tourist	C1_19	0.0	Hard	I1_17	2	Singapore is a poor country	0.888888888888889	Yes	RIGHT	478.6060999999791	RIGHT	345.29569999995147	RIGHT	2055.721100000028	LEFT	952.3113000000194	50.900000000000006	0.1	Probable_Truth	LEFT	LEFT	2	913.946225899709	90	2020-02-12 11:52:27.888623
64	Self	S200212	0.6666666666666666	1	2	1	2	0.3	1000.000002	1216.6666691	1783.3333369	2350.0000047	Major	Wrong_doings	26	You have offered a listening ear to a friend	C2_26	1.0	Hard	I2_1	45	Slavery was abolished in Cuba in 1886	1.0	No	RIGHT	441.8510000000424	RIGHT	527.7859000002536	RIGHT	1075.006399999893	RIGHT	2319.7877000002336	51.2	0.3	Probable_Lie	LEFT	RIGHT	1	785.0135999997292	91	2020-02-12 11:52:51.968507
143	Computer	S200212	0.8333333333333334	2	1	2	1	0.6	1500.000003	1000.000002	2350.0000047	2216.6666711000003	Minor	Wrong_doings	27	You have let a homeless man into your house	C2_8	0.0	Hard	I1_12	4	Mozambique is the world's poorest country	0.833333333333333	Yes	RIGHT	440.0619000002735	RIGHT	474.3005999998786	LEFT	1318.5975000001235	LEFT	1511.7105999997875	51.8	0.6	Probable_Truth	RIGHT	RIGHT	3	596.1021974060804	92	2020-02-12 11:53:15.953397
107	Computer	S200212	0.5	2	1	1	2	0.3	1350.0000027	1283.3333359	1783.3333369	1933.3333372	Major	Wrong_doings	16	You have said sorry when you were rude	C1_34	1.0	Easy	I2_13	13	Polish is 20th most spoken language in the World	0.611111111111111	No	RIGHT	351.465200000348	RIGHT	810.1145000000542	RIGHT	931.5386999996916	LEFT	1271.563100000094	52.1	0.3	Probable_Truth	LEFT	RIGHT	4	784.0059361267424	93	2020-02-12 11:53:39.024673
25	Self	S200212	0.6666666666666666	2	1	1	2	0.7	1350.0000027	1216.6666691	2500.000005	1500.000003	Major	Good_deeds	39	You have faked an illness	C1_39	0.65	Easy	I1_5	11	It takes 112 years to build the Pisa Tower	1.0	No	RIGHT	384.39840000000913	RIGHT	637.0440999999119	LEFT	1629.9143000001095	RIGHT	1151.4087000000472	52.8	0.7	Probable_Lie	LEFT	RIGHT	2	580.4935000001024	94	2020-02-12 11:54:02.553235
54	Self	S200212	0.5	1	2	2	1	0.2	1350.0000027	1150.0000023	1783.3333369	1933.3333372	Major	Wrong_doings	60	You have cursed at your loved ones	C1_17	1.0	Easy	I1_3	11	The Earth turns the closest to the sun in May	0.0	No	RIGHT	529.8907000001236	RIGHT	256.4556999996057	LEFT	1485.6677000002492	RIGHT	3292.2284000001127	53.00000000000001	0.2	Probable_Truth	RIGHT	RIGHT	4	700.0236000003497	95	2020-02-12 11:54:27.616488
16	Self	S200212	0.6666666666666666	1	2	1	2	0.7	1066.6666688	1000.000002	1500.000003	1650.0000033	Minor	Good_deeds	19	You have sign up to sponsor a needy child	C1_14	1.0	Hard	I1_52	52	It is night time now	0.611111111111111	Yes	RIGHT	589.9023000001762	RIGHT	401.3761999999588	LEFT	1591.086699999778	LEFT	967.0369000000392	53.70000000000001	0.7	Probable_Lie	RIGHT	RIGHT	1	588.040699999965	96	2020-02-12 11:56:15.696501
125	Computer	S200212	0.6666666666666666	2	1	2	1	0.6	1500.000003	1283.3333359	1933.3333372	2216.6666711000003	Major	Wrong_doings	58	You have bought cocaine	C1_8	1.0	Easy	I1_11	38	Chickens lay eggs	0.944444444444444	Yes	RIGHT	327.1482999998625	RIGHT	1057.3632999999063	LEFT	663.7584000000061	RIGHT	1141.8344000003344	54.30000000000001	0.6	Probable_Lie	RIGHT	RIGHT	2	604.7518728004464	97	2020-02-12 11:56:38.992615
33	Self	S200212	0.8333333333333334	1	2	1	2	0.6	1433.3333362	1066.6666688	2216.6666711000003	2500.000005	Major	Wrong_doings	6	You have been arrested	C2_54	0.45	Easy	I1_33	33	Airbags in cars are filled with sodium azide	0.0	No	RIGHT	351.1254000000008	RIGHT	295.81670000015947	LEFT	788.6838999997963	RIGHT	3070.7565000002432	54.90000000000001	0.6	Probable_Truth	RIGHT	RIGHT	5	854.1700000000674	98	2020-02-12 11:57:04.153185
101	Computer	S200212	0.5	1	2	2	1	0.6	1350.0000027	1283.3333359	2350.0000047	1933.3333372	Major	Good_deeds	31	You have engaged in arson	C2_25	0.0	Easy	I2_40	52	The human's inner ear is larger than a pencil eraser	0.666666666666667	Yes	RIGHT	420.1912000003176	RIGHT	320.231899999726	LEFT	592.0821999998225	RIGHT	1779.2611999998371	55.500000000000014	0.6	Probable_Lie	LEFT	RIGHT	1	899.650851178933	99	2020-02-12 11:57:27.658174
71	Self	S200212	0.6666666666666666	1	2	2	1	0.7	1283.3333359	1000.000002	1933.3333372	2216.6666711000003	Major	Wrong_doings	17	You have bribed a police officer	C2_39	1.0	Hard	I1_8	46	There are 30 hours in a day	0.888888888888889	No	RIGHT	572.4464999998418	RIGHT	351.47209999968254	LEFT	847.7967000003446	LEFT	2159.283999999843	56.20000000000002	0.7	Probable_Lie	LEFT	RIGHT	1	505.3103000000192	100	2020-02-12 11:57:51.105074
79	Self	S200212	0.6666666666666666	2	1	2	1	0.6	1000.000002	1150.0000023	1783.3333369	2350.0000047	Major	Wrong_doings	60	You have pretended to be busy to avoid a social situation	C1_30	0.95	Hard	I2_31	31	Algeria is Africa's second largest country	0.944444444444444	No	RIGHT	247.58669999982885	RIGHT	643.2310000000143	LEFT	2062.29889999986	LEFT	2634.490200000073	56.80000000000002	0.6	Probable_Lie	LEFT	RIGHT	2	1199.6005000000878	101	2020-02-12 11:58:16.754335
87	Self	S200212	0.8333333333333334	1	2	2	1	0.6	1216.6666691	1150.0000023	1783.3333369	2066.6666708	Major	Good_deeds	51	You have taken part in burglary	C1_57	0.0	Hard	I2_53	12	The first Olympic Games was held in the 5th century B.C	0.888888888888889	No	RIGHT	378.4622999996827	RIGHT	920.1938000001064	LEFT	881.0748000000785	LEFT	2006.1023999996903	57.40000000000002	0.6	Probable_Truth	RIGHT	RIGHT	4	787.0877999998811	102	2020-02-12 11:58:40.521182
68	Self	S200212	0.6666666666666666	1	2	2	1	0.1	1066.6666688	1500.000003	1650.0000033	1500.000003	Minor	Good_deeds	23	You have claimed doing things that you never did	C1_12	0.0	Easy	I1_46	38	The Moon orbits around the Earth	0.0	Yes	RIGHT	751.3390999997682	RIGHT	255.38959999994404	RIGHT	2192.1151999999893	RIGHT	2350.6883000000016	57.50000000000002	0.1	Probable_Lie	RIGHT	RIGHT	2	640.8166999999594	103	2020-02-12 11:59:04.999903
60	Self	S200212	0.5	2	1	2	1	0.1	1283.3333359	1433.3333362	1650.0000033	1933.3333372	Minor	Wrong_doings	45	You have risked your life to save another person's life	C1_1	0.2	Easy	I1_26	57	Carnivore refers to meat-eater	0.0	Yes	RIGHT	337.17750000005253	RIGHT	623.1748000000152	LEFT	2007.9985999996095	RIGHT	2364.518599999883	57.60000000000002	0.1	Probable_Lie	RIGHT	RIGHT	2	740.90249999972	104	2020-02-12 11:59:29.943654
48	Self	S200212	0.5	1	2	1	2	0.5	1283.3333359	1066.6666688	2066.6666708	2500.000005	Minor	Good_deeds	11	You have bribed someone to improve a grade	C1_4	0.7	Easy	I1_9	3	A dog has four legs	0.888888888888889	Yes	RIGHT	935.5269000002407	RIGHT	536.3203000001704	LEFT	1111.1700000001292	RIGHT	1048.086400000102	58.10000000000002	0.5	Probable_Lie	LEFT	RIGHT	2	650.4517000003034	105	2020-02-12 11:59:53.712039
129	Computer	S200212	0.8333333333333334	1	2	1	2	0.2	1000.000002	1000.000002	1933.3333372	1783.3333369	Major	Wrong_doings	6	You have been arrested	C2_54	0.45	Easy	I1_33	33	Airbags in cars are filled with sodium azide	0.0	No	RIGHT	446.0325999998531	RIGHT	799.5947999997952	LEFT	741.1645999995926	RIGHT	1024.2505999999594	58.300000000000026	0.2	Probable_Truth	RIGHT	LEFT	1	509.8467037129394	106	2020-02-12 12:00:15.527937
133	Computer	S200212	0.8333333333333334	1	2	2	1	0.1	1216.6666691	1066.6666688	2216.6666711000003	2066.6666708	Minor	Good_deeds	9	You have downloaded pirated movies	C2_36	0.7	Hard	I1_32	32	Lehman Brothers went bankrupt on 20th September	0.0555555555555556	No	RIGHT	559.566100000211	RIGHT	359.9735000002511	LEFT	751.8044000003101	RIGHT	1887.7533999998377	58.40000000000003	0.1	Probable_Truth	RIGHT	RIGHT	5	641.8255107044301	107	2020-02-12 12:00:38.856808
85	Self	S200212	0.8333333333333334	1	2	2	1	0.1	1283.3333359	1350.0000027	2350.0000047	1500.000003	Minor	Good_deeds	28	You have switched off appliances when not in use	C1_13	0.0	Hard	I2_39	27	Dutch is the 6th Europe's most widely spoken language	0.722222222222222	Yes	RIGHT	601.3757000000624	RIGHT	385.1297999999588	RIGHT	1455.7613999995738	RIGHT	1663.1651999996393	58.50000000000003	0.1	Probable_Lie	LEFT	RIGHT	1	773.5216000000946	108	2020-02-12 12:01:02.792867
67	Self	S200212	0.6666666666666666	1	2	1	2	0.5	1500.000003	1150.0000023	2216.6666711000003	1933.3333372	Minor	Wrong_doings	12	You have used a fake name online	C1_23	0.05	Hard	I2_45	1	Feijoa is a type of grape	0.0	No	RIGHT	727.4889999998777	RIGHT	401.10009999989416	RIGHT	1179.3997999998282	RIGHT	1976.0569999998552	59.00000000000003	0.5	Probable_Truth	RIGHT	RIGHT	6	657.6632999999674	109	2020-02-12 12:01:27.111965
73	Self	S200212	0.6666666666666666	2	1	1	2	0.7	1066.6666688	1216.6666691	1650.0000033	1500.000003	Major	Good_deeds	38	You have been restricting your electricity consumption	C1_53	0.55	Easy	I1_10	5	A triangle has three sides	0.0	No	RIGHT	535.5967000000419	RIGHT	399.6884999996837	RIGHT	3103.4033999999338	RIGHT	1064.7133000002214	59.70000000000003	0.7	Probable_Truth	RIGHT	RIGHT	4	1201.4070000000174	110	2020-02-12 12:01:51.424688
18	Self	S200212	0.6666666666666666	1	2	1	2	0.2	1150.0000023	1283.3333359	1933.3333372	2066.6666708	Minor	Good_deeds	43	You have given directions to a lost tourist	C1_19	0.0	Hard	I1_17	2	Singapore is a poor country	0.888888888888889	Yes	RIGHT	556.4511000002312	RIGHT	401.0807999998178	RIGHT	919.4389999997838	LEFT	1150.737699999809	59.900000000000034	0.2	Probable_Truth	RIGHT	RIGHT	3	700.1439000000573	111	2020-02-12 12:02:14.160274
120	Computer	S200212	0.6666666666666666	2	1	1	2	0.8	1433.3333362	1433.3333362	1650.0000033	2066.6666708	Minor	Wrong_doings	29	You have organized a violent protest	C2_33	0.9	Easy	I2_16	58	Cleopatra was born in Greece	0.722222222222222	Yes	RIGHT	256.4217999997709	RIGHT	335.0737000000663	LEFT	927.8578000003108	RIGHT	1432.471500000247	60.70000000000003	0.8	Probable_Lie	RIGHT	RIGHT	1	812.1334220706825	112	2020-02-12 12:02:37.079973
51	Self	S200212	0.5	1	2	1	2	0.3	1500.000003	1500.000003	1933.3333372	1783.3333369	Major	Wrong_doings	50	You have queued to enter the MRT train	C1_42	0.1	Easy	I1_47	9	Septicemia is a lung infection condition	0.666666666666667	No	RIGHT	715.5205999997634	RIGHT	320.8855000002586	RIGHT	1817.7294000001891	RIGHT	1344.3084000000454	61.00000000000003	0.3	Probable_Truth	LEFT	RIGHT	4	746.5028999999959	113	2020-02-12 12:03:01.319905
135	Computer	S200212	0.8333333333333334	1	2	2	1	0.5	1500.000003	1500.000003	1783.3333369	1650.0000033	Minor	Wrong_doings	36	You have done something against your values	C1_49	0.0	Easy	I2_42	30	There is typically 0.6 grams of mercury in glass thermometer	0.0	Yes	RIGHT	449.6193999998468	RIGHT	392.0007000001533	LEFT	1224.0641000003052	RIGHT	1359.3557999997756	61.50000000000003	0.5	Probable_Lie	RIGHT	LEFT	3	578.4780508284545	114	2020-02-12 12:03:24.335798
99	Computer	S200212	0.5	1	2	1	2	0.7	1433.3333362	1433.3333362	1783.3333369	1500.000003	Minor	Wrong_doings	22	You have helped a friend in need	C2_7	0.05	Hard	I1_6	40	Statute of Liberty is in New York	0.0	No	RIGHT	587.4025000002803	RIGHT	664.9672000003193	RIGHT	917.2542999999678	RIGHT	2776.618000000326	62.20000000000003	0.7	Probable_Lie	RIGHT	LEFT	5	754.8256067796813	115	2020-02-12 12:03:48.751637
70	Self	S200212	0.6666666666666666	1	2	2	1	0.2	1433.3333362	1433.3333362	2350.0000047	1783.3333369	Minor	Good_deeds	45	You have taken months off to volunteer	C1_46	0.55	Hard	I2_38	24	Beef comes from cows	0.888888888888889	No	RIGHT	739.6936999998616	RIGHT	295.3370999998697	LEFT	1295.8404999999402	RIGHT	1323.6418999999842	62.400000000000034	0.2	Probable_Truth	LEFT	RIGHT	5	914.7478999998384	116	2020-02-12 12:04:12.896827
124	Computer	S200212	0.6666666666666666	2	1	2	1	0.7	1066.6666688	1500.000003	2216.6666711000003	1650.0000033	Major	Wrong_doings	23	You have volunteered for a disaster-related humanitarian mission	C2_14	0.15	Easy	I2_23	23	Earth's atmosphere extends up to 10,000km into space	0.0555555555555556	No	RIGHT	264.6616000001813	RIGHT	398.07180000025255	LEFT	903.5862000000634	RIGHT	1070.4537000001435	63.10000000000004	0.7	Probable_Lie	LEFT	LEFT	6	894.5056358027161	117	2020-02-12 12:04:35.439963
44	Self	S200212	0.8333333333333334	2	1	2	1	0.1	1500.000003	1000.000002	1783.3333369	1783.3333369	Minor	Good_deeds	59	You have followed instructions	C1_33	1.0	Hard	I1_53	53	Animals are living things	0.611111111111111	Yes	RIGHT	167.17769999968368	RIGHT	466.54069999976855	RIGHT	815.8982999998443	RIGHT	716.339600000083	63.20000000000004	0.1	Probable_Truth	RIGHT	RIGHT	5	768.2470999998259	118	2020-02-12 12:04:57.016105
62	Self	S200212	0.5	2	1	2	1	0.2	1500.000003	1500.000003	2066.6666708	2500.000005	Major	Wrong_doings	1	You have borrowed things and never returned	C1_5	0.05	Easy	I1_48	26	Milwaukee Art Museum is located in California	0.666666666666667	No	RIGHT	271.2830999998914	RIGHT	605.7552999996005	RIGHT	1447.9897000001074	RIGHT	1708.8250000001608	63.40000000000004	0.2	Probable_Truth	RIGHT	RIGHT	5	667.0304000003853	119	2020-02-12 12:05:21.865130
37	Self	S200212	0.8333333333333334	1	2	2	1	0.8	1500.000003	1216.6666691	1650.0000033	1500.000003	Minor	Good_deeds	9	You have downloaded pirated movies	C2_36	0.7	Hard	I1_32	32	Lehman Brothers went bankrupt on 20th September	0.0555555555555556	No	RIGHT	549.8907000001054	RIGHT	335.99110000022847	LEFT	750.9022000003824	RIGHT	1118.738900000153	64.20000000000005	0.8	Probable_Lie	RIGHT	RIGHT	1	725.883800000247	120	2020-02-12 12:05:43.793273
3	Self	S200212	0.5	1	2	1	2	0.8	1216.6666691	1066.6666688	2500.000005	2216.6666711000003	Minor	Wrong_doings	22	You have helped a friend in need	C2_7	0.05	Hard	I1_6	40	Statute of Liberty is in New York	0.0	No	RIGHT	508.1900999998652	RIGHT	535.6418999999732	RIGHT	879.2887999998129	RIGHT	751.4699999996992	65.00000000000004	0.8	Probable_Truth	RIGHT	RIGHT	6	694.2678999998861	121	2020-02-12 12:06:06.744011
97	Computer	S200212	0.5	1	2	1	2	0.5	1150.0000023	1216.6666691	1500.000003	1783.3333369	Major	Good_deeds	43	You have made counterfeit money	C2_31	1.0	Easy	I2_52	44	There are 20 bones in the human skull	0.0	No	RIGHT	643.6782000000676	RIGHT	263.7675999999374	LEFT	892.0425999999679	LEFT	1872.084900000118	65.50000000000004	0.5	Probable_Truth	LEFT	RIGHT	4	846.5292383602476	122	2020-02-12 12:06:29.488950
40	Self	S200212	0.8333333333333334	2	1	1	2	0.3	1433.3333362	1150.0000023	2500.000005	2066.6666708	Major	Good_deeds	47	You have watched a pirated movie	C2_59	0.0	Easy	I2_3	3	Beer is an alcoholic drink	0.0	No	RIGHT	368.3729999997922	RIGHT	491.8047999999544	LEFT	871.2346000002071	RIGHT	1119.6304000000057	65.80000000000004	0.3	Probable_Truth	LEFT	RIGHT	3	791.5111000002071	123	2020-02-12 12:06:52.856286
90	Self	S200212	0.8333333333333334	2	1	1	2	0.1	1433.3333362	1500.000003	2350.0000047	2066.6666708	Major	Good_deeds	2	You have coveted things that belong to others	C2_2	0.7	Hard	I1_25	8	Saturn's rings are between 30 and 300 feet thick	0.777777777777778	Yes	RIGHT	632.1582999999009	RIGHT	627.9211000000942	LEFT	1941.4405000002264	LEFT	2351.1524999998983	65.90000000000003	0.1	Probable_Lie	LEFT	RIGHT	1	966.9294000000264	124	2020-02-12 12:07:19.304595
136	Computer	S200212	0.8333333333333334	2	1	1	2	0.8	1066.6666688	1500.000003	1933.3333372	1933.3333372	Major	Good_deeds	47	You have watched a pirated movie	C2_59	0.0	Easy	I2_3	3	Beer is an alcoholic drink	0.0	No	RIGHT	248.7406000000192	RIGHT	717.9783000001407	LEFT	884.7654999999577	RIGHT	704.4997000002695	66.70000000000003	0.8	Probable_Truth	RIGHT	RIGHT	3	557.4862417940523	125	2020-02-12 12:07:41.417320
46	Self	S200212	0.8333333333333334	2	1	2	1	0.5	1283.3333359	1066.6666688	1933.3333372	1650.0000033	Major	Good_deeds	11	You have returned your trays in food courts	C2_27	0.0	Easy	I1_40	49	Singapore is in Africa	0.0	Yes	RIGHT	222.45109999994384	RIGHT	554.6019000003071	RIGHT	959.878000000117	LEFT	985.3023000000576	67.20000000000003	0.5	Probable_Lie	RIGHT	RIGHT	1	645.6581000002188	126	2020-02-12 12:08:03.295972
59	Self	S200212	0.5	2	1	1	2	0.4	1216.6666691	1350.0000027	2350.0000047	2216.6666711000003	Major	Wrong_doings	35	You have been sued	C2_45	0.95	Easy	I2_6	13	Singapore ranked 8th in World's smallest countries	0.0	No	RIGHT	48.78520000011122	RIGHT	316.1411999999473	LEFT	896.571700000095	LEFT	1807.6549999996128	67.60000000000004	0.4	Probable_Lie	RIGHT	RIGHT	2	645.9515999999894	127	2020-02-12 12:08:26.719507
105	Computer	S200212	0.5	2	1	1	2	0.2	1000.000002	1433.3333362	1933.3333372	2216.6666711000003	Major	Wrong_doings	7	You have helped with household chores	C1_48	0.0	Easy	I1_45	45	Kangaroos live in Africa	0.0555555555555556	Yes	RIGHT	455.54390000006606	RIGHT	503.4132999999201	RIGHT	845.6373000003623	LEFT	2744.3505000001096	67.80000000000004	0.2	Probable_Lie	LEFT	RIGHT	2	988.6210956940758	128	2020-02-12 12:08:51.408005
50	Self	S200212	0.5	1	2	1	2	0.7	1433.3333362	1433.3333362	2350.0000047	1650.0000033	Minor	Good_deeds	52	You have stopped using products tested on animals	C2_52	0.85	Hard	I2_51	51	Hot chocolate was created by the Mayan culture	0.777777777777778	No	RIGHT	539.216199999828	RIGHT	360.6386000001294	LEFT	2960.5658000000403	LEFT	1824.0402999999787	68.50000000000004	0.7	Probable_Lie	RIGHT	RIGHT	2	517.1021999999539	129	2020-02-12 12:09:17.047591
138	Computer	S200212	0.8333333333333334	2	1	1	2	0.1	1150.0000023	1216.6666691	2500.000005	2500.000005	Minor	Good_deeds	36	You have sold illegal drugs	C1_36	0.0	Hard	I2_26	54	The Franco-Prussian War occurred in the 19th century	0.944444444444444	No	RIGHT	215.04470000036235	RIGHT	716.9564000000719	LEFT	716.7389000001094	RIGHT	1936.2631999997573	68.60000000000004	0.1	Probable_Lie	RIGHT	LEFT	3	757.6505687901363	130	2020-02-12 12:09:41.320017
77	Self	S200212	0.6666666666666666	2	1	2	1	0.5	1500.000003	1000.000002	1933.3333372	1933.3333372	Major	Good_deeds	24	You have complimented others for good work	C1_15	0.45	Easy	I1_41	14	The hyoid bone is the only jointless bone	0.944444444444444	No	RIGHT	263.14099999990503	RIGHT	508.4855000000061	RIGHT	832.4234000001525	LEFT	2220.0610000004417	69.10000000000004	0.5	Probable_Lie	RIGHT	RIGHT	1	702.6759999998831	131	2020-02-12 12:10:04.791673
98	Computer	S200212	0.5	1	2	1	2	0.3	1066.6666688	1350.0000027	1650.0000033	2500.000005	Minor	Wrong_doings	7	You have thrown your trash into the bin	C1_43	0.65	Easy	I1_39	39	Bears have the biggest eyes among mammals	0.0555555555555556	Yes	RIGHT	708.4872999998879	RIGHT	256.4766000000418	RIGHT	838.4447000003092	LEFT	1383.5853999999017	69.40000000000003	0.3	Probable_Lie	RIGHT	RIGHT	3	651.7914338051002	132	2020-02-12 12:10:27.768326
130	Computer	S200212	0.8333333333333334	1	2	1	2	0.3	1350.0000027	1216.6666691	1500.000003	2350.0000047	Major	Good_deeds	35	You have intentionally let others cut in line	C2_18	0.9	Hard	I2_35	28	Christmas Day is in March	0.0	Yes	RIGHT	580.2401999999347	RIGHT	319.386100000429	RIGHT	1298.921899999641	LEFT	1165.7670999998118	69.70000000000003	0.3	Probable_Lie	RIGHT	LEFT	5	885.4628815007957	133	2020-02-12 12:10:51.007773
4	Self	S200212	0.5	1	2	2	1	0.3	1066.6666688	1150.0000023	1500.000003	1650.0000033	Major	Wrong_doings	3	You have donated blood every 6 months for many years	C1_22	0.0	Hard	I1_58	58	Singapore has four seasons	0.833333333333333	No	RIGHT	580.4295999996611	RIGHT	1056.8182000001798	LEFT	863.0720999999539	RIGHT	775.3875999997035	70.00000000000003	0.3	Probable_Lie	LEFT	RIGHT	1	684.8810999999841	134	2020-02-12 12:11:12.911810
43	Self	S200212	0.8333333333333334	2	1	1	2	0.7	1350.0000027	1350.0000027	2066.6666708	2500.000005	Major	Wrong_doings	8	You have participated in a scamming business	C1_27	0.8	Easy	I2_49	26	The hardest bone in human body is the jawbone	0.888888888888889	No	RIGHT	328.90610000004017	RIGHT	590.2440999998362	LEFT	914.371299999857	RIGHT	1398.621600000297	70.70000000000003	0.7	Probable_Lie	LEFT	RIGHT	1	309.6642000000429	135	2020-02-12 12:11:36.304130
117	Computer	S200212	0.6666666666666666	1	2	2	1	0.5	1216.6666691	1350.0000027	1500.000003	2500.000005	Major	Wrong_doings	47	You have held the door open for a stranger	C2_10	0.05	Easy	I2_43	43	R. Amundsen discovered the South Pole	1.0	No	RIGHT	625.3630999999586	RIGHT	368.2410999999775	RIGHT	935.5286999998498	LEFT	2309.159499999623	71.20000000000003	0.5	Probable_Truth	RIGHT	LEFT	2	953.5380964902124	136	2020-02-12 12:12:00.632026
115	Computer	S200212	0.6666666666666666	1	2	1	2	0.6	1500.000003	1066.6666688	2066.6666708	2350.0000047	Minor	Good_deeds	40	You have failed to keep promises	C2_43	0.95	Easy	I2_55	4	There are 6000 spoken languages in the World	0.0	No	RIGHT	487.0116000001872	RIGHT	471.5833999998722	RIGHT	2242.888199999925	LEFT	2045.7437000000027	71.80000000000003	0.6	Probable_Truth	RIGHT	RIGHT	3	856.5971832046072	137	2020-02-12 12:12:26.287609
57	Self	S200212	0.5	2	1	1	2	0.7	1433.3333362	1283.3333359	1783.3333369	2350.0000047	Minor	Good_deeds	1	You have confessed to your mistake	C1_44	0.0	Hard	I1_57	46	Pyramid of Giza is 468 feet tall	0.0	Yes	RIGHT	288.3652999998958	RIGHT	610.7283999999709	RIGHT	1986.1947999997935	RIGHT	1703.900099999828	72.50000000000003	0.7	Probable_Lie	RIGHT	RIGHT	3	767.4809000000096	138	2020-02-12 12:12:51.072062
126	Computer	S200212	0.6666666666666666	2	1	2	1	0.5	1000.000002	1066.6666688	2066.6666708	2500.000005	Minor	Good_deeds	14	You have watched an M18 movie when you were underage	C1_29	1.0	Hard	I1_38	5	Mageirocophobia is a fear of deathly disease	0.0	Yes	RIGHT	248.64400000024037	RIGHT	631.2824999999975	LEFT	791.6196999999556	RIGHT	2021.351599999889	73.00000000000003	0.5	Probable_Truth	RIGHT	LEFT	1	916.8942198832494	139	2020-02-12 12:13:14.888311
132	Computer	S200212	0.8333333333333334	1	2	2	1	0.7	1066.6666688	1433.3333362	2350.0000047	1500.000003	Major	Wrong_doings	49	You have been physically hurt to protect others	C1_24	0.0	Easy	I2_30	33	The Earth is round	0.833333333333333	Yes	RIGHT	477.0214999998643	RIGHT	304.16569999988496	RIGHT	2175.6617999999435	RIGHT	861.8058000001838	73.70000000000003	0.7	Probable_Truth	RIGHT	RIGHT	4	504.6764569288678	140	2020-02-12 12:13:38.136403
81	Self	S200212	0.8333333333333334	1	2	1	2	0.4	1350.0000027	1500.000003	2066.6666708	1783.3333369	Major	Good_deeds	56	You have started a hotline for victims of bully	C2_34	0.25	Easy	I2_12	15	It takes 500 days to travel from Earth to Mars	0.888888888888889	No	RIGHT	500.7925999998406	RIGHT	536.3889000000199	LEFT	1507.9689999997754	LEFT	1719.3516000002091	74.10000000000004	0.4	Probable_Truth	RIGHT	RIGHT	6	488.2858000000852	141	2020-02-12 12:14:02.168077
0	Self	S200212	0.5	1	2	1	2	0.4	1500.000003	1500.000003	2066.6666708	2350.0000047	Minor	Good_deeds	25	You have rescued others from a catastrophe	C1_37	0.1	Easy	I1_21	25	Last day of the year is 30th December	0.0	Yes	RIGHT	348.34570000020904	RIGHT	392.08090000011	RIGHT	1802.4977000000035	LEFT	1127.5752999999895	74.50000000000004	0.4	Probable_Truth	LEFT	RIGHT	4	717.0906999999715	142	2020-02-12 12:14:26.551735
35	Self	S200212	0.8333333333333334	1	2	1	2	0.3	1150.0000023	1000.000002	1500.000003	1933.3333372	Minor	Wrong_doings	24	You have bought cigarettes for a minor	C1_35	0.85	Hard	I2_33	42	The Amazon forest covers an area of 1 billion acres	0.888888888888889	No	RIGHT	629.1130999998131	RIGHT	302.65980000058335	LEFT	891.4109000006647	LEFT	1599.6111999993443	74.80000000000004	0.3	Probable_Truth	RIGHT	RIGHT	4	763.3178000000953	143	2020-02-12 12:14:48.904813
