"Participant"	"Task"	"Stimulus_Side"	"Response"	"RT"	"ITI"	"Previous_Response"	"Previous_RT"	"Stop_Signal"	"Stop_Signal_RT"	"Conflict"	"Cue_Response"	"Cue_Response_RT"	"Trial_Onset"	"Trial_End"	"Trial_Order"	"Duration"
"S210204"	"Conflict_Resolution"	"RIGHT"	"RIGHT"	632.435299999997	900.0000018	n/a	n/a	n/a	n/a	"True"	n/a	n/a	"2021-02-04 14:00:18.661614"	"2021-02-04 14:00:19.502477"	1	6.03015663333333
"S210204"	"Conflict_Resolution"	"LEFT"	"LEFT"	332.566300000053	950.0000019	n/a	n/a	n/a	n/a	"False"	n/a	n/a	"2021-02-04 14:00:20.472927"	"2021-02-04 14:00:21.013574"	2	6.03015663333333
"S210204"	"Conflict_Resolution"	"LEFT"	"RIGHT"	362.475200000063	1416.6666695	n/a	n/a	n/a	n/a	"True"	n/a	n/a	"2021-02-04 14:00:22.451433"	"2021-02-04 14:00:23.023435"	3	6.03015663333333
"S210204"	"Conflict_Resolution"	"RIGHT"	"RIGHT"	509.818600000017	1283.3333359	n/a	n/a	n/a	n/a	"True"	n/a	n/a	"2021-02-04 14:00:24.327609"	"2021-02-04 14:00:25.044607"	4	6.03015663333333
"S210204"	"Conflict_Resolution"	"RIGHT"	"RIGHT"	463.207399999988	700.0000014	n/a	n/a	n/a	n/a	"False"	n/a	n/a	"2021-02-04 14:00:25.766126"	"2021-02-04 14:00:26.436589"	5	6.03015663333333
"S210204"	"Conflict_Resolution"	"RIGHT"	"LEFT"	378.824200000054	650.0000013	n/a	n/a	n/a	n/a	"True"	n/a	n/a	"2021-02-04 14:00:27.106355"	"2021-02-04 14:00:27.693013"	6	6.03015663333333
"S210204"	"Conflict_Resolution"	"RIGHT"	"RIGHT"	534.235100000046	533.3333344	n/a	n/a	n/a	n/a	"True"	n/a	n/a	"2021-02-04 14:00:28.247559"	"2021-02-04 14:00:28.989171"	7	6.03015663333333
"S210204"	"Conflict_Resolution"	"RIGHT"	"RIGHT"	523.991900000055	1433.3333362	n/a	n/a	n/a	n/a	"False"	n/a	n/a	"2021-02-04 14:00:30.441525"	"2021-02-04 14:00:31.174015"	8	6.03015663333333
"S210204"	"Conflict_Resolution"	"LEFT"	"LEFT"	558.479600000055	533.3333344	n/a	n/a	n/a	n/a	"True"	n/a	n/a	"2021-02-04 14:00:31.726773"	"2021-02-04 14:00:32.493893"	9	6.03015663333333
"S210204"	"Conflict_Resolution"	"RIGHT"	"RIGHT"	700.985299999957	983.3333353	n/a	n/a	n/a	n/a	"True"	n/a	n/a	"2021-02-04 14:00:33.496836"	"2021-02-04 14:00:34.405401"	10	6.03015663333333
"S210204"	"Conflict_Resolution"	"LEFT"	"LEFT"	400.342600000045	1266.6666692	n/a	n/a	n/a	n/a	"False"	n/a	n/a	"2021-02-04 14:00:35.693522"	"2021-02-04 14:00:36.302397"	11	6.03015663333333
"S210204"	"Conflict_Resolution"	"LEFT"	"LEFT"	574.970399999984	1100.0000022	n/a	n/a	n/a	n/a	"True"	n/a	n/a	"2021-02-04 14:00:37.422753"	"2021-02-04 14:00:38.204874"	12	6.03015663333333
"S210204"	"Conflict_Resolution"	"RIGHT"	"RIGHT"	421.179100000018	600.0000012	n/a	n/a	n/a	n/a	"False"	n/a	n/a	"2021-02-04 14:00:38.823749"	"2021-02-04 14:00:39.454060"	13	6.03015663333333
"S210204"	"Conflict_Resolution"	"RIGHT"	"RIGHT"	534.110299999952	550.0000011	n/a	n/a	n/a	n/a	"True"	n/a	n/a	"2021-02-04 14:00:40.022936"	"2021-02-04 14:00:40.765901"	14	6.03015663333333
"S210204"	"Conflict_Resolution"	"LEFT"	"LEFT"	420.523199999934	733.3333348	n/a	n/a	n/a	n/a	"True"	n/a	n/a	"2021-02-04 14:00:41.520623"	"2021-02-04 14:00:42.149856"	15	6.03015663333333
"S210204"	"Conflict_Resolution"	"LEFT"	"LEFT"	565.545499999985	766.6666682	n/a	n/a	n/a	n/a	"True"	n/a	n/a	"2021-02-04 14:00:42.935728"	"2021-02-04 14:00:43.708775"	16	6.03015663333333
"S210204"	"Conflict_Resolution"	"LEFT"	"LEFT"	438.231100000053	566.6666678	n/a	n/a	n/a	n/a	"True"	n/a	n/a	"2021-02-04 14:00:44.295282"	"2021-02-04 14:00:44.940639"	17	6.03015663333333
"S210204"	"Conflict_Resolution"	"RIGHT"	"RIGHT"	506.732899999975	600.0000012	n/a	n/a	n/a	n/a	"True"	n/a	n/a	"2021-02-04 14:00:45.562581"	"2021-02-04 14:00:46.277130"	18	6.03015663333333
"S210204"	"Conflict_Resolution"	"LEFT"	"LEFT"	592.605700000036	866.6666684	n/a	n/a	n/a	n/a	"True"	n/a	n/a	"2021-02-04 14:00:47.164983"	"2021-02-04 14:00:47.965363"	19	6.03015663333333
"S210204"	"Conflict_Resolution"	"RIGHT"	"RIGHT"	444.096999999942	1216.6666691	n/a	n/a	n/a	n/a	"True"	n/a	n/a	"2021-02-04 14:00:49.201184"	"2021-02-04 14:00:49.854460"	20	6.03015663333333
"S210204"	"Conflict_Resolution"	"LEFT"	"LEFT"	319.513900000061	1250.0000025	n/a	n/a	n/a	n/a	"False"	n/a	n/a	"2021-02-04 14:00:51.125227"	"2021-02-04 14:00:51.652841"	21	6.03015663333333
"S210204"	"Conflict_Resolution"	"LEFT"	"LEFT"	453.692899999965	966.6666686	n/a	n/a	n/a	n/a	"True"	n/a	n/a	"2021-02-04 14:00:52.639256"	"2021-02-04 14:00:53.302497"	22	6.03015663333333
"S210204"	"Conflict_Resolution"	"LEFT"	"LEFT"	406.030499999929	1316.6666693	n/a	n/a	n/a	n/a	"False"	n/a	n/a	"2021-02-04 14:00:54.639652"	"2021-02-04 14:00:55.255186"	23	6.03015663333333
"S210204"	"Conflict_Resolution"	"LEFT"	"LEFT"	489.51610000006	616.6666679	n/a	n/a	n/a	n/a	"True"	n/a	n/a	"2021-02-04 14:00:55.891494"	"2021-02-04 14:00:56.588626"	24	6.03015663333333
"S210204"	"Conflict_Resolution"	"LEFT"	"LEFT"	391.362500000014	1500.000003	n/a	n/a	n/a	n/a	"False"	n/a	n/a	"2021-02-04 14:00:58.109831"	"2021-02-04 14:00:58.709765"	25	6.03015663333333
"S210204"	"Conflict_Resolution"	"RIGHT"	"RIGHT"	492.646100000002	1383.3333361	n/a	n/a	n/a	n/a	"False"	n/a	n/a	"2021-02-04 14:01:00.113109"	"2021-02-04 14:01:00.813560"	26	6.03015663333333
"S210204"	"Conflict_Resolution"	"LEFT"	"LEFT"	388.243299999999	1366.6666694	n/a	n/a	n/a	n/a	"False"	n/a	n/a	"2021-02-04 14:01:02.200741"	"2021-02-04 14:01:02.797274"	27	6.03015663333333
"S210204"	"Conflict_Resolution"	"LEFT"	"LEFT"	410.236999999938	633.3333346	n/a	n/a	n/a	n/a	"False"	n/a	n/a	"2021-02-04 14:01:03.450546"	"2021-02-04 14:01:04.069383"	28	6.03015663333333
"S210204"	"Conflict_Resolution"	"LEFT"	"RIGHT"	381.05870000004	1000.000002	n/a	n/a	n/a	n/a	"True"	n/a	n/a	"2021-02-04 14:01:05.087660"	"2021-02-04 14:01:05.676798"	29	6.03015663333333
"S210204"	"Conflict_Resolution"	"RIGHT"	"RIGHT"	479.434200000014	1333.333336	n/a	n/a	n/a	n/a	"False"	n/a	n/a	"2021-02-04 14:01:07.029524"	"2021-02-04 14:01:07.717876"	30	6.03015663333333
"S210204"	"Conflict_Resolution"	"LEFT"	"LEFT"	369.563700000072	616.6666679	n/a	n/a	n/a	n/a	"False"	n/a	n/a	"2021-02-04 14:01:08.355975"	"2021-02-04 14:01:08.933670"	31	6.03015663333333
"S210204"	"Conflict_Resolution"	"LEFT"	"LEFT"	360.353599999939	716.6666681	n/a	n/a	n/a	n/a	"False"	n/a	n/a	"2021-02-04 14:01:09.669363"	"2021-02-04 14:01:10.238952"	32	6.03015663333333
"S210204"	"Conflict_Resolution"	"LEFT"	"LEFT"	372.32019999999	1350.0000027	n/a	n/a	n/a	n/a	"False"	n/a	n/a	"2021-02-04 14:01:11.609230"	"2021-02-04 14:01:12.190433"	33	6.03015663333333
"S210204"	"Conflict_Resolution"	"LEFT"	"LEFT"	514.114199999995	1000.000002	n/a	n/a	n/a	n/a	"False"	n/a	n/a	"2021-02-04 14:01:13.210961"	"2021-02-04 14:01:13.932885"	34	6.03015663333333
"S210204"	"Conflict_Resolution"	"LEFT"	"LEFT"	510.44760000002	1166.666669	n/a	n/a	n/a	n/a	"True"	n/a	n/a	"2021-02-04 14:01:15.118911"	"2021-02-04 14:01:15.838118"	35	6.03015663333333
"S210204"	"Conflict_Resolution"	"RIGHT"	"RIGHT"	472.305600000027	900.0000018	n/a	n/a	n/a	n/a	"False"	n/a	n/a	"2021-02-04 14:01:16.756728"	"2021-02-04 14:01:17.439531"	36	6.03015663333333
"S210204"	"Conflict_Resolution"	"LEFT"	"LEFT"	349.253099999942	533.3333344	n/a	n/a	n/a	n/a	"False"	n/a	n/a	"2021-02-04 14:01:17.991559"	"2021-02-04 14:01:18.550072"	37	6.03015663333333
"S210204"	"Conflict_Resolution"	"RIGHT"	"RIGHT"	566.910900000039	883.3333351	n/a	n/a	n/a	n/a	"True"	n/a	n/a	"2021-02-04 14:01:19.454486"	"2021-02-04 14:01:20.228594"	38	6.03015663333333
"S210204"	"Conflict_Resolution"	"RIGHT"	"LEFT"	324.238100000002	833.333335	n/a	n/a	n/a	n/a	"True"	n/a	n/a	"2021-02-04 14:01:21.080991"	"2021-02-04 14:01:21.612568"	39	6.03015663333333
"S210204"	"Conflict_Resolution"	"RIGHT"	"RIGHT"	481.166199999961	700.0000014	n/a	n/a	n/a	n/a	"True"	n/a	n/a	"2021-02-04 14:01:22.332423"	"2021-02-04 14:01:23.021829"	40	6.03015663333333
"S210204"	"Conflict_Resolution"	"LEFT"	"LEFT"	496.913000000063	850.0000017	n/a	n/a	n/a	n/a	"True"	n/a	n/a	"2021-02-04 14:01:23.892509"	"2021-02-04 14:01:24.598375"	41	6.03015663333333
"S210204"	"Conflict_Resolution"	"RIGHT"	"RIGHT"	454.613199999926	733.3333348	n/a	n/a	n/a	n/a	"True"	n/a	n/a	"2021-02-04 14:01:25.350413"	"2021-02-04 14:01:26.013477"	42	6.03015663333333
"S210204"	"Conflict_Resolution"	"LEFT"	"LEFT"	390.334799999891	916.6666685	n/a	n/a	n/a	n/a	"False"	n/a	n/a	"2021-02-04 14:01:26.950478"	"2021-02-04 14:01:27.549001"	43	6.03015663333333
"S210204"	"Conflict_Resolution"	"RIGHT"	"RIGHT"	383.709700000054	950.0000019	n/a	n/a	n/a	n/a	"False"	n/a	n/a	"2021-02-04 14:01:28.518081"	"2021-02-04 14:01:29.109570"	44	6.03015663333333
"S210204"	"Conflict_Resolution"	"RIGHT"	"RIGHT"	366.14499999996	933.3333352	n/a	n/a	n/a	n/a	"False"	n/a	n/a	"2021-02-04 14:01:30.062590"	"2021-02-04 14:01:30.637059"	45	6.03015663333333
"S210204"	"Conflict_Resolution"	"RIGHT"	"RIGHT"	320.011500000078	733.3333348	n/a	n/a	n/a	n/a	"False"	n/a	n/a	"2021-02-04 14:01:31.389051"	"2021-02-04 14:01:31.916672"	46	6.03015663333333
"S210204"	"Conflict_Resolution"	"LEFT"	"LEFT"	385.300000000029	1300.0000026	n/a	n/a	n/a	n/a	"True"	n/a	n/a	"2021-02-04 14:01:33.235658"	"2021-02-04 14:01:33.829376"	47	6.03015663333333
"S210204"	"Conflict_Resolution"	"RIGHT"	"RIGHT"	659.211499999969	800.0000016	n/a	n/a	n/a	n/a	"True"	n/a	n/a	"2021-02-04 14:01:34.649457"	"2021-02-04 14:01:35.517720"	48	6.03015663333333
"S210204"	"Conflict_Resolution"	"LEFT"	"LEFT"	436.288600000012	583.3333345	n/a	n/a	n/a	n/a	"True"	n/a	n/a	"2021-02-04 14:01:36.120743"	"2021-02-04 14:01:36.765147"	49	6.03015663333333
"S210204"	"Conflict_Resolution"	"RIGHT"	"RIGHT"	345.232100000089	683.3333347	n/a	n/a	n/a	n/a	"False"	n/a	n/a	"2021-02-04 14:01:37.467780"	"2021-02-04 14:01:38.020833"	50	6.03015663333333
"S210204"	"Conflict_Resolution"	"RIGHT"	"RIGHT"	475.984799999992	1033.3333354	n/a	n/a	n/a	n/a	"False"	n/a	n/a	"2021-02-04 14:01:39.073079"	"2021-02-04 14:01:39.758246"	51	6.03015663333333
"S210204"	"Conflict_Resolution"	"RIGHT"	"LEFT"	394.91350000003	1433.3333362	n/a	n/a	n/a	n/a	"True"	n/a	n/a	"2021-02-04 14:01:41.209970"	"2021-02-04 14:01:41.813895"	52	6.03015663333333
"S210204"	"Conflict_Resolution"	"RIGHT"	"RIGHT"	430.467099999987	1133.3333356	n/a	n/a	n/a	n/a	"False"	n/a	n/a	"2021-02-04 14:01:42.966672"	"2021-02-04 14:01:43.604888"	53	6.03015663333333
"S210204"	"Conflict_Resolution"	"RIGHT"	"RIGHT"	476.385600000071	1416.6666695	n/a	n/a	n/a	n/a	"True"	n/a	n/a	"2021-02-04 14:01:45.041180"	"2021-02-04 14:01:45.724872"	54	6.03015663333333
"S210204"	"Conflict_Resolution"	"RIGHT"	"RIGHT"	608.648700000003	1083.3333355	n/a	n/a	n/a	n/a	"True"	n/a	n/a	"2021-02-04 14:01:46.828119"	"2021-02-04 14:01:47.645239"	55	6.03015663333333
"S210204"	"Conflict_Resolution"	"LEFT"	"LEFT"	380.037899999934	1016.6666687	n/a	n/a	n/a	n/a	"False"	n/a	n/a	"2021-02-04 14:01:48.680870"	"2021-02-04 14:01:49.268916"	56	6.03015663333333
"S210204"	"Conflict_Resolution"	"LEFT"	"LEFT"	452.494099999967	1016.6666687	n/a	n/a	n/a	n/a	"True"	n/a	n/a	"2021-02-04 14:01:50.304657"	"2021-02-04 14:01:50.966429"	57	6.03015663333333
"S210204"	"Conflict_Resolution"	"RIGHT"	"RIGHT"	384.140100000081	1466.6666696	n/a	n/a	n/a	n/a	"False"	n/a	n/a	"2021-02-04 14:01:52.452891"	"2021-02-04 14:01:53.044581"	58	6.03015663333333
"S210204"	"Conflict_Resolution"	"LEFT"	"LEFT"	364.509200000043	1200.0000024	n/a	n/a	n/a	n/a	"False"	n/a	n/a	"2021-02-04 14:01:54.264632"	"2021-02-04 14:01:54.837350"	59	6.03015663333333
"S210204"	"Conflict_Resolution"	"RIGHT"	"RIGHT"	406.656099999964	933.3333352	n/a	n/a	n/a	n/a	"True"	n/a	n/a	"2021-02-04 14:01:55.790076"	"2021-02-04 14:01:56.405445"	60	6.03015663333333
"S210204"	"Conflict_Resolution"	"RIGHT"	"RIGHT"	440.696000000003	1100.0000022	n/a	n/a	n/a	n/a	"True"	n/a	n/a	"2021-02-04 14:01:57.524808"	"2021-02-04 14:01:58.173587"	61	6.03015663333333
"S210204"	"Conflict_Resolution"	"RIGHT"	"RIGHT"	385.69229999996	1233.3333358	n/a	n/a	n/a	n/a	"False"	n/a	n/a	"2021-02-04 14:01:59.427607"	"2021-02-04 14:02:00.020549"	62	6.03015663333333
"S210204"	"Conflict_Resolution"	"RIGHT"	"RIGHT"	353.204899999923	1083.3333355	n/a	n/a	n/a	n/a	"False"	n/a	n/a	"2021-02-04 14:02:01.123754"	"2021-02-04 14:02:01.685249"	63	6.03015663333333
"S210204"	"Conflict_Resolution"	"RIGHT"	"RIGHT"	306.811100000004	850.0000017	n/a	n/a	n/a	n/a	"False"	n/a	n/a	"2021-02-04 14:02:02.554586"	"2021-02-04 14:02:03.068721"	64	6.03015663333333
"S210204"	"Conflict_Resolution"	"LEFT"	"LEFT"	341.053800000054	783.3333349	n/a	n/a	n/a	n/a	"False"	n/a	n/a	"2021-02-04 14:02:03.871704"	"2021-02-04 14:02:04.423478"	65	6.03015663333333
"S210204"	"Conflict_Resolution"	"RIGHT"	"RIGHT"	366.980100000092	1483.3333363	n/a	n/a	n/a	n/a	"False"	n/a	n/a	"2021-02-04 14:02:05.925721"	"2021-02-04 14:02:06.501937"	66	6.03015663333333
"S210204"	"Conflict_Resolution"	"RIGHT"	"RIGHT"	412.61899999995	983.3333353	n/a	n/a	n/a	n/a	"False"	n/a	n/a	"2021-02-04 14:02:07.504325"	"2021-02-04 14:02:08.125079"	67	6.03015663333333
"S210204"	"Conflict_Resolution"	"RIGHT"	"RIGHT"	348.963099999992	800.0000016	n/a	n/a	n/a	n/a	"False"	n/a	n/a	"2021-02-04 14:02:08.944585"	"2021-02-04 14:02:09.502250"	68	6.03015663333333
"S210204"	"Conflict_Resolution"	"RIGHT"	"RIGHT"	373.314299999947	883.3333351	n/a	n/a	n/a	n/a	"False"	n/a	n/a	"2021-02-04 14:02:10.407592"	"2021-02-04 14:02:10.990066"	69	6.03015663333333
"S210204"	"Conflict_Resolution"	"RIGHT"	"RIGHT"	502.071399999977	1333.333336	n/a	n/a	n/a	n/a	"True"	n/a	n/a	"2021-02-04 14:02:12.343577"	"2021-02-04 14:02:13.054159"	70	6.03015663333333
"S210204"	"Conflict_Resolution"	"LEFT"	"LEFT"	398.651100000052	1150.0000023	n/a	n/a	n/a	n/a	"True"	n/a	n/a	"2021-02-04 14:02:14.222446"	"2021-02-04 14:02:14.830384"	71	6.03015663333333
"S210204"	"Conflict_Resolution"	"RIGHT"	"RIGHT"	392.526599999997	1266.6666692	n/a	n/a	n/a	n/a	"False"	n/a	n/a	"2021-02-04 14:02:16.116785"	"2021-02-04 14:02:16.717310"	72	6.03015663333333
"S210204"	"Conflict_Resolution"	"LEFT"	"LEFT"	473.714199999904	683.3333347	n/a	n/a	n/a	n/a	"True"	n/a	n/a	"2021-02-04 14:02:17.419421"	"2021-02-04 14:02:18.100608"	73	6.03015663333333
"S210204"	"Conflict_Resolution"	"LEFT"	"LEFT"	360.714799999982	1316.6666693	n/a	n/a	n/a	n/a	"True"	n/a	n/a	"2021-02-04 14:02:19.436724"	"2021-02-04 14:02:20.006210"	74	6.03015663333333
"S210204"	"Conflict_Resolution"	"RIGHT"	"RIGHT"	420.131599999991	1000.000002	n/a	n/a	n/a	n/a	"False"	n/a	n/a	"2021-02-04 14:02:21.024768"	"2021-02-04 14:02:21.653502"	75	6.03015663333333
"S210204"	"Conflict_Resolution"	"LEFT"	"LEFT"	371.547599999985	1416.6666695	n/a	n/a	n/a	n/a	"False"	n/a	n/a	"2021-02-04 14:02:23.090086"	"2021-02-04 14:02:23.670351"	76	6.03015663333333
"S210204"	"Conflict_Resolution"	"RIGHT"	"RIGHT"	362.209899999925	833.333335	n/a	n/a	n/a	n/a	"False"	n/a	n/a	"2021-02-04 14:02:24.522412"	"2021-02-04 14:02:25.093589"	77	6.03015663333333
"S210204"	"Conflict_Resolution"	"LEFT"	"LEFT"	425.651000000016	733.3333348	n/a	n/a	n/a	n/a	"False"	n/a	n/a	"2021-02-04 14:02:25.851705"	"2021-02-04 14:02:26.486010"	78	6.03015663333333
"S210204"	"Conflict_Resolution"	"LEFT"	"LEFT"	441.477900000109	1466.6666696	n/a	n/a	n/a	n/a	"False"	n/a	n/a	"2021-02-04 14:02:27.972194"	"2021-02-04 14:02:28.622475"	79	6.03015663333333
"S210204"	"Conflict_Resolution"	"LEFT"	"LEFT"	606.528099999991	716.6666681	n/a	n/a	n/a	n/a	"True"	n/a	n/a	"2021-02-04 14:02:29.359090"	"2021-02-04 14:02:30.174486"	80	6.03015663333333
"S210204"	"Conflict_Resolution"	"LEFT"	"LEFT"	355.579499999976	1150.0000023	n/a	n/a	n/a	n/a	"False"	n/a	n/a	"2021-02-04 14:02:31.346150"	"2021-02-04 14:02:31.910383"	81	6.03015663333333
"S210204"	"Conflict_Resolution"	"RIGHT"	"RIGHT"	442.284399999949	1216.6666691	n/a	n/a	n/a	n/a	"False"	n/a	n/a	"2021-02-04 14:02:33.146685"	"2021-02-04 14:02:33.797626"	82	6.03015663333333
"S210204"	"Conflict_Resolution"	"RIGHT"	"LEFT"	382.531200000017	1133.3333356	n/a	n/a	n/a	n/a	"True"	n/a	n/a	"2021-02-04 14:02:34.950143"	"2021-02-04 14:02:35.542522"	83	6.03015663333333
"S210204"	"Conflict_Resolution"	"LEFT"	"LEFT"	515.689599999973	1400.0000028	n/a	n/a	n/a	n/a	"True"	n/a	n/a	"2021-02-04 14:02:36.961938"	"2021-02-04 14:02:37.686124"	84	6.03015663333333
"S210204"	"Conflict_Resolution"	"RIGHT"	"RIGHT"	405.767500000024	750.0000015	n/a	n/a	n/a	n/a	"False"	n/a	n/a	"2021-02-04 14:02:38.455343"	"2021-02-04 14:02:39.068588"	85	6.03015663333333
"S210204"	"Conflict_Resolution"	"LEFT"	"LEFT"	528.327900000022	516.6666677	n/a	n/a	n/a	n/a	"True"	n/a	n/a	"2021-02-04 14:02:39.604745"	"2021-02-04 14:02:40.341027"	86	6.03015663333333
"S210204"	"Conflict_Resolution"	"RIGHT"	"RIGHT"	504.180399999996	1483.3333363	n/a	n/a	n/a	n/a	"True"	n/a	n/a	"2021-02-04 14:02:41.844741"	"2021-02-04 14:02:42.557698"	87	6.03015663333333
"S210204"	"Conflict_Resolution"	"RIGHT"	"RIGHT"	354.209699999956	650.0000013	n/a	n/a	n/a	n/a	"False"	n/a	n/a	"2021-02-04 14:02:43.227413"	"2021-02-04 14:02:43.789443"	88	6.03015663333333
"S210204"	"Conflict_Resolution"	"RIGHT"	"LEFT"	390.004699999963	950.0000019	n/a	n/a	n/a	n/a	"True"	n/a	n/a	"2021-02-04 14:02:44.759448"	"2021-02-04 14:02:45.358165"	89	6.03015663333333
"S210204"	"Conflict_Resolution"	"RIGHT"	"RIGHT"	468.446799999924	1383.3333361	n/a	n/a	n/a	n/a	"True"	n/a	n/a	"2021-02-04 14:02:46.761455"	"2021-02-04 14:02:47.438143"	90	6.03015663333333
"S210204"	"Conflict_Resolution"	"RIGHT"	"RIGHT"	325.024400000075	1366.6666694	n/a	n/a	n/a	n/a	"False"	n/a	n/a	"2021-02-04 14:02:48.824333"	"2021-02-04 14:02:49.357937"	91	6.03015663333333
"S210204"	"Conflict_Resolution"	"LEFT"	"LEFT"	481.921599999964	850.0000017	n/a	n/a	n/a	n/a	"False"	n/a	n/a	"2021-02-04 14:02:50.227030"	"2021-02-04 14:02:50.917193"	92	6.03015663333333
"S210204"	"Conflict_Resolution"	"RIGHT"	"RIGHT"	505.424400000038	683.3333347	n/a	n/a	n/a	n/a	"True"	n/a	n/a	"2021-02-04 14:02:51.619418"	"2021-02-04 14:02:52.334257"	93	6.03015663333333
"S210204"	"Conflict_Resolution"	"RIGHT"	"RIGHT"	362.325999999939	1183.3333357	n/a	n/a	n/a	n/a	"False"	n/a	n/a	"2021-02-04 14:02:53.538364"	"2021-02-04 14:02:54.109197"	94	6.03015663333333
"S210204"	"Conflict_Resolution"	"LEFT"	"LEFT"	409.602599999971	683.3333347	n/a	n/a	n/a	n/a	"False"	n/a	n/a	"2021-02-04 14:02:54.811403"	"2021-02-04 14:02:55.431390"	95	6.03015663333333
"S210204"	"Conflict_Resolution"	"LEFT"	"LEFT"	555.031900000017	1366.6666694	n/a	n/a	n/a	n/a	"True"	n/a	n/a	"2021-02-04 14:02:56.818024"	"2021-02-04 14:02:57.580982"	96	6.03015663333333
"S210204"	"Conflict_Resolution"	"RIGHT"	"RIGHT"	483.798699999966	783.3333349	n/a	n/a	n/a	n/a	"False"	n/a	n/a	"2021-02-04 14:02:58.385018"	"2021-02-04 14:02:59.077869"	97	6.03015663333333
"S210204"	"Conflict_Resolution"	"LEFT"	"LEFT"	391.130500000031	1300.0000026	n/a	n/a	n/a	n/a	"False"	n/a	n/a	"2021-02-04 14:03:00.398363"	"2021-02-04 14:03:00.997754"	98	6.03015663333333
"S210204"	"Conflict_Resolution"	"RIGHT"	"RIGHT"	522.588700000028	633.3333346	n/a	n/a	n/a	n/a	"False"	n/a	n/a	"2021-02-04 14:03:01.650820"	"2021-02-04 14:03:02.380878"	99	6.03015663333333
"S210204"	"Conflict_Resolution"	"LEFT"	"LEFT"	418.58840000009	666.666668	n/a	n/a	n/a	n/a	"True"	n/a	n/a	"2021-02-04 14:03:03.066976"	"2021-02-04 14:03:03.693301"	100	6.03015663333333
"S210204"	"Conflict_Resolution"	"RIGHT"	"RIGHT"	439.633299999969	500.000001	n/a	n/a	n/a	n/a	"False"	n/a	n/a	"2021-02-04 14:03:04.213416"	"2021-02-04 14:03:04.862089"	101	6.03015663333333
"S210204"	"Conflict_Resolution"	"RIGHT"	"RIGHT"	381.634800000029	1150.0000023	n/a	n/a	n/a	n/a	"False"	n/a	n/a	"2021-02-04 14:03:06.031601"	"2021-02-04 14:03:06.621015"	102	6.03015663333333
"S210204"	"Conflict_Resolution"	"LEFT"	"LEFT"	477.725700000065	583.3333345	n/a	n/a	n/a	n/a	"False"	n/a	n/a	"2021-02-04 14:03:07.223405"	"2021-02-04 14:03:07.909377"	103	6.03015663333333
"S210204"	"Conflict_Resolution"	"LEFT"	"LEFT"	400.271599999996	900.0000018	n/a	n/a	n/a	n/a	"False"	n/a	n/a	"2021-02-04 14:03:08.828652"	"2021-02-04 14:03:09.438647"	104	6.03015663333333
"S210204"	"Conflict_Resolution"	"LEFT"	"RIGHT"	398.513500000035	900.0000018	n/a	n/a	n/a	n/a	"True"	n/a	n/a	"2021-02-04 14:03:10.358863"	"2021-02-04 14:03:10.965238"	105	6.03015663333333
"S210204"	"Conflict_Resolution"	"RIGHT"	"RIGHT"	587.213700000007	1366.6666694	n/a	n/a	n/a	n/a	"True"	n/a	n/a	"2021-02-04 14:03:12.353849"	"2021-02-04 14:03:13.148712"	106	6.03015663333333
"S210204"	"Conflict_Resolution"	"RIGHT"	"RIGHT"	418.357200000059	1050.0000021	n/a	n/a	n/a	n/a	"False"	n/a	n/a	"2021-02-04 14:03:14.219004"	"2021-02-04 14:03:14.845192"	107	6.03015663333333
"S210204"	"Conflict_Resolution"	"LEFT"	"LEFT"	458.094500000016	783.3333349	n/a	n/a	n/a	n/a	"True"	n/a	n/a	"2021-02-04 14:03:15.651308"	"2021-02-04 14:03:16.316658"	108	6.03015663333333
"S210204"	"Conflict_Resolution"	"LEFT"	"LEFT"	394.342700000038	1066.6666688	n/a	n/a	n/a	n/a	"False"	n/a	n/a	"2021-02-04 14:03:17.403084"	"2021-02-04 14:03:18.005472"	109	6.03015663333333
"S210204"	"Conflict_Resolution"	"LEFT"	"LEFT"	421.748900000011	566.6666678	n/a	n/a	n/a	n/a	"False"	n/a	n/a	"2021-02-04 14:03:18.590919"	"2021-02-04 14:03:19.222220"	110	6.03015663333333
"S210204"	"Conflict_Resolution"	"LEFT"	"LEFT"	350.073000000066	516.6666677	n/a	n/a	n/a	n/a	"False"	n/a	n/a	"2021-02-04 14:03:19.758853"	"2021-02-04 14:03:20.318531"	111	6.03015663333333
"S210204"	"Conflict_Resolution"	"LEFT"	"LEFT"	401.801500000033	1450.0000029	n/a	n/a	n/a	n/a	"False"	n/a	n/a	"2021-02-04 14:03:21.787966"	"2021-02-04 14:03:22.398333"	112	6.03015663333333
"S210204"	"Conflict_Resolution"	"LEFT"	"RIGHT"	440.94849999999	1450.0000029	n/a	n/a	n/a	n/a	"True"	n/a	n/a	"2021-02-04 14:03:23.867994"	"2021-02-04 14:03:24.517290"	113	6.03015663333333
"S210204"	"Conflict_Resolution"	"RIGHT"	"RIGHT"	571.016600000007	1050.0000021	n/a	n/a	n/a	n/a	"True"	n/a	n/a	"2021-02-04 14:03:25.585998"	"2021-02-04 14:03:26.364941"	114	6.03015663333333
"S210204"	"Conflict_Resolution"	"RIGHT"	"RIGHT"	502.305399999955	750.0000015	n/a	n/a	n/a	n/a	"True"	n/a	n/a	"2021-02-04 14:03:27.134887"	"2021-02-04 14:03:27.845489"	115	6.03015663333333
"S210204"	"Conflict_Resolution"	"LEFT"	"LEFT"	556.004400000006	1216.6666691	n/a	n/a	n/a	n/a	"True"	n/a	n/a	"2021-02-04 14:03:29.081361"	"2021-02-04 14:03:29.846275"	116	6.03015663333333
"S210204"	"Conflict_Resolution"	"LEFT"	"LEFT"	376.834700000018	666.666668	n/a	n/a	n/a	n/a	"False"	n/a	n/a	"2021-02-04 14:03:30.531966"	"2021-02-04 14:03:31.116843"	117	6.03015663333333
"S210204"	"Conflict_Resolution"	"LEFT"	"LEFT"	594.107799999961	1250.0000025	n/a	n/a	n/a	n/a	"True"	n/a	n/a	"2021-02-04 14:03:32.387036"	"2021-02-04 14:03:33.189457"	118	6.03015663333333
"S210204"	"Conflict_Resolution"	"LEFT"	"LEFT"	441.977199999997	1216.6666691	n/a	n/a	n/a	n/a	"False"	n/a	n/a	"2021-02-04 14:03:34.427250"	"2021-02-04 14:03:35.077610"	119	6.03015663333333
"S210204"	"Conflict_Resolution"	"LEFT"	"LEFT"	474.698900000021	816.6666683	n/a	n/a	n/a	n/a	"False"	n/a	n/a	"2021-02-04 14:03:35.914887"	"2021-02-04 14:03:36.597570"	120	6.03015663333333
"S210204"	"Conflict_Resolution"	"RIGHT"	"RIGHT"	682.224599999927	850.0000017	n/a	n/a	n/a	n/a	"True"	n/a	n/a	"2021-02-04 14:03:37.467051"	"2021-02-04 14:03:38.357150"	121	6.03015663333333
"S210204"	"Conflict_Resolution"	"LEFT"	"LEFT"	429.971500000079	1166.666669	n/a	n/a	n/a	n/a	"False"	n/a	n/a	"2021-02-04 14:03:39.542961"	"2021-02-04 14:03:40.180828"	122	6.03015663333333
"S210204"	"Conflict_Resolution"	"LEFT"	"LEFT"	330.184499999973	866.6666684	n/a	n/a	n/a	n/a	"False"	n/a	n/a	"2021-02-04 14:03:41.066569"	"2021-02-04 14:03:41.605414"	123	6.03015663333333
"S210204"	"Conflict_Resolution"	"RIGHT"	"RIGHT"	594.036399999936	533.3333344	n/a	n/a	n/a	n/a	"False"	n/a	n/a	"2021-02-04 14:03:42.163135"	"2021-02-04 14:03:42.965018"	124	6.03015663333333
"S210204"	"Conflict_Resolution"	"LEFT"	"LEFT"	300.09599999994	1400.0000028	n/a	n/a	n/a	n/a	"False"	n/a	n/a	"2021-02-04 14:03:44.385585"	"2021-02-04 14:03:44.893201"	125	6.03015663333333
"S210204"	"Conflict_Resolution"	"RIGHT"	"RIGHT"	461.937999999918	1150.0000023	n/a	n/a	n/a	n/a	"True"	n/a	n/a	"2021-02-04 14:03:46.062870"	"2021-02-04 14:03:46.734113"	126	6.03015663333333
"S210204"	"Conflict_Resolution"	"LEFT"	"LEFT"	528.630499999963	1116.6666689	n/a	n/a	n/a	n/a	"True"	n/a	n/a	"2021-02-04 14:03:47.869700"	"2021-02-04 14:03:48.605731"	127	6.03015663333333
"S210204"	"Conflict_Resolution"	"RIGHT"	"RIGHT"	527.089199999978	500.000001	n/a	n/a	n/a	n/a	"True"	n/a	n/a	"2021-02-04 14:03:49.126046"	"2021-02-04 14:03:49.862451"	128	6.03015663333333
"S210204"	"Conflict_Resolution"	"LEFT"	"LEFT"	373.665499999902	1116.6666689	n/a	n/a	n/a	n/a	"False"	n/a	n/a	"2021-02-04 14:03:50.999008"	"2021-02-04 14:03:51.580972"	129	6.03015663333333
"S210204"	"Conflict_Resolution"	"LEFT"	"LEFT"	520.002700000077	1500.000003	n/a	n/a	n/a	n/a	"True"	n/a	n/a	"2021-02-04 14:03:53.101070"	"2021-02-04 14:03:53.830468"	130	6.03015663333333
"S210204"	"Conflict_Resolution"	"LEFT"	"LEFT"	433.941200000049	1200.0000024	n/a	n/a	n/a	n/a	"True"	n/a	n/a	"2021-02-04 14:03:55.051269"	"2021-02-04 14:03:55.692935"	131	6.03015663333333
"S210204"	"Conflict_Resolution"	"RIGHT"	"RIGHT"	415.406400000052	1316.6666693	n/a	n/a	n/a	n/a	"False"	n/a	n/a	"2021-02-04 14:03:57.029980"	"2021-02-04 14:03:57.654309"	132	6.03015663333333
"S210204"	"Conflict_Resolution"	"RIGHT"	"RIGHT"	338.316299999974	583.3333345	n/a	n/a	n/a	n/a	"False"	n/a	n/a	"2021-02-04 14:03:58.258237"	"2021-02-04 14:03:58.805280"	133	6.03015663333333
"S210204"	"Conflict_Resolution"	"RIGHT"	"RIGHT"	560.411299999942	1316.6666693	n/a	n/a	n/a	n/a	"True"	n/a	n/a	"2021-02-04 14:04:00.140964"	"2021-02-04 14:04:00.910095"	134	6.03015663333333
"S210204"	"Conflict_Resolution"	"LEFT"	"LEFT"	465.095899999938	1266.6666692	n/a	n/a	n/a	n/a	"True"	n/a	n/a	"2021-02-04 14:04:02.196608"	"2021-02-04 14:04:02.869824"	135	6.03015663333333
"S210204"	"Conflict_Resolution"	"LEFT"	"LEFT"	450.076700000068	816.6666683	n/a	n/a	n/a	n/a	"True"	n/a	n/a	"2021-02-04 14:04:03.706616"	"2021-02-04 14:04:04.364853"	136	6.03015663333333
"S210204"	"Conflict_Resolution"	"LEFT"	"LEFT"	434.187899999984	1066.6666688	n/a	n/a	n/a	n/a	"True"	n/a	n/a	"2021-02-04 14:04:05.451128"	"2021-02-04 14:04:06.094333"	137	6.03015663333333
"S210204"	"Conflict_Resolution"	"RIGHT"	"RIGHT"	464.872099999866	1233.3333358	n/a	n/a	n/a	n/a	"True"	n/a	n/a	"2021-02-04 14:04:07.348100"	"2021-02-04 14:04:08.022387"	138	6.03015663333333
"S210204"	"Conflict_Resolution"	"RIGHT"	"RIGHT"	375.436799999989	1283.3333359	n/a	n/a	n/a	n/a	"False"	n/a	n/a	"2021-02-04 14:04:09.326135"	"2021-02-04 14:04:09.908946"	139	6.03015663333333
"S210204"	"Conflict_Resolution"	"LEFT"	"LEFT"	454.093700000158	1100.0000022	n/a	n/a	n/a	n/a	"False"	n/a	n/a	"2021-02-04 14:04:11.030982"	"2021-02-04 14:04:11.695250"	140	6.03015663333333
"S210204"	"Conflict_Resolution"	"RIGHT"	"RIGHT"	530.819300000076	1000.000002	n/a	n/a	n/a	n/a	"True"	n/a	n/a	"2021-02-04 14:04:12.713751"	"2021-02-04 14:04:13.452624"	141	6.03015663333333
"S210204"	"Conflict_Resolution"	"RIGHT"	"RIGHT"	383.822000000009	550.0000011	n/a	n/a	n/a	n/a	"False"	n/a	n/a	"2021-02-04 14:04:14.021609"	"2021-02-04 14:04:14.614032"	142	6.03015663333333
"S210204"	"Conflict_Resolution"	"LEFT"	"LEFT"	325.198300000011	1050.0000021	n/a	n/a	n/a	n/a	"False"	n/a	n/a	"2021-02-04 14:04:15.688167"	"2021-02-04 14:04:16.220851"	143	6.03015663333333
"S210204"	"Conflict_Resolution"	"RIGHT"	"RIGHT"	537.703199999896	1266.6666692	n/a	n/a	n/a	n/a	"True"	n/a	n/a	"2021-02-04 14:04:17.507524"	"2021-02-04 14:04:18.252909"	144	6.03015663333333
"S210204"	"Conflict_Resolution"	"LEFT"	"LEFT"	449.928999999884	633.3333346	n/a	n/a	n/a	n/a	"True"	n/a	n/a	"2021-02-04 14:04:18.907142"	"2021-02-04 14:04:19.564944"	145	6.03015663333333
"S210204"	"Conflict_Resolution"	"RIGHT"	"RIGHT"	431.62059999986	1466.6666696	n/a	n/a	n/a	n/a	"True"	n/a	n/a	"2021-02-04 14:04:21.053836"	"2021-02-04 14:04:21.693214"	146	6.03015663333333
"S210204"	"Conflict_Resolution"	"RIGHT"	"RIGHT"	452.817799999821	583.3333345	n/a	n/a	n/a	n/a	"True"	n/a	n/a	"2021-02-04 14:04:22.295866"	"2021-02-04 14:04:22.956555"	147	6.03015663333333
"S210204"	"Conflict_Resolution"	"LEFT"	"LEFT"	430.252899999914	766.6666682	n/a	n/a	n/a	n/a	"False"	n/a	n/a	"2021-02-04 14:04:23.742741"	"2021-02-04 14:04:24.384102"	148	6.03015663333333
"S210204"	"Conflict_Resolution"	"RIGHT"	"RIGHT"	496.832499999982	1416.6666695	n/a	n/a	n/a	n/a	"False"	n/a	n/a	"2021-02-04 14:04:25.820374"	"2021-02-04 14:04:26.524944"	149	6.03015663333333
"S210204"	"Conflict_Resolution"	"RIGHT"	"RIGHT"	436.474099999941	1183.3333357	n/a	n/a	n/a	n/a	"True"	n/a	n/a	"2021-02-04 14:04:27.728171"	"2021-02-04 14:04:28.374415"	150	6.03015663333333
"S210204"	"Conflict_Resolution"	"RIGHT"	"RIGHT"	434.841199999937	1033.3333354	n/a	n/a	n/a	n/a	"True"	n/a	n/a	"2021-02-04 14:04:29.434137"	"2021-02-04 14:04:30.077448"	151	6.03015663333333
"S210204"	"Conflict_Resolution"	"LEFT"	"LEFT"	405.700199999956	1350.0000027	n/a	n/a	n/a	n/a	"True"	n/a	n/a	"2021-02-04 14:04:31.447889"	"2021-02-04 14:04:32.060796"	152	6.03015663333333
"S210204"	"Conflict_Resolution"	"LEFT"	"LEFT"	409.644600000092	1466.6666696	n/a	n/a	n/a	n/a	"True"	n/a	n/a	"2021-02-04 14:04:33.547154"	"2021-02-04 14:04:34.165096"	153	6.03015663333333
"S210204"	"Conflict_Resolution"	"LEFT"	"LEFT"	368.410399999902	916.6666685	n/a	n/a	n/a	n/a	"True"	n/a	n/a	"2021-02-04 14:04:35.100332"	"2021-02-04 14:04:35.676789"	154	6.03015663333333
"S210204"	"Conflict_Resolution"	"RIGHT"	"RIGHT"	491.811000000098	633.3333346	n/a	n/a	n/a	n/a	"True"	n/a	n/a	"2021-02-04 14:04:36.329700"	"2021-02-04 14:04:37.027957"	155	6.03015663333333
"S210204"	"Conflict_Resolution"	"RIGHT"	"RIGHT"	405.284599999959	1100.0000022	n/a	n/a	n/a	n/a	"False"	n/a	n/a	"2021-02-04 14:04:38.151461"	"2021-02-04 14:04:38.765452"	156	6.03015663333333
"S210204"	"Conflict_Resolution"	"RIGHT"	"RIGHT"	444.153400000005	783.3333349	n/a	n/a	n/a	n/a	"True"	n/a	n/a	"2021-02-04 14:04:39.569216"	"2021-02-04 14:04:40.220977"	157	6.03015663333333
"S210204"	"Conflict_Resolution"	"LEFT"	"LEFT"	422.730499999943	950.0000019	n/a	n/a	n/a	n/a	"True"	n/a	n/a	"2021-02-04 14:04:41.190360"	"2021-02-04 14:04:41.820832"	158	6.03015663333333
"S210204"	"Conflict_Resolution"	"LEFT"	"LEFT"	348.612999999887	966.6666686	n/a	n/a	n/a	n/a	"False"	n/a	n/a	"2021-02-04 14:04:42.808847"	"2021-02-04 14:04:43.364886"	159	6.03015663333333
"S210204"	"Conflict_Resolution"	"LEFT"	"LEFT"	443.256900000051	1050.0000021	n/a	n/a	n/a	n/a	"True"	n/a	n/a	"2021-02-04 14:04:44.433390"	"2021-02-04 14:04:45.084858"	160	6.03015663333333
"S210204"	"Processing_Speed"	"RIGHT"	"DOWN"	746.814400000005	1183.3333357	n/a	n/a	n/a	n/a	n/a	n/a	n/a	"2021-02-04 13:48:35.611846"	"2021-02-04 13:48:36.577251"	1	2.013413
"S210204"	"Processing_Speed"	"RIGHT"	"DOWN"	267.870900000005	816.6666683	n/a	n/a	n/a	n/a	n/a	n/a	n/a	"2021-02-04 13:48:37.401867"	"2021-02-04 13:48:37.878360"	2	2.013413
"S210204"	"Processing_Speed"	"RIGHT"	"DOWN"	249.548600000011	916.6666685	n/a	n/a	n/a	n/a	n/a	n/a	n/a	"2021-02-04 13:48:38.804749"	"2021-02-04 13:48:39.262373"	3	2.013413
"S210204"	"Processing_Speed"	"LEFT"	"DOWN"	266.543600000006	1116.6666689	n/a	n/a	n/a	n/a	n/a	n/a	n/a	"2021-02-04 13:48:40.387854"	"2021-02-04 13:48:40.862321"	4	2.013413
"S210204"	"Processing_Speed"	"RIGHT"	"DOWN"	282.982899999993	1300.0000026	n/a	n/a	n/a	n/a	n/a	n/a	n/a	"2021-02-04 13:48:42.170719"	"2021-02-04 13:48:42.662358"	5	2.013413
"S210204"	"Processing_Speed"	"RIGHT"	"DOWN"	295.67999999999	983.3333353	n/a	n/a	n/a	n/a	n/a	n/a	n/a	"2021-02-04 13:48:43.654875"	"2021-02-04 13:48:44.159068"	6	2.013413
"S210204"	"Processing_Speed"	"LEFT"	"DOWN"	328.540500000003	733.3333348	n/a	n/a	n/a	n/a	n/a	n/a	n/a	"2021-02-04 13:48:44.901593"	"2021-02-04 13:48:45.438103"	7	2.013413
"S210204"	"Processing_Speed"	"LEFT"	"DOWN"	318.396800000002	1433.3333362	n/a	n/a	n/a	n/a	n/a	n/a	n/a	"2021-02-04 13:48:46.880231"	"2021-02-04 13:48:47.406534"	8	2.013413
"S210204"	"Processing_Speed"	"RIGHT"	"DOWN"	252.317000000005	1466.6666696	n/a	n/a	n/a	n/a	n/a	n/a	n/a	"2021-02-04 13:48:48.881976"	"2021-02-04 13:48:49.343112"	9	2.013413
"S210204"	"Processing_Speed"	"LEFT"	"DOWN"	283.823699999999	1266.6666692	n/a	n/a	n/a	n/a	n/a	n/a	n/a	"2021-02-04 13:48:50.618393"	"2021-02-04 13:48:51.110108"	10	2.013413
"S210204"	"Processing_Speed"	"LEFT"	"DOWN"	393.492600000002	533.3333344	n/a	n/a	n/a	n/a	n/a	n/a	n/a	"2021-02-04 13:48:51.652801"	"2021-02-04 13:48:52.253670"	11	2.013413
"S210204"	"Processing_Speed"	"RIGHT"	"DOWN"	269.628900000001	633.3333346	n/a	n/a	n/a	n/a	n/a	n/a	n/a	"2021-02-04 13:48:52.896003"	"2021-02-04 13:48:53.373542"	12	2.013413
"S210204"	"Processing_Speed"	"RIGHT"	"DOWN"	251.150500000008	1500.000003	n/a	n/a	n/a	n/a	n/a	n/a	n/a	"2021-02-04 13:48:54.883209"	"2021-02-04 13:48:55.343260"	13	2.013413
"S210204"	"Processing_Speed"	"LEFT"	"DOWN"	256.5405	1333.333336	n/a	n/a	n/a	n/a	n/a	n/a	n/a	"2021-02-04 13:48:56.685654"	"2021-02-04 13:48:57.151039"	14	2.013413
"S210204"	"Processing_Speed"	"LEFT"	"DOWN"	422.3341	566.6666678	n/a	n/a	n/a	n/a	n/a	n/a	n/a	"2021-02-04 13:48:57.727714"	"2021-02-04 13:48:58.359018"	15	2.013413
"S210204"	"Processing_Speed"	"LEFT"	"DOWN"	268.343999999999	850.0000017	n/a	n/a	n/a	n/a	n/a	n/a	n/a	"2021-02-04 13:48:59.217983"	"2021-02-04 13:48:59.695312"	16	2.013413
"S210204"	"Processing_Speed"	"RIGHT"	"DOWN"	231.815499999996	950.0000019	n/a	n/a	n/a	n/a	n/a	n/a	n/a	"2021-02-04 13:49:00.653906"	"2021-02-04 13:49:01.093789"	17	2.013413
"S210204"	"Processing_Speed"	"RIGHT"	"DOWN"	321.88020000001	533.3333344	n/a	n/a	n/a	n/a	n/a	n/a	n/a	"2021-02-04 13:49:01.636103"	"2021-02-04 13:49:02.165861"	18	2.013413
"S210204"	"Processing_Speed"	"LEFT"	"DOWN"	226.684800000001	1500.000003	n/a	n/a	n/a	n/a	n/a	n/a	n/a	"2021-02-04 13:49:03.675122"	"2021-02-04 13:49:04.109789"	19	2.013413
"S210204"	"Processing_Speed"	"RIGHT"	"DOWN"	276.635799999994	1266.6666692	n/a	n/a	n/a	n/a	n/a	n/a	n/a	"2021-02-04 13:49:05.385715"	"2021-02-04 13:49:05.870385"	20	2.013413
"S210204"	"Processing_Speed"	"RIGHT"	"DOWN"	315.270900000002	883.3333351	n/a	n/a	n/a	n/a	n/a	n/a	n/a	"2021-02-04 13:49:06.762771"	"2021-02-04 13:49:07.286642"	21	2.013413
"S210204"	"Processing_Speed"	"RIGHT"	"DOWN"	303.155399999994	783.3333349	n/a	n/a	n/a	n/a	n/a	n/a	n/a	"2021-02-04 13:49:08.078726"	"2021-02-04 13:49:08.589546"	22	2.013413
"S210204"	"Processing_Speed"	"LEFT"	"DOWN"	278.772000000004	633.3333346	n/a	n/a	n/a	n/a	n/a	n/a	n/a	"2021-02-04 13:49:09.231092"	"2021-02-04 13:49:09.717789"	23	2.013413
"S210204"	"Processing_Speed"	"RIGHT"	"DOWN"	239.258500000005	1400.0000028	n/a	n/a	n/a	n/a	n/a	n/a	n/a	"2021-02-04 13:49:11.126736"	"2021-02-04 13:49:11.574510"	24	2.013413
"S210204"	"Processing_Speed"	"LEFT"	"DOWN"	294.353000000001	816.6666683	n/a	n/a	n/a	n/a	n/a	n/a	n/a	"2021-02-04 13:49:12.399431"	"2021-02-04 13:49:12.901706"	25	2.013413
"S210204"	"Processing_Speed"	"LEFT"	"DOWN"	296.797400000003	1183.3333357	n/a	n/a	n/a	n/a	n/a	n/a	n/a	"2021-02-04 13:49:14.093658"	"2021-02-04 13:49:14.598989"	26	2.013413
"S210204"	"Processing_Speed"	"RIGHT"	"DOWN"	322.279600000002	500.000001	n/a	n/a	n/a	n/a	n/a	n/a	n/a	"2021-02-04 13:49:15.107627"	"2021-02-04 13:49:15.639411"	27	2.013413
"S210204"	"Processing_Speed"	"LEFT"	"DOWN"	229.679699999991	783.3333349	n/a	n/a	n/a	n/a	n/a	n/a	n/a	"2021-02-04 13:49:16.431941"	"2021-02-04 13:49:16.871424"	28	2.013413
"S210204"	"Processing_Speed"	"LEFT"	"DOWN"	205.362799999989	1400.0000028	n/a	n/a	n/a	n/a	n/a	n/a	n/a	"2021-02-04 13:49:18.281136"	"2021-02-04 13:49:18.695056"	29	2.013413
"S210204"	"Processing_Speed"	"LEFT"	"DOWN"	274.929600000007	1083.3333355	n/a	n/a	n/a	n/a	n/a	n/a	n/a	"2021-02-04 13:49:19.786770"	"2021-02-04 13:49:20.269796"	30	2.013413
"S210204"	"Processing_Speed"	"LEFT"	"DOWN"	311.115000000001	1016.6666687	n/a	n/a	n/a	n/a	n/a	n/a	n/a	"2021-02-04 13:49:21.294676"	"2021-02-04 13:49:21.814125"	31	2.013413
"S210204"	"Processing_Speed"	"RIGHT"	"DOWN"	246.332700000011	1216.6666691	n/a	n/a	n/a	n/a	n/a	n/a	n/a	"2021-02-04 13:49:23.040016"	"2021-02-04 13:49:23.493577"	32	2.013413
"S210204"	"Processing_Speed"	"LEFT"	"DOWN"	260.642700000005	1466.6666696	n/a	n/a	n/a	n/a	n/a	n/a	n/a	"2021-02-04 13:49:24.969477"	"2021-02-04 13:49:25.440218"	33	2.013413
"S210204"	"Processing_Speed"	"RIGHT"	"DOWN"	257.820699999996	1083.3333355	n/a	n/a	n/a	n/a	n/a	n/a	n/a	"2021-02-04 13:49:26.532867"	"2021-02-04 13:49:26.997797"	34	2.013413
"S210204"	"Processing_Speed"	"RIGHT"	"DOWN"	371.650100000011	700.0000014	n/a	n/a	n/a	n/a	n/a	n/a	n/a	"2021-02-04 13:49:27.706512"	"2021-02-04 13:49:28.286538"	35	2.013413
"S210204"	"Processing_Speed"	"RIGHT"	"DOWN"	236.684300000007	1050.0000021	n/a	n/a	n/a	n/a	n/a	n/a	n/a	"2021-02-04 13:49:29.345419"	"2021-02-04 13:49:29.790941"	36	2.013413
"S210204"	"Processing_Speed"	"LEFT"	"DOWN"	235.52029999999	666.666668	n/a	n/a	n/a	n/a	n/a	n/a	n/a	"2021-02-04 13:49:30.466152"	"2021-02-04 13:49:30.909322"	37	2.013413
"S210204"	"Processing_Speed"	"LEFT"	"DOWN"	294.399499999997	1050.0000021	n/a	n/a	n/a	n/a	n/a	n/a	n/a	"2021-02-04 13:49:31.967776"	"2021-02-04 13:49:32.470431"	38	2.013413
"S210204"	"Processing_Speed"	"LEFT"	"DOWN"	240.091500000005	950.0000019	n/a	n/a	n/a	n/a	n/a	n/a	n/a	"2021-02-04 13:49:33.429530"	"2021-02-04 13:49:33.879230"	39	2.013413
"S210204"	"Processing_Speed"	"LEFT"	"DOWN"	265.920300000005	883.3333351	n/a	n/a	n/a	n/a	n/a	n/a	n/a	"2021-02-04 13:49:34.772347"	"2021-02-04 13:49:35.246576"	40	2.013413
"S210204"	"Processing_Speed"	"RIGHT"	"DOWN"	252.34660000001	666.666668	n/a	n/a	n/a	n/a	n/a	n/a	n/a	"2021-02-04 13:49:35.921787"	"2021-02-04 13:49:36.382527"	41	2.013413
"S210204"	"Processing_Speed"	"RIGHT"	"DOWN"	278.442699999999	1016.6666687	n/a	n/a	n/a	n/a	n/a	n/a	n/a	"2021-02-04 13:49:37.407855"	"2021-02-04 13:49:37.895023"	42	2.013413
"S210204"	"Processing_Speed"	"RIGHT"	"DOWN"	311.363200000017	1366.6666694	n/a	n/a	n/a	n/a	n/a	n/a	n/a	"2021-02-04 13:49:39.270842"	"2021-02-04 13:49:39.790510"	43	2.013413
"S210204"	"Processing_Speed"	"LEFT"	"DOWN"	220.753500000001	1216.6666691	n/a	n/a	n/a	n/a	n/a	n/a	n/a	"2021-02-04 13:49:41.017303"	"2021-02-04 13:49:41.445653"	44	2.013413
"S210204"	"Processing_Speed"	"LEFT"	"DOWN"	225.948399999993	1150.0000023	n/a	n/a	n/a	n/a	n/a	n/a	n/a	"2021-02-04 13:49:42.603916"	"2021-02-04 13:49:43.037692"	45	2.013413
"S210204"	"Processing_Speed"	"LEFT"	"DOWN"	290.479099999999	700.0000014	n/a	n/a	n/a	n/a	n/a	n/a	n/a	"2021-02-04 13:49:43.748171"	"2021-02-04 13:49:44.248229"	46	2.013413
"S210204"	"Processing_Speed"	"RIGHT"	"DOWN"	222.177499999987	1150.0000023	n/a	n/a	n/a	n/a	n/a	n/a	n/a	"2021-02-04 13:49:45.408206"	"2021-02-04 13:49:45.838056"	47	2.013413
"S210204"	"Processing_Speed"	"RIGHT"	"DOWN"	254.62760000002	600.0000012	n/a	n/a	n/a	n/a	n/a	n/a	n/a	"2021-02-04 13:49:46.447421"	"2021-02-04 13:49:46.910217"	48	2.013413
"S210204"	"Processing_Speed"	"LEFT"	"DOWN"	218.844300000001	1300.0000026	n/a	n/a	n/a	n/a	n/a	n/a	n/a	"2021-02-04 13:49:48.218844"	"2021-02-04 13:49:48.646731"	49	2.013413
"S210204"	"Processing_Speed"	"RIGHT"	"DOWN"	287.950699999982	566.6666678	n/a	n/a	n/a	n/a	n/a	n/a	n/a	"2021-02-04 13:49:49.221738"	"2021-02-04 13:49:49.718372"	50	2.013413
"S210204"	"Processing_Speed"	"LEFT"	"DOWN"	210.240099999993	916.6666685	n/a	n/a	n/a	n/a	n/a	n/a	n/a	"2021-02-04 13:49:50.643687"	"2021-02-04 13:49:51.062145"	51	2.013413
"S210204"	"Processing_Speed"	"LEFT"	"DOWN"	240.154899999993	983.3333353	n/a	n/a	n/a	n/a	n/a	n/a	n/a	"2021-02-04 13:49:52.054333"	"2021-02-04 13:49:52.502202"	52	2.013413
"S210204"	"Processing_Speed"	"LEFT"	"DOWN"	270.818399999996	600.0000012	n/a	n/a	n/a	n/a	n/a	n/a	n/a	"2021-02-04 13:49:53.112078"	"2021-02-04 13:49:53.591167"	53	2.013413
"S210204"	"Processing_Speed"	"RIGHT"	"DOWN"	250.88550000001	850.0000017	n/a	n/a	n/a	n/a	n/a	n/a	n/a	"2021-02-04 13:49:54.451066"	"2021-02-04 13:49:54.909882"	54	2.013413
"S210204"	"Processing_Speed"	"LEFT"	"DOWN"	241.344900000001	1366.6666694	n/a	n/a	n/a	n/a	n/a	n/a	n/a	"2021-02-04 13:49:56.284632"	"2021-02-04 13:49:56.734567"	55	2.013413
"S210204"	"Processing_Speed"	"RIGHT"	"DOWN"	223.739500000022	733.3333348	n/a	n/a	n/a	n/a	n/a	n/a	n/a	"2021-02-04 13:49:57.478241"	"2021-02-04 13:49:57.911451"	56	2.013413
"S210204"	"Processing_Speed"	"RIGHT"	"DOWN"	224.895599999996	1333.333336	n/a	n/a	n/a	n/a	n/a	n/a	n/a	"2021-02-04 13:49:59.252788"	"2021-02-04 13:49:59.686221"	57	2.013413
"S210204"	"Processing_Speed"	"RIGHT"	"DOWN"	241.056200000003	1116.6666689	n/a	n/a	n/a	n/a	n/a	n/a	n/a	"2021-02-04 13:50:00.812980"	"2021-02-04 13:50:01.261910"	58	2.013413
"S210204"	"Processing_Speed"	"RIGHT"	"DOWN"	222.339000000005	1433.3333362	n/a	n/a	n/a	n/a	n/a	n/a	n/a	"2021-02-04 13:50:02.703693"	"2021-02-04 13:50:03.135143"	59	2.013413
"S210204"	"Processing_Speed"	"LEFT"	"DOWN"	298.092099999991	500.000001	n/a	n/a	n/a	n/a	n/a	n/a	n/a	"2021-02-04 13:50:03.644335"	"2021-02-04 13:50:04.149678"	60	2.013413
"S210204"	"Response_Inhibition"	"LEFT"	"LEFT"	501.705600000037	683.3333347	n/a	n/a	n/a	n/a	n/a	n/a	n/a	"2021-02-04 13:53:43.655650"	"2021-02-04 13:53:44.367220"	1	5.83997555
"S210204"	"Response_Inhibition"	"LEFT"	"LEFT"	331.547699999987	1216.6666691	n/a	n/a	n/a	n/a	n/a	n/a	n/a	"2021-02-04 13:53:45.594070"	"2021-02-04 13:53:46.132992"	2	5.83997555
"S210204"	"Response_Inhibition"	"LEFT"	"LEFT"	321.19513340003	1466.6666696	n/a	n/a	n/a	n/a	n/a	n/a	n/a	"2021-02-04 13:53:47.608962"	"2021-02-04 13:53:48.142534"	3	5.83997555
"S210204"	"Response_Inhibition"	"RIGHT"	"Time_Max_Exceeded"	1500.12140000001	766.6666682	n/a	n/a	n/a	n/a	n/a	n/a	n/a	"2021-02-04 13:53:48.917856"	"2021-02-04 13:53:50.418349"	4	5.83997555
"S210204"	"Response_Inhibition"	"RIGHT"	"RIGHT"	443.954399999996	916.6666685	n/a	n/a	n/a	n/a	n/a	n/a	n/a	"2021-02-04 13:53:51.346045"	"2021-02-04 13:53:52.000295"	5	5.83997555
"S210204"	"Response_Inhibition"	"RIGHT"	"RIGHT"	391.432399999985	1266.6666692	n/a	n/a	n/a	n/a	n/a	n/a	n/a	"2021-02-04 13:53:53.278740"	"2021-02-04 13:53:53.878402"	6	5.83997555
"S210204"	"Response_Inhibition"	"RIGHT"	"RIGHT"	354.830200200015	1366.6666694	n/a	n/a	n/a	n/a	n/a	n/a	n/a	"2021-02-04 13:53:55.255782"	"2021-02-04 13:53:55.820856"	7	5.83997555
"S210204"	"Response_Inhibition"	"LEFT"	"LEFT"	449.269500000014	1333.333336	n/a	n/a	n/a	n/a	n/a	n/a	n/a	"2021-02-04 13:53:57.164168"	"2021-02-04 13:53:57.823377"	8	5.83997555
"S210204"	"Response_Inhibition"	"LEFT"	"Time_Max_Exceeded"	1500.06310010002	1400.0000028	n/a	n/a	n/a	n/a	n/a	n/a	n/a	"2021-02-04 13:53:59.233091"	"2021-02-04 13:54:00.736427"	9	5.83997555
"S210204"	"Response_Inhibition"	"RIGHT"	"Time_Max_Exceeded"	1500.05760009998	733.3333348	n/a	n/a	n/a	n/a	n/a	n/a	n/a	"2021-02-04 13:54:01.479078"	"2021-02-04 13:54:02.982229"	10	5.83997555
"S210204"	"Response_Inhibition"	"RIGHT"	"Time_Max_Exceeded"	1500.05950030004	533.3333344	n/a	n/a	n/a	n/a	n/a	n/a	n/a	"2021-02-04 13:54:03.525779"	"2021-02-04 13:54:05.028919"	11	5.83997555
"S210204"	"Response_Inhibition"	"RIGHT"	"Time_Max_Exceeded"	1500.06036680001	1500.000003	n/a	n/a	n/a	n/a	n/a	n/a	n/a	"2021-02-04 13:54:06.538236"	"2021-02-04 13:54:08.041798"	12	5.83997555
"S210204"	"Response_Inhibition"	"LEFT"	"LEFT"	536.837900000023	1033.3333354	n/a	n/a	n/a	n/a	n/a	n/a	n/a	"2021-02-04 13:54:09.084389"	"2021-02-04 13:54:09.830486"	13	5.83997555
"S210204"	"Response_Inhibition"	"LEFT"	"LEFT"	447.170700000015	583.3333345	n/a	n/a	n/a	n/a	n/a	n/a	n/a	"2021-02-04 13:54:10.422912"	"2021-02-04 13:54:11.078209"	14	5.83997555
"S210204"	"Response_Inhibition"	"LEFT"	"LEFT"	427.299800300037	800.0000016	n/a	n/a	n/a	n/a	n/a	n/a	n/a	"2021-02-04 13:54:11.887525"	"2021-02-04 13:54:12.527139"	15	5.83997555
"S210204"	"Response_Inhibition"	"LEFT"	"LEFT"	484.127999999998	1416.6666695	n/a	n/a	n/a	n/a	n/a	n/a	n/a	"2021-02-04 13:54:13.953534"	"2021-02-04 13:54:14.646231"	16	5.83997555
"S210204"	"Response_Inhibition"	"RIGHT"	"Time_Max_Exceeded"	1500.06076690003	1433.3333362	n/a	n/a	n/a	n/a	n/a	n/a	n/a	"2021-02-04 13:54:16.087960"	"2021-02-04 13:54:17.591511"	17	5.83997555
"S210204"	"Response_Inhibition"	"RIGHT"	"RIGHT"	671.294799999998	733.3333348	n/a	n/a	n/a	n/a	n/a	n/a	n/a	"2021-02-04 13:54:18.334606"	"2021-02-04 13:54:19.214048"	18	5.83997555
"S210204"	"Response_Inhibition"	"RIGHT"	"RIGHT"	471.71000000003	1133.3333356	n/a	n/a	n/a	n/a	n/a	n/a	n/a	"2021-02-04 13:54:20.357624"	"2021-02-04 13:54:21.037627"	19	5.83997555
"S210204"	"Response_Inhibition"	"LEFT"	"Time_Max_Exceeded"	1500.06236710003	716.6666681	n/a	n/a	n/a	n/a	n/a	n/a	n/a	"2021-02-04 13:54:21.764695"	"2021-02-04 13:54:23.268558"	20	5.83997555
"S210204"	"Response_Inhibition"	"RIGHT"	"Time_Max_Exceeded"	1500.0575338	1400.0000028	n/a	n/a	n/a	n/a	n/a	n/a	n/a	"2021-02-04 13:54:24.677656"	"2021-02-04 13:54:26.181515"	21	5.83997555
"S210204"	"Response_Inhibition"	"RIGHT"	"RIGHT"	510.557567199997	1100.0000022	n/a	n/a	n/a	n/a	n/a	n/a	n/a	"2021-02-04 13:54:27.291801"	"2021-02-04 13:54:28.014489"	22	5.83997555
"S210204"	"Response_Inhibition"	"LEFT"	"Time_Max_Exceeded"	1500.05876669995	533.3333344	n/a	n/a	n/a	n/a	n/a	n/a	n/a	"2021-02-04 13:54:28.556041"	"2021-02-04 13:54:30.059552"	23	5.83997555
"S210204"	"Response_Inhibition"	"RIGHT"	"Time_Max_Exceeded"	1500.05583380001	650.0000013	n/a	n/a	n/a	n/a	n/a	n/a	n/a	"2021-02-04 13:54:30.719490"	"2021-02-04 13:54:32.223155"	24	5.83997555
"S210204"	"Response_Inhibition"	"LEFT"	"LEFT"	535.489899999959	566.6666678	n/a	n/a	n/a	n/a	n/a	n/a	n/a	"2021-02-04 13:54:32.798112"	"2021-02-04 13:54:33.543162"	25	5.83997555
"S210204"	"Response_Inhibition"	"RIGHT"	"RIGHT"	599.612699999966	1333.333336	n/a	n/a	n/a	n/a	n/a	n/a	n/a	"2021-02-04 13:54:34.886055"	"2021-02-04 13:54:35.694974"	26	5.83997555
"S210204"	"Response_Inhibition"	"RIGHT"	"RIGHT"	505.874800000015	700.0000014	n/a	n/a	n/a	n/a	n/a	n/a	n/a	"2021-02-04 13:54:36.403583"	"2021-02-04 13:54:37.116916"	27	5.83997555
"S210204"	"Response_Inhibition"	"RIGHT"	"RIGHT"	490.360199999998	1150.0000023	n/a	n/a	n/a	n/a	n/a	n/a	n/a	"2021-02-04 13:54:38.275293"	"2021-02-04 13:54:38.973591"	28	5.83997555
"S210204"	"Response_Inhibition"	"RIGHT"	"RIGHT"	470.334500000035	1216.6666691	n/a	n/a	n/a	n/a	n/a	n/a	n/a	"2021-02-04 13:54:40.199268"	"2021-02-04 13:54:40.877613"	29	5.83997555
"S210204"	"Response_Inhibition"	"LEFT"	"LEFT"	664.182299999993	700.0000014	n/a	n/a	n/a	n/a	n/a	n/a	n/a	"2021-02-04 13:54:41.589984"	"2021-02-04 13:54:42.463393"	30	5.83997555
"S210204"	"Response_Inhibition"	"RIGHT"	"RIGHT"	461.553300000048	583.3333345	n/a	n/a	n/a	n/a	n/a	n/a	n/a	"2021-02-04 13:54:43.056783"	"2021-02-04 13:54:43.726226"	31	5.83997555
"S210204"	"Response_Inhibition"	"RIGHT"	"RIGHT"	387.45576699999	800.0000016	n/a	n/a	n/a	n/a	n/a	n/a	n/a	"2021-02-04 13:54:44.535158"	"2021-02-04 13:54:45.135311"	32	5.83997555
"S210204"	"Response_Inhibition"	"LEFT"	"LEFT"	515.379200000041	1466.6666696	n/a	n/a	n/a	n/a	n/a	n/a	n/a	"2021-02-04 13:54:46.610712"	"2021-02-04 13:54:47.333679"	33	5.83997555
"S210204"	"Response_Inhibition"	"LEFT"	"LEFT"	461.39630049999	1166.666669	n/a	n/a	n/a	n/a	n/a	n/a	n/a	"2021-02-04 13:54:48.508377"	"2021-02-04 13:54:49.182249"	34	5.83997555
"S210204"	"Response_Inhibition"	"RIGHT"	"RIGHT"	790.182200000004	816.6666683	n/a	n/a	n/a	n/a	n/a	n/a	n/a	"2021-02-04 13:54:50.007150"	"2021-02-04 13:54:51.006538"	35	5.83997555
"S210204"	"Response_Inhibition"	"RIGHT"	"RIGHT"	658.855199999948	1283.3333359	n/a	n/a	n/a	n/a	n/a	n/a	n/a	"2021-02-04 13:54:52.299307"	"2021-02-04 13:54:53.166142"	36	5.83997555
"S210204"	"Response_Inhibition"	"RIGHT"	"RIGHT"	508.476900000005	1050.0000021	n/a	n/a	n/a	n/a	n/a	n/a	n/a	"2021-02-04 13:54:54.225586"	"2021-02-04 13:54:54.942371"	37	5.83997555
"S210204"	"Response_Inhibition"	"RIGHT"	"RIGHT"	448.217200000045	1366.6666694	n/a	n/a	n/a	n/a	n/a	n/a	n/a	"2021-02-04 13:54:56.317327"	"2021-02-04 13:54:56.974379"	38	5.83997555
"S210204"	"Response_Inhibition"	"RIGHT"	"RIGHT"	507.801099999995	1483.3333363	n/a	n/a	n/a	n/a	n/a	n/a	n/a	"2021-02-04 13:54:58.466385"	"2021-02-04 13:54:59.182079"	39	5.83997555
"S210204"	"Response_Inhibition"	"RIGHT"	"RIGHT"	461.20940000003	633.3333346	n/a	n/a	n/a	n/a	n/a	n/a	n/a	"2021-02-04 13:54:59.824407"	"2021-02-04 13:55:00.494090"	40	5.83997555
"S210204"	"Response_Inhibition"	"RIGHT"	"RIGHT"	406.94830000001	750.0000015	n/a	n/a	n/a	n/a	n/a	n/a	n/a	"2021-02-04 13:55:01.254084"	"2021-02-04 13:55:01.870157"	41	5.83997555
"S210204"	"Response_Inhibition"	"RIGHT"	"Time_Max_Exceeded"	1500.05126699999	1200.0000024	n/a	n/a	n/a	n/a	n/a	n/a	n/a	"2021-02-04 13:55:03.078444"	"2021-02-04 13:55:04.581911"	42	5.83997555
"S210204"	"Response_Inhibition"	"LEFT"	"Time_Max_Exceeded"	1500.05960020002	833.333335	n/a	n/a	n/a	n/a	n/a	n/a	n/a	"2021-02-04 13:55:05.424657"	"2021-02-04 13:55:06.927876"	43	5.83997555
"S210204"	"Response_Inhibition"	"RIGHT"	"RIGHT"	489.391399999988	1066.6666688	n/a	n/a	n/a	n/a	n/a	n/a	n/a	"2021-02-04 13:55:08.004385"	"2021-02-04 13:55:08.701565"	44	5.83997555
"S210204"	"Response_Inhibition"	"LEFT"	"LEFT"	494.632000000024	600.0000012	n/a	n/a	n/a	n/a	n/a	n/a	n/a	"2021-02-04 13:55:09.311440"	"2021-02-04 13:55:10.013609"	45	5.83997555
"S210204"	"Response_Inhibition"	"RIGHT"	"Time_Max_Exceeded"	1500.06343360004	1466.6666696	n/a	n/a	n/a	n/a	n/a	n/a	n/a	"2021-02-04 13:55:11.489127"	"2021-02-04 13:55:12.993014"	46	5.83997555
"S210204"	"Response_Inhibition"	"RIGHT"	"RIGHT"	507.492300000024	683.3333347	n/a	n/a	n/a	n/a	n/a	n/a	n/a	"2021-02-04 13:55:13.690121"	"2021-02-04 13:55:14.404712"	47	5.83997555
"S210204"	"Response_Inhibition"	"RIGHT"	"RIGHT"	446.490600000004	850.0000017	n/a	n/a	n/a	n/a	n/a	n/a	n/a	"2021-02-04 13:55:15.263239"	"2021-02-04 13:55:15.916969"	48	5.83997555
"S210204"	"Response_Inhibition"	"LEFT"	"Time_Max_Exceeded"	1500.05186680003	733.3333348	n/a	n/a	n/a	n/a	n/a	n/a	n/a	"2021-02-04 13:55:16.660664"	"2021-02-04 13:55:18.163577"	49	5.83997555
"S210204"	"Response_Inhibition"	"LEFT"	"LEFT"	516.227399999991	916.6666685	n/a	n/a	n/a	n/a	n/a	n/a	n/a	"2021-02-04 13:55:19.089472"	"2021-02-04 13:55:19.814025"	50	5.83997555
"S210204"	"Response_Inhibition"	"RIGHT"	"RIGHT"	520.455900000002	1350.0000027	n/a	n/a	n/a	n/a	n/a	n/a	n/a	"2021-02-04 13:55:21.173221"	"2021-02-04 13:55:21.901107"	51	5.83997555
"S210204"	"Response_Inhibition"	"RIGHT"	"RIGHT"	449.906133700006	1033.3333354	n/a	n/a	n/a	n/a	n/a	n/a	n/a	"2021-02-04 13:55:22.944305"	"2021-02-04 13:55:23.606344"	52	5.83997555
"S210204"	"Response_Inhibition"	"RIGHT"	"Time_Max_Exceeded"	1500.06336689999	1266.6666692	n/a	n/a	n/a	n/a	n/a	n/a	n/a	"2021-02-04 13:55:24.882511"	"2021-02-04 13:55:26.386144"	53	5.83997555
"S210204"	"Response_Inhibition"	"RIGHT"	"Time_Max_Exceeded"	1500.15073339997	550.0000011	n/a	n/a	n/a	n/a	n/a	n/a	n/a	"2021-02-04 13:55:26.947240"	"2021-02-04 13:55:28.451237"	54	5.83997555
"S210204"	"Response_Inhibition"	"LEFT"	"LEFT"	441.961100000015	1366.6666694	n/a	n/a	n/a	n/a	n/a	n/a	n/a	"2021-02-04 13:55:29.827221"	"2021-02-04 13:55:30.477659"	55	5.83997555
"S210204"	"Response_Inhibition"	"LEFT"	"LEFT"	410.212700000045	533.3333344	n/a	n/a	n/a	n/a	n/a	n/a	n/a	"2021-02-04 13:55:31.019070"	"2021-02-04 13:55:31.638006"	56	5.83997555
"S210204"	"Response_Inhibition"	"RIGHT"	"RIGHT"	489.853799999992	1083.3333355	n/a	n/a	n/a	n/a	n/a	n/a	n/a	"2021-02-04 13:55:32.731441"	"2021-02-04 13:55:33.433070"	57	5.83997555
"S210204"	"Response_Inhibition"	"RIGHT"	"RIGHT"	440.54669999997	1216.6666691	n/a	n/a	n/a	n/a	n/a	n/a	n/a	"2021-02-04 13:55:34.660832"	"2021-02-04 13:55:35.311097"	58	5.83997555
"S210204"	"Response_Inhibition"	"RIGHT"	"RIGHT"	382.585033600059	850.0000017	n/a	n/a	n/a	n/a	n/a	n/a	n/a	"2021-02-04 13:55:36.171448"	"2021-02-04 13:55:36.766152"	59	5.83997555
"S210204"	"Response_Inhibition"	"LEFT"	"Time_Max_Exceeded"	1500.05036700001	983.3333353	n/a	n/a	n/a	n/a	n/a	n/a	n/a	"2021-02-04 13:55:37.758246"	"2021-02-04 13:55:39.262403"	60	5.83997555
"S210204"	"Response_Inhibition"	"LEFT"	"LEFT"	439.429700000005	1000.000002	n/a	n/a	n/a	n/a	n/a	n/a	n/a	"2021-02-04 13:55:40.270899"	"2021-02-04 13:55:40.920198"	61	5.83997555
"S210204"	"Response_Inhibition"	"LEFT"	"LEFT"	383.883500000024	1316.6666693	n/a	n/a	n/a	n/a	n/a	n/a	n/a	"2021-02-04 13:55:42.245709"	"2021-02-04 13:55:42.838251"	62	5.83997555
"S210204"	"Response_Inhibition"	"RIGHT"	"RIGHT"	505.701300000055	1100.0000022	n/a	n/a	n/a	n/a	n/a	n/a	n/a	"2021-02-04 13:55:43.948011"	"2021-02-04 13:55:44.662273"	63	5.83997555
"S210204"	"Response_Inhibition"	"RIGHT"	"RIGHT"	439.889367099951	900.0000018	n/a	n/a	n/a	n/a	n/a	n/a	n/a	"2021-02-04 13:55:45.570947"	"2021-02-04 13:55:46.223022"	64	5.83997555
"S210204"	"Response_Inhibition"	"LEFT"	"LEFT"	481.760399999985	1500.000003	n/a	n/a	n/a	n/a	n/a	n/a	n/a	"2021-02-04 13:55:47.732269"	"2021-02-04 13:55:48.422117"	65	5.83997555
"S210204"	"Response_Inhibition"	"LEFT"	"LEFT"	345.14566709997	1433.3333362	n/a	n/a	n/a	n/a	n/a	n/a	n/a	"2021-02-04 13:55:49.865053"	"2021-02-04 13:55:50.421692"	66	5.83997555
"S210204"	"Response_Inhibition"	"RIGHT"	"Time_Max_Exceeded"	1500.05850040009	1016.6666687	n/a	n/a	n/a	n/a	n/a	n/a	n/a	"2021-02-04 13:55:51.447482"	"2021-02-04 13:55:52.950865"	67	5.83997555
"S210204"	"Response_Inhibition"	"RIGHT"	"Time_Max_Exceeded"	1500.05210020004	600.0000012	n/a	n/a	n/a	n/a	n/a	n/a	n/a	"2021-02-04 13:55:53.561735"	"2021-02-04 13:55:55.065786"	68	5.83997555
"S210204"	"Response_Inhibition"	"RIGHT"	"RIGHT"	491.105299999958	1000.000002	n/a	n/a	n/a	n/a	n/a	n/a	n/a	"2021-02-04 13:55:56.074402"	"2021-02-04 13:55:56.773643"	69	5.83997555
"S210204"	"Response_Inhibition"	"LEFT"	"Time_Max_Exceeded"	1500.05123340005	1083.3333355	n/a	n/a	n/a	n/a	n/a	n/a	n/a	"2021-02-04 13:55:57.865478"	"2021-02-04 13:55:59.368806"	70	5.83997555
"S210204"	"Response_Inhibition"	"LEFT"	"LEFT"	529.116999999928	866.6666684	n/a	n/a	n/a	n/a	n/a	n/a	n/a	"2021-02-04 13:56:00.245110"	"2021-02-04 13:56:00.982147"	71	5.83997555
"S210204"	"Response_Inhibition"	"LEFT"	"Time_Max_Exceeded"	1500.0516336	1216.6666691	n/a	n/a	n/a	n/a	n/a	n/a	n/a	"2021-02-04 13:56:02.209070"	"2021-02-04 13:56:03.712579"	72	5.83997555
"S210204"	"Response_Inhibition"	"RIGHT"	"Time_Max_Exceeded"	1500.05946670005	633.3333346	n/a	n/a	n/a	n/a	n/a	n/a	n/a	"2021-02-04 13:56:04.355860"	"2021-02-04 13:56:05.859926"	73	5.83997555
"S210204"	"Response_Inhibition"	"RIGHT"	"RIGHT"	583.313299999986	616.6666679	n/a	n/a	n/a	n/a	n/a	n/a	n/a	"2021-02-04 13:56:06.486420"	"2021-02-04 13:56:07.278300"	74	5.83997555
"S210204"	"Response_Inhibition"	"RIGHT"	"RIGHT"	524.871399999938	1450.0000029	n/a	n/a	n/a	n/a	n/a	n/a	n/a	"2021-02-04 13:56:08.736889"	"2021-02-04 13:56:09.469934"	75	5.83997555
"S210204"	"Response_Inhibition"	"LEFT"	"LEFT"	593.651799999975	733.3333348	n/a	n/a	n/a	n/a	n/a	n/a	n/a	"2021-02-04 13:56:10.212315"	"2021-02-04 13:56:11.013581"	76	5.83997555
"S210204"	"Response_Inhibition"	"RIGHT"	"RIGHT"	544.21549999995	783.3333349	n/a	n/a	n/a	n/a	n/a	n/a	n/a	"2021-02-04 13:56:11.805481"	"2021-02-04 13:56:12.558471"	77	5.83997555
"S210204"	"Response_Inhibition"	"RIGHT"	"Time_Max_Exceeded"	1500.0583003	1116.6666689	n/a	n/a	n/a	n/a	n/a	n/a	n/a	"2021-02-04 13:56:13.684539"	"2021-02-04 13:56:15.188076"	78	5.83997555
"S210204"	"Response_Inhibition"	"RIGHT"	"Time_Max_Exceeded"	1500.0583334	716.6666681	n/a	n/a	n/a	n/a	n/a	n/a	n/a	"2021-02-04 13:56:15.914541"	"2021-02-04 13:56:17.417734"	79	5.83997555
"S210204"	"Response_Inhibition"	"RIGHT"	"Time_Max_Exceeded"	1500.05900019994	1166.666669	n/a	n/a	n/a	n/a	n/a	n/a	n/a	"2021-02-04 13:56:18.593466"	"2021-02-04 13:56:20.096931"	80	5.83997555
"S210204"	"Response_Inhibition"	"RIGHT"	"RIGHT"	487.581299999988	1316.6666693	n/a	n/a	n/a	n/a	n/a	n/a	n/a	"2021-02-04 13:56:21.422647"	"2021-02-04 13:56:22.121699"	81	5.83997555
"S210204"	"Response_Inhibition"	"LEFT"	"Time_Max_Exceeded"	1500.05966669998	1016.6666687	n/a	n/a	n/a	n/a	n/a	n/a	n/a	"2021-02-04 13:56:23.147613"	"2021-02-04 13:56:24.652006"	82	5.83997555
"S210204"	"Response_Inhibition"	"RIGHT"	"RIGHT"	477.830700000027	666.666668	n/a	n/a	n/a	n/a	n/a	n/a	n/a	"2021-02-04 13:56:25.327971"	"2021-02-04 13:56:26.013546"	83	5.83997555
"S210204"	"Response_Inhibition"	"LEFT"	"LEFT"	538.839800000005	883.3333351	n/a	n/a	n/a	n/a	n/a	n/a	n/a	"2021-02-04 13:56:26.907352"	"2021-02-04 13:56:27.654162"	84	5.83997555
"S210204"	"Response_Inhibition"	"RIGHT"	"RIGHT"	495.066699999938	1000.000002	n/a	n/a	n/a	n/a	n/a	n/a	n/a	"2021-02-04 13:56:28.662332"	"2021-02-04 13:56:29.365508"	85	5.83997555
"S210204"	"Response_Inhibition"	"LEFT"	"LEFT"	545.624400000065	516.6666677	n/a	n/a	n/a	n/a	n/a	n/a	n/a	"2021-02-04 13:56:29.891797"	"2021-02-04 13:56:30.646447"	86	5.83997555
"S210204"	"Response_Inhibition"	"LEFT"	"LEFT"	396.567900000036	1050.0000021	n/a	n/a	n/a	n/a	n/a	n/a	n/a	"2021-02-04 13:56:31.705327"	"2021-02-04 13:56:32.309999"	87	5.83997555
"S210204"	"Response_Inhibition"	"RIGHT"	"RIGHT"	477.577999999994	1233.3333358	n/a	n/a	n/a	n/a	n/a	n/a	n/a	"2021-02-04 13:56:33.552346"	"2021-02-04 13:56:34.238777"	88	5.83997555
"S210204"	"Response_Inhibition"	"LEFT"	"LEFT"	416.523533699967	1250.0000025	n/a	n/a	n/a	n/a	n/a	n/a	n/a	"2021-02-04 13:56:35.497869"	"2021-02-04 13:56:36.126007"	89	5.83997555
"S210204"	"Response_Inhibition"	"RIGHT"	"RIGHT"	537.612899999999	516.6666677	n/a	n/a	n/a	n/a	n/a	n/a	n/a	"2021-02-04 13:56:36.651663"	"2021-02-04 13:56:37.397863"	90	5.83997555
"S210204"	"Response_Inhibition"	"LEFT"	"Time_Max_Exceeded"	1500.05860039994	1366.6666694	n/a	n/a	n/a	n/a	n/a	n/a	n/a	"2021-02-04 13:56:38.774057"	"2021-02-04 13:56:40.277869"	91	5.83997555
"S210204"	"Response_Inhibition"	"RIGHT"	"RIGHT"	495.215700000017	1183.3333357	n/a	n/a	n/a	n/a	n/a	n/a	n/a	"2021-02-04 13:56:41.470678"	"2021-02-04 13:56:42.174895"	92	5.83997555
"S210204"	"Response_Inhibition"	"RIGHT"	"RIGHT"	624.710299999947	900.0000018	n/a	n/a	n/a	n/a	n/a	n/a	n/a	"2021-02-04 13:56:43.084607"	"2021-02-04 13:56:43.916992"	93	5.83997555
"S210204"	"Response_Inhibition"	"LEFT"	"LEFT"	496.354500000052	783.3333349	n/a	n/a	n/a	n/a	n/a	n/a	n/a	"2021-02-04 13:56:44.709438"	"2021-02-04 13:56:45.414472"	94	5.83997555
"S210204"	"Response_Inhibition"	"RIGHT"	"RIGHT"	458.108700000025	500.000001	n/a	n/a	n/a	n/a	n/a	n/a	n/a	"2021-02-04 13:56:45.923112"	"2021-02-04 13:56:46.589676"	95	5.83997555
"S210204"	"Response_Inhibition"	"LEFT"	"LEFT"	317.372466899923	950.0000019	n/a	n/a	n/a	n/a	n/a	n/a	n/a	"2021-02-04 13:56:47.549379"	"2021-02-04 13:56:48.076804"	96	5.83997555
"S210204"	"Response_Inhibition"	"LEFT"	"LEFT"	423.132900000041	816.6666683	n/a	n/a	n/a	n/a	n/a	n/a	n/a	"2021-02-04 13:56:48.902190"	"2021-02-04 13:56:49.533812"	97	5.83997555
"S210204"	"Response_Inhibition"	"LEFT"	"LEFT"	377.017599999931	550.0000011	n/a	n/a	n/a	n/a	n/a	n/a	n/a	"2021-02-04 13:56:50.092376"	"2021-02-04 13:56:50.678352"	98	5.83997555
"S210204"	"Response_Inhibition"	"RIGHT"	"RIGHT"	470.271799999978	1416.6666695	n/a	n/a	n/a	n/a	n/a	n/a	n/a	"2021-02-04 13:56:52.103217"	"2021-02-04 13:56:52.781952"	99	5.83997555
"S210204"	"Response_Inhibition"	"RIGHT"	"RIGHT"	607.026499999961	1383.3333361	n/a	n/a	n/a	n/a	n/a	n/a	n/a	"2021-02-04 13:56:54.174571"	"2021-02-04 13:56:54.991034"	100	5.83997555
"S210204"	"Response_Inhibition"	"LEFT"	"LEFT"	445.300000499975	1316.6666693	n/a	n/a	n/a	n/a	n/a	n/a	n/a	"2021-02-04 13:56:56.317007"	"2021-02-04 13:56:56.974458"	101	5.83997555
"S210204"	"Response_Inhibition"	"LEFT"	"LEFT"	399.201400000038	966.6666686	n/a	n/a	n/a	n/a	n/a	n/a	n/a	"2021-02-04 13:56:57.950438"	"2021-02-04 13:56:58.559444"	102	5.83997555
"S210204"	"Response_Inhibition"	"RIGHT"	"RIGHT"	521.746700000108	866.6666684	n/a	n/a	n/a	n/a	n/a	n/a	n/a	"2021-02-04 13:56:59.435707"	"2021-02-04 13:57:00.164958"	103	5.83997555
"S210204"	"Response_Inhibition"	"LEFT"	"LEFT"	498.262700000055	1300.0000026	n/a	n/a	n/a	n/a	n/a	n/a	n/a	"2021-02-04 13:57:01.475186"	"2021-02-04 13:57:02.182438"	104	5.83997555
"S210204"	"Response_Inhibition"	"LEFT"	"LEFT"	351.381700000047	1150.0000023	n/a	n/a	n/a	n/a	n/a	n/a	n/a	"2021-02-04 13:57:03.341808"	"2021-02-04 13:57:03.901651"	105	5.83997555
"S210204"	"Response_Inhibition"	"LEFT"	"LEFT"	475.976599999967	850.0000017	n/a	n/a	n/a	n/a	n/a	n/a	n/a	"2021-02-04 13:57:04.761173"	"2021-02-04 13:57:05.444848"	106	5.83997555
"S210204"	"Response_Inhibition"	"LEFT"	"LEFT"	401.388900000029	750.0000015	n/a	n/a	n/a	n/a	n/a	n/a	n/a	"2021-02-04 13:57:06.204386"	"2021-02-04 13:57:06.813852"	107	5.83997555
"S210204"	"Response_Inhibition"	"RIGHT"	"Time_Max_Exceeded"	1500.05820000001	1250.0000025	n/a	n/a	n/a	n/a	n/a	n/a	n/a	"2021-02-04 13:57:08.072268"	"2021-02-04 13:57:09.572839"	108	5.83997555
"S210204"	"Response_Inhibition"	"RIGHT"	"RIGHT"	374.55503379996	933.3333352	n/a	n/a	n/a	n/a	n/a	n/a	n/a	"2021-02-04 13:57:10.515408"	"2021-02-04 13:57:11.103184"	109	5.83997555
"S210204"	"Response_Inhibition"	"LEFT"	"LEFT"	458.349599999906	1266.6666692	n/a	n/a	n/a	n/a	n/a	n/a	n/a	"2021-02-04 13:57:12.379550"	"2021-02-04 13:57:13.046586"	110	5.83997555
"S210204"	"Response_Inhibition"	"LEFT"	"LEFT"	519.430599999964	1350.0000027	n/a	n/a	n/a	n/a	n/a	n/a	n/a	"2021-02-04 13:57:14.406533"	"2021-02-04 13:57:15.134425"	111	5.83997555
"S210204"	"Response_Inhibition"	"LEFT"	"LEFT"	401.697399999989	1100.0000022	n/a	n/a	n/a	n/a	n/a	n/a	n/a	"2021-02-04 13:57:16.244246"	"2021-02-04 13:57:16.854273"	112	5.83997555
"S210204"	"Response_Inhibition"	"LEFT"	"Time_Max_Exceeded"	1500.05623349997	850.0000017	n/a	n/a	n/a	n/a	n/a	n/a	n/a	"2021-02-04 13:57:17.712948"	"2021-02-04 13:57:19.217010"	113	5.83997555
"S210204"	"Response_Inhibition"	"LEFT"	"LEFT"	449.479999999994	650.0000013	n/a	n/a	n/a	n/a	n/a	n/a	n/a	"2021-02-04 13:57:19.876259"	"2021-02-04 13:57:20.533546"	114	5.83997555
"S210204"	"Response_Inhibition"	"LEFT"	"LEFT"	436.356400000022	1483.3333363	n/a	n/a	n/a	n/a	n/a	n/a	n/a	"2021-02-04 13:57:22.025630"	"2021-02-04 13:57:22.670410"	115	5.83997555
"S210204"	"Response_Inhibition"	"LEFT"	"LEFT"	432.630200400017	1066.6666688	n/a	n/a	n/a	n/a	n/a	n/a	n/a	"2021-02-04 13:57:23.745311"	"2021-02-04 13:57:24.388762"	116	5.83997555
"S210204"	"Response_Inhibition"	"RIGHT"	"Time_Max_Exceeded"	1500.0483005	1316.6666693	n/a	n/a	n/a	n/a	n/a	n/a	n/a	"2021-02-04 13:57:25.714755"	"2021-02-04 13:57:27.217540"	117	5.83997555
"S210204"	"Response_Inhibition"	"LEFT"	"LEFT"	582.152900000096	666.666668	n/a	n/a	n/a	n/a	n/a	n/a	n/a	"2021-02-04 13:57:27.895597"	"2021-02-04 13:57:28.685990"	118	5.83997555
"S210204"	"Response_Inhibition"	"RIGHT"	"RIGHT"	472.91759999996	1150.0000023	n/a	n/a	n/a	n/a	n/a	n/a	n/a	"2021-02-04 13:57:29.844978"	"2021-02-04 13:57:30.526259"	119	5.83997555
"S210204"	"Response_Inhibition"	"LEFT"	"LEFT"	339.911799999982	1233.3333358	n/a	n/a	n/a	n/a	n/a	n/a	n/a	"2021-02-04 13:57:31.769249"	"2021-02-04 13:57:32.317333"	120	5.83997555
"S210204"	"Response_Inhibition"	"RIGHT"	"RIGHT"	536.387600000012	983.3333353	n/a	n/a	n/a	n/a	n/a	n/a	n/a	"2021-02-04 13:57:33.309690"	"2021-02-04 13:57:34.053857"	121	5.83997555
"S210204"	"Response_Inhibition"	"LEFT"	"LEFT"	375.980000000027	1183.3333357	n/a	n/a	n/a	n/a	n/a	n/a	n/a	"2021-02-04 13:57:35.245252"	"2021-02-04 13:57:35.828947"	122	5.83997555
"S210204"	"Response_Inhibition"	"RIGHT"	"RIGHT"	452.459599999997	1466.6666696	n/a	n/a	n/a	n/a	n/a	n/a	n/a	"2021-02-04 13:57:37.305296"	"2021-02-04 13:57:37.966498"	123	5.83997555
"S210204"	"Response_Inhibition"	"LEFT"	"LEFT"	342.565100000002	1200.0000024	n/a	n/a	n/a	n/a	n/a	n/a	n/a	"2021-02-04 13:57:39.175397"	"2021-02-04 13:57:39.724891"	124	5.83997555
"S210204"	"Response_Inhibition"	"LEFT"	"LEFT"	446.322799999962	1416.6666695	n/a	n/a	n/a	n/a	n/a	n/a	n/a	"2021-02-04 13:57:41.150902"	"2021-02-04 13:57:41.806709"	125	5.83997555
"S210204"	"Response_Inhibition"	"RIGHT"	"RIGHT"	499.563099999932	833.333335	n/a	n/a	n/a	n/a	n/a	n/a	n/a	"2021-02-04 13:57:42.649635"	"2021-02-04 13:57:43.358050"	126	5.83997555
"S210204"	"Response_Inhibition"	"LEFT"	"Time_Max_Exceeded"	1500.06146699995	683.3333347	n/a	n/a	n/a	n/a	n/a	n/a	n/a	"2021-02-04 13:57:44.050440"	"2021-02-04 13:57:45.554375"	127	5.83997555
"S210204"	"Response_Inhibition"	"LEFT"	"LEFT"	501.596033800037	633.3333346	n/a	n/a	n/a	n/a	n/a	n/a	n/a	"2021-02-04 13:57:46.197731"	"2021-02-04 13:57:46.911384"	128	5.83997555
"S210204"	"Response_Inhibition"	"LEFT"	"LEFT"	328.845099999967	1116.6666689	n/a	n/a	n/a	n/a	n/a	n/a	n/a	"2021-02-04 13:57:48.036738"	"2021-02-04 13:57:48.574491"	129	5.83997555
"S210204"	"Response_Inhibition"	"LEFT"	"LEFT"	288.456399999973	950.0000019	n/a	n/a	n/a	n/a	n/a	n/a	n/a	"2021-02-04 13:57:49.533619"	"2021-02-04 13:57:50.028855"	130	5.83997555
"S210204"	"Response_Inhibition"	"RIGHT"	"RIGHT"	530.746000000022	533.3333344	n/a	n/a	n/a	n/a	n/a	n/a	n/a	"2021-02-04 13:57:50.570793"	"2021-02-04 13:57:51.309745"	131	5.83997555
"S210204"	"Response_Inhibition"	"LEFT"	"LEFT"	322.514333700008	616.6666679	n/a	n/a	n/a	n/a	n/a	n/a	n/a	"2021-02-04 13:57:51.936090"	"2021-02-04 13:57:52.471147"	132	5.83997555
"S210204"	"Response_Inhibition"	"RIGHT"	"RIGHT"	348.735999999917	1416.6666695	n/a	n/a	n/a	n/a	n/a	n/a	n/a	"2021-02-04 13:57:53.896540"	"2021-02-04 13:57:54.453848"	133	5.83997555
"S210204"	"Response_Inhibition"	"LEFT"	"Time_Max_Exceeded"	1500.06236680001	1283.3333359	n/a	n/a	n/a	n/a	n/a	n/a	n/a	"2021-02-04 13:57:55.746988"	"2021-02-04 13:57:57.250536"	134	5.83997555
"S210204"	"Response_Inhibition"	"LEFT"	"LEFT"	526.454200000103	1450.0000029	n/a	n/a	n/a	n/a	n/a	n/a	n/a	"2021-02-04 13:57:58.711006"	"2021-02-04 13:57:59.444584"	135	5.83997555
"S210204"	"Response_Inhibition"	"LEFT"	"LEFT"	474.190500000077	766.6666682	n/a	n/a	n/a	n/a	n/a	n/a	n/a	"2021-02-04 13:58:00.219308"	"2021-02-04 13:58:00.902467"	136	5.83997555
"S210204"	"Response_Inhibition"	"LEFT"	"LEFT"	418.897499999957	900.0000018	n/a	n/a	n/a	n/a	n/a	n/a	n/a	"2021-02-04 13:58:01.810650"	"2021-02-04 13:58:02.437706"	137	5.83997555
"S210204"	"Response_Inhibition"	"LEFT"	"LEFT"	463.793567199944	900.0000018	n/a	n/a	n/a	n/a	n/a	n/a	n/a	"2021-02-04 13:58:03.346334"	"2021-02-04 13:58:04.021683"	138	5.83997555
"S210204"	"Response_Inhibition"	"LEFT"	"LEFT"	1002.96800000001	500.000001	n/a	n/a	n/a	n/a	n/a	n/a	n/a	"2021-02-04 13:58:04.530035"	"2021-02-04 13:58:05.742250"	139	5.83997555
"S210204"	"Response_Inhibition"	"RIGHT"	"RIGHT"	603.305900000009	1050.0000021	n/a	n/a	n/a	n/a	n/a	n/a	n/a	"2021-02-04 13:58:06.802454"	"2021-02-04 13:58:07.613900"	140	5.83997555
"S210204"	"Response_Inhibition"	"LEFT"	"Time_Max_Exceeded"	1500.0598335001	583.3333345	n/a	n/a	n/a	n/a	n/a	n/a	n/a	"2021-02-04 13:58:08.205926"	"2021-02-04 13:58:09.709627"	141	5.83997555
"S210204"	"Response_Inhibition"	"RIGHT"	"RIGHT"	546.79370000008	683.3333347	n/a	n/a	n/a	n/a	n/a	n/a	n/a	"2021-02-04 13:58:10.402720"	"2021-02-04 13:58:11.158330"	142	5.83997555
"S210204"	"Response_Inhibition"	"LEFT"	"LEFT"	637.465600000041	633.3333346	n/a	n/a	n/a	n/a	n/a	n/a	n/a	"2021-02-04 13:58:11.800291"	"2021-02-04 13:58:12.646867"	143	5.83997555
"S210204"	"Response_Inhibition"	"LEFT"	"LEFT"	422.725700000001	783.3333349	n/a	n/a	n/a	n/a	n/a	n/a	n/a	"2021-02-04 13:58:13.438869"	"2021-02-04 13:58:14.068915"	144	5.83997555
"S210204"	"Response_Inhibition"	"LEFT"	"Time_Max_Exceeded"	1500.05723349997	1133.3333356	n/a	n/a	n/a	n/a	n/a	n/a	n/a	"2021-02-04 13:58:15.210934"	"2021-02-04 13:58:16.713978"	145	5.83997555
"S210204"	"Response_Inhibition"	"LEFT"	"LEFT"	512.377900000047	1050.0000021	n/a	n/a	n/a	n/a	n/a	n/a	n/a	"2021-02-04 13:58:17.773461"	"2021-02-04 13:58:18.493014"	146	5.83997555
"S210204"	"Response_Inhibition"	"RIGHT"	"Time_Max_Exceeded"	1500.05270010001	950.0000019	n/a	n/a	n/a	n/a	n/a	n/a	n/a	"2021-02-04 13:58:19.452638"	"2021-02-04 13:58:20.956123"	147	5.83997555
"S210204"	"Response_Inhibition"	"RIGHT"	"RIGHT"	557.342800000015	883.3333351	n/a	n/a	n/a	n/a	n/a	n/a	n/a	"2021-02-04 13:58:21.847739"	"2021-02-04 13:58:22.613342"	148	5.83997555
"S210204"	"Response_Inhibition"	"LEFT"	"LEFT"	607.586800000036	1383.3333361	n/a	n/a	n/a	n/a	n/a	n/a	n/a	"2021-02-04 13:58:24.006151"	"2021-02-04 13:58:24.821668"	149	5.83997555
"S210204"	"Response_Inhibition"	"LEFT"	"LEFT"	560.731499999974	933.3333352	n/a	n/a	n/a	n/a	n/a	n/a	n/a	"2021-02-04 13:58:25.764196"	"2021-02-04 13:58:26.534390"	150	5.83997555
"S210204"	"Response_Inhibition"	"LEFT"	"LEFT"	335.455499999966	1150.0000023	n/a	n/a	n/a	n/a	n/a	n/a	n/a	"2021-02-04 13:58:27.694227"	"2021-02-04 13:58:28.238781"	151	5.83997555
"S210204"	"Response_Inhibition"	"LEFT"	"LEFT"	395.578	1266.6666692	n/a	n/a	n/a	n/a	n/a	n/a	n/a	"2021-02-04 13:58:29.513467"	"2021-02-04 13:58:30.119848"	152	5.83997555
"S210204"	"Response_Inhibition"	"RIGHT"	"RIGHT"	525.472600000057	966.6666686	n/a	n/a	n/a	n/a	n/a	n/a	n/a	"2021-02-04 13:58:31.096320"	"2021-02-04 13:58:31.828866"	153	5.83997555
"S210204"	"Response_Inhibition"	"LEFT"	"LEFT"	482.61500000001	1100.0000022	n/a	n/a	n/a	n/a	n/a	n/a	n/a	"2021-02-04 13:58:32.938527"	"2021-02-04 13:58:33.628922"	154	5.83997555
"S210204"	"Response_Inhibition"	"RIGHT"	"RIGHT"	395.934000000011	1300.0000026	n/a	n/a	n/a	n/a	n/a	n/a	n/a	"2021-02-04 13:58:34.937718"	"2021-02-04 13:58:35.540665"	155	5.83997555
"S210204"	"Response_Inhibition"	"RIGHT"	"RIGHT"	609.308300000066	566.6666678	n/a	n/a	n/a	n/a	n/a	n/a	n/a	"2021-02-04 13:58:36.116630"	"2021-02-04 13:58:36.933300"	156	5.83997555
"S210204"	"Response_Inhibition"	"LEFT"	"LEFT"	567.628300000024	1000.000002	n/a	n/a	n/a	n/a	n/a	n/a	n/a	"2021-02-04 13:58:37.941652"	"2021-02-04 13:58:38.718158"	157	5.83997555
"S210204"	"Response_Inhibition"	"RIGHT"	"RIGHT"	439.242000000036	950.0000019	n/a	n/a	n/a	n/a	n/a	n/a	n/a	"2021-02-04 13:58:39.678192"	"2021-02-04 13:58:40.326144"	158	5.83997555
"S210204"	"Response_Inhibition"	"RIGHT"	"RIGHT"	671.207600000002	783.3333349	n/a	n/a	n/a	n/a	n/a	n/a	n/a	"2021-02-04 13:58:41.118026"	"2021-02-04 13:58:41.996776"	159	5.83997555
"S210204"	"Response_Inhibition"	"RIGHT"	"RIGHT"	384.512900000004	583.3333345	n/a	n/a	n/a	n/a	n/a	n/a	n/a	"2021-02-04 13:58:42.589197"	"2021-02-04 13:58:43.181711"	160	5.83997555
"S210204"	"Response_Selection"	"LEFT"	"LEFT"	278.335800000008	1016.6666687	n/a	n/a	n/a	n/a	n/a	n/a	n/a	"2021-02-04 13:50:53.799336"	"2021-02-04 13:50:54.285613"	1	2.77712255
"S210204"	"Response_Selection"	"LEFT"	"LEFT"	280.502799999994	1350.0000027	n/a	n/a	n/a	n/a	n/a	n/a	n/a	"2021-02-04 13:50:55.645158"	"2021-02-04 13:50:56.133584"	2	2.77712255
"S210204"	"Response_Selection"	"LEFT"	"LEFT"	509.632500000009	633.3333346	n/a	n/a	n/a	n/a	n/a	n/a	n/a	"2021-02-04 13:50:56.776042"	"2021-02-04 13:50:57.493734"	3	2.77712255
"S210204"	"Response_Selection"	"RIGHT"	"RIGHT"	237.103300000001	1266.6666692	n/a	n/a	n/a	n/a	n/a	n/a	n/a	"2021-02-04 13:50:58.768721"	"2021-02-04 13:50:59.214365"	4	2.77712255
"S210204"	"Response_Selection"	"LEFT"	"LEFT"	270.986499999992	1200.0000024	n/a	n/a	n/a	n/a	n/a	n/a	n/a	"2021-02-04 13:51:00.422821"	"2021-02-04 13:51:00.902846"	5	2.77712255
"S210204"	"Response_Selection"	"LEFT"	"LEFT"	249.747900000017	1116.6666689	n/a	n/a	n/a	n/a	n/a	n/a	n/a	"2021-02-04 13:51:02.028636"	"2021-02-04 13:51:02.485739"	6	2.77712255
"S210204"	"Response_Selection"	"RIGHT"	"RIGHT"	303.501799999992	800.0000016	n/a	n/a	n/a	n/a	n/a	n/a	n/a	"2021-02-04 13:51:03.294081"	"2021-02-04 13:51:03.805586"	7	2.77712255
"S210204"	"Response_Selection"	"RIGHT"	"RIGHT"	290.781199999998	1133.3333356	n/a	n/a	n/a	n/a	n/a	n/a	n/a	"2021-02-04 13:51:04.947014"	"2021-02-04 13:51:05.445690"	8	2.77712255
"S210204"	"Response_Selection"	"RIGHT"	"RIGHT"	269.357900000017	1466.6666696	n/a	n/a	n/a	n/a	n/a	n/a	n/a	"2021-02-04 13:51:06.921033"	"2021-02-04 13:51:07.397916"	9	2.77712255
"S210204"	"Response_Selection"	"RIGHT"	"RIGHT"	309.749399999987	833.333335	n/a	n/a	n/a	n/a	n/a	n/a	n/a	"2021-02-04 13:51:08.240593"	"2021-02-04 13:51:08.757582"	10	2.77712255
"S210204"	"Response_Selection"	"RIGHT"	"RIGHT"	317.214500000006	866.6666684	n/a	n/a	n/a	n/a	n/a	n/a	n/a	"2021-02-04 13:51:09.632864"	"2021-02-04 13:51:10.157785"	11	2.77712255
"S210204"	"Response_Selection"	"LEFT"	"LEFT"	282.394499999981	1083.3333355	n/a	n/a	n/a	n/a	n/a	n/a	n/a	"2021-02-04 13:51:11.251886"	"2021-02-04 13:51:11.741948"	12	2.77712255
"S210204"	"Response_Selection"	"LEFT"	"LEFT"	304.919299999995	533.3333344	n/a	n/a	n/a	n/a	n/a	n/a	n/a	"2021-02-04 13:51:12.284944"	"2021-02-04 13:51:12.798074"	13	2.77712255
"S210204"	"Response_Selection"	"LEFT"	"LEFT"	283.279800000003	1500.000003	n/a	n/a	n/a	n/a	n/a	n/a	n/a	"2021-02-04 13:51:14.306592"	"2021-02-04 13:51:14.798067"	14	2.77712255
"S210204"	"Response_Selection"	"LEFT"	"LEFT"	252.755500000006	1450.0000029	n/a	n/a	n/a	n/a	n/a	n/a	n/a	"2021-02-04 13:51:16.257565"	"2021-02-04 13:51:16.718316"	15	2.77712255
"S210204"	"Response_Selection"	"RIGHT"	"RIGHT"	261.673000000002	1200.0000024	n/a	n/a	n/a	n/a	n/a	n/a	n/a	"2021-02-04 13:51:17.928498"	"2021-02-04 13:51:18.398326"	16	2.77712255
"S210204"	"Response_Selection"	"RIGHT"	"RIGHT"	271.76350000002	983.3333353	n/a	n/a	n/a	n/a	n/a	n/a	n/a	"2021-02-04 13:51:19.390322"	"2021-02-04 13:51:19.872960"	17	2.77712255
"S210204"	"Response_Selection"	"RIGHT"	"RIGHT"	342.405399999961	733.3333348	n/a	n/a	n/a	n/a	n/a	n/a	n/a	"2021-02-04 13:51:20.615148"	"2021-02-04 13:51:21.165813"	18	2.77712255
"S210204"	"Response_Selection"	"LEFT"	"LEFT"	270.158999999978	1033.3333354	n/a	n/a	n/a	n/a	n/a	n/a	n/a	"2021-02-04 13:51:22.207482"	"2021-02-04 13:51:22.685798"	19	2.77712255
"S210204"	"Response_Selection"	"RIGHT"	"RIGHT"	268.814200000008	1450.0000029	n/a	n/a	n/a	n/a	n/a	n/a	n/a	"2021-02-04 13:51:24.145736"	"2021-02-04 13:51:24.622961"	20	2.77712255
"S210204"	"Response_Selection"	"LEFT"	"LEFT"	330.016699999987	500.000001	n/a	n/a	n/a	n/a	n/a	n/a	n/a	"2021-02-04 13:51:25.131655"	"2021-02-04 13:51:25.669543"	21	2.77712255
"S210204"	"Response_Selection"	"LEFT"	"LEFT"	305.057699999963	1133.3333356	n/a	n/a	n/a	n/a	n/a	n/a	n/a	"2021-02-04 13:51:26.813046"	"2021-02-04 13:51:27.325677"	22	2.77712255
"S210204"	"Response_Selection"	"LEFT"	"LEFT"	300.48800000003	1266.6666692	n/a	n/a	n/a	n/a	n/a	n/a	n/a	"2021-02-04 13:51:28.601334"	"2021-02-04 13:51:29.110022"	23	2.77712255
"S210204"	"Response_Selection"	"LEFT"	"LEFT"	231.617700000015	966.6666686	n/a	n/a	n/a	n/a	n/a	n/a	n/a	"2021-02-04 13:51:30.086776"	"2021-02-04 13:51:30.525862"	24	2.77712255
"S210204"	"Response_Selection"	"RIGHT"	"RIGHT"	259.170600000004	1500.000003	n/a	n/a	n/a	n/a	n/a	n/a	n/a	"2021-02-04 13:51:32.034915"	"2021-02-04 13:51:32.501666"	25	2.77712255
"S210204"	"Response_Selection"	"RIGHT"	"RIGHT"	382.32290000002	633.3333346	n/a	n/a	n/a	n/a	n/a	n/a	n/a	"2021-02-04 13:51:33.143634"	"2021-02-04 13:51:33.733491"	26	2.77712255
"S210204"	"Response_Selection"	"LEFT"	"LEFT"	255.282200000011	800.0000016	n/a	n/a	n/a	n/a	n/a	n/a	n/a	"2021-02-04 13:51:34.543062"	"2021-02-04 13:51:35.005708"	27	2.77712255
"S210204"	"Response_Selection"	"LEFT"	"LEFT"	329.407000000003	550.0000011	n/a	n/a	n/a	n/a	n/a	n/a	n/a	"2021-02-04 13:51:35.564714"	"2021-02-04 13:51:36.102023"	28	2.77712255
"S210204"	"Response_Selection"	"RIGHT"	"RIGHT"	233.077699999967	933.3333352	n/a	n/a	n/a	n/a	n/a	n/a	n/a	"2021-02-04 13:51:37.044581"	"2021-02-04 13:51:37.486398"	29	2.77712255
"S210204"	"Response_Selection"	"RIGHT"	"RIGHT"	263.47149999998	966.6666686	n/a	n/a	n/a	n/a	n/a	n/a	n/a	"2021-02-04 13:51:38.462508"	"2021-02-04 13:51:38.934251"	30	2.77712255
"S210204"	"Response_Selection"	"RIGHT"	"RIGHT"	276.828299999977	1066.6666688	n/a	n/a	n/a	n/a	n/a	n/a	n/a	"2021-02-04 13:51:40.008626"	"2021-02-04 13:51:40.493610"	31	2.77712255
"S210204"	"Response_Selection"	"RIGHT"	"RIGHT"	346.133500000008	500.000001	n/a	n/a	n/a	n/a	n/a	n/a	n/a	"2021-02-04 13:51:41.003640"	"2021-02-04 13:51:41.558157"	32	2.77712255
"S210204"	"Response_Selection"	"LEFT"	"LEFT"	244.443900000022	833.333335	n/a	n/a	n/a	n/a	n/a	n/a	n/a	"2021-02-04 13:51:42.401413"	"2021-02-04 13:51:42.854201"	33	2.77712255
"S210204"	"Response_Selection"	"LEFT"	"LEFT"	261.504300000013	1216.6666691	n/a	n/a	n/a	n/a	n/a	n/a	n/a	"2021-02-04 13:51:44.080848"	"2021-02-04 13:51:44.550469"	34	2.77712255
"S210204"	"Response_Selection"	"LEFT"	"LEFT"	256.848400000024	750.0000015	n/a	n/a	n/a	n/a	n/a	n/a	n/a	"2021-02-04 13:51:45.309094"	"2021-02-04 13:51:45.775420"	35	2.77712255
"S210204"	"Response_Selection"	"LEFT"	"LEFT"	297.5773	1300.0000026	n/a	n/a	n/a	n/a	n/a	n/a	n/a	"2021-02-04 13:51:47.084008"	"2021-02-04 13:51:47.590348"	36	2.77712255
"S210204"	"Response_Selection"	"RIGHT"	"RIGHT"	256.169800000009	1166.666669	n/a	n/a	n/a	n/a	n/a	n/a	n/a	"2021-02-04 13:51:48.765631"	"2021-02-04 13:51:49.230485"	37	2.77712255
"S210204"	"Response_Selection"	"RIGHT"	"RIGHT"	243.60740000003	1250.0000025	n/a	n/a	n/a	n/a	n/a	n/a	n/a	"2021-02-04 13:51:50.490739"	"2021-02-04 13:51:50.941653"	38	2.77712255
"S210204"	"Response_Selection"	"RIGHT"	"RIGHT"	270.49169999998	1016.6666687	n/a	n/a	n/a	n/a	n/a	n/a	n/a	"2021-02-04 13:51:51.967528"	"2021-02-04 13:51:52.446219"	39	2.77712255
"S210204"	"Response_Selection"	"RIGHT"	"RIGHT"	331.236900000022	683.3333347	n/a	n/a	n/a	n/a	n/a	n/a	n/a	"2021-02-04 13:51:53.138692"	"2021-02-04 13:51:53.677734"	40	2.77712255
"S210204"	"Response_Selection"	"LEFT"	"LEFT"	274.600399999997	916.6666685	n/a	n/a	n/a	n/a	n/a	n/a	n/a	"2021-02-04 13:51:54.602772"	"2021-02-04 13:51:55.084850"	41	2.77712255
"S210204"	"Response_Selection"	"RIGHT"	"RIGHT"	240.365099999963	783.3333349	n/a	n/a	n/a	n/a	n/a	n/a	n/a	"2021-02-04 13:51:55.877745"	"2021-02-04 13:51:56.330346"	42	2.77712255
"S210204"	"Response_Selection"	"LEFT"	"LEFT"	274.067899999977	1400.0000028	n/a	n/a	n/a	n/a	n/a	n/a	n/a	"2021-02-04 13:51:57.740098"	"2021-02-04 13:51:58.220727"	43	2.77712255
"S210204"	"Response_Selection"	"RIGHT"	"RIGHT"	231.152900000041	1033.3333354	n/a	n/a	n/a	n/a	n/a	n/a	n/a	"2021-02-04 13:51:59.262864"	"2021-02-04 13:51:59.703385"	44	2.77712255
"S210204"	"Response_Selection"	"LEFT"	"LEFT"	263.330199999984	733.3333348	n/a	n/a	n/a	n/a	n/a	n/a	n/a	"2021-02-04 13:52:00.446049"	"2021-02-04 13:52:00.917785"	45	2.77712255
"S210204"	"Response_Selection"	"LEFT"	"LEFT"	302.331400000014	600.0000012	n/a	n/a	n/a	n/a	n/a	n/a	n/a	"2021-02-04 13:52:01.527168"	"2021-02-04 13:52:02.037800"	46	2.77712255
"S210204"	"Response_Selection"	"LEFT"	"LEFT"	252.241700000013	1066.6666688	n/a	n/a	n/a	n/a	n/a	n/a	n/a	"2021-02-04 13:52:03.113465"	"2021-02-04 13:52:03.575229"	47	2.77712255
"S210204"	"Response_Selection"	"RIGHT"	"RIGHT"	237.716000000034	1400.0000028	n/a	n/a	n/a	n/a	n/a	n/a	n/a	"2021-02-04 13:52:04.984023"	"2021-02-04 13:52:05.431824"	48	2.77712255
"S210204"	"Response_Selection"	"RIGHT"	"RIGHT"	367.149499999982	533.3333344	n/a	n/a	n/a	n/a	n/a	n/a	n/a	"2021-02-04 13:52:05.974877"	"2021-02-04 13:52:06.549584"	49	2.77712255
"S210204"	"Response_Selection"	"RIGHT"	"RIGHT"	289.054999999962	1350.0000027	n/a	n/a	n/a	n/a	n/a	n/a	n/a	"2021-02-04 13:52:07.908984"	"2021-02-04 13:52:08.405602"	50	2.77712255
"S210204"	"Response_Selection"	"RIGHT"	"RIGHT"	262.985599999979	1416.6666695	n/a	n/a	n/a	n/a	n/a	n/a	n/a	"2021-02-04 13:52:09.830426"	"2021-02-04 13:52:10.302448"	51	2.77712255
"S210204"	"Response_Selection"	"RIGHT"	"RIGHT"	272.559300000012	550.0000011	n/a	n/a	n/a	n/a	n/a	n/a	n/a	"2021-02-04 13:52:10.861654"	"2021-02-04 13:52:11.341882"	52	2.77712255
"S210204"	"Response_Selection"	"RIGHT"	"RIGHT"	263.857299999984	583.3333345	n/a	n/a	n/a	n/a	n/a	n/a	n/a	"2021-02-04 13:52:11.933864"	"2021-02-04 13:52:12.406106"	53	2.77712255
"S210204"	"Response_Selection"	"LEFT"	"LEFT"	262.535500000013	783.3333349	n/a	n/a	n/a	n/a	n/a	n/a	n/a	"2021-02-04 13:52:13.199023"	"2021-02-04 13:52:13.669632"	54	2.77712255
"S210204"	"Response_Selection"	"RIGHT"	"RIGHT"	242.088599999988	916.6666685	n/a	n/a	n/a	n/a	n/a	n/a	n/a	"2021-02-04 13:52:14.595495"	"2021-02-04 13:52:15.047077"	55	2.77712255
"S210204"	"Response_Selection"	"LEFT"	"LEFT"	253.067200000032	1416.6666695	n/a	n/a	n/a	n/a	n/a	n/a	n/a	"2021-02-04 13:52:16.472373"	"2021-02-04 13:52:16.935148"	56	2.77712255
"S210204"	"Response_Selection"	"LEFT"	"LEFT"	289.487300000019	1316.6666693	n/a	n/a	n/a	n/a	n/a	n/a	n/a	"2021-02-04 13:52:18.260875"	"2021-02-04 13:52:18.759016"	57	2.77712255
"S210204"	"Response_Selection"	"LEFT"	"LEFT"	249.782400000015	866.6666684	n/a	n/a	n/a	n/a	n/a	n/a	n/a	"2021-02-04 13:52:19.636203"	"2021-02-04 13:52:20.094144"	58	2.77712255
"S210204"	"Response_Selection"	"RIGHT"	"RIGHT"	249.045599999988	1116.6666689	n/a	n/a	n/a	n/a	n/a	n/a	n/a	"2021-02-04 13:52:21.221142"	"2021-02-04 13:52:21.678064"	59	2.77712255
"S210204"	"Response_Selection"	"LEFT"	"LEFT"	260.154999999997	683.3333347	n/a	n/a	n/a	n/a	n/a	n/a	n/a	"2021-02-04 13:52:22.370313"	"2021-02-04 13:52:22.838497"	60	2.77712255
"S210204"	"Response_Selection"	"RIGHT"	"RIGHT"	236.953000000028	650.0000013	n/a	n/a	n/a	n/a	n/a	n/a	n/a	"2021-02-04 13:52:23.496558"	"2021-02-04 13:52:23.942465"	61	2.77712255
"S210204"	"Response_Selection"	"RIGHT"	"RIGHT"	267.424399999982	883.3333351	n/a	n/a	n/a	n/a	n/a	n/a	n/a	"2021-02-04 13:52:24.834654"	"2021-02-04 13:52:25.309689"	62	2.77712255
"S210204"	"Response_Selection"	"RIGHT"	"RIGHT"	290.984499999979	1300.0000026	n/a	n/a	n/a	n/a	n/a	n/a	n/a	"2021-02-04 13:52:26.619471"	"2021-02-04 13:52:27.119100"	63	2.77712255
"S210204"	"Response_Selection"	"RIGHT"	"RIGHT"	374.26899999997	600.0000012	n/a	n/a	n/a	n/a	n/a	n/a	n/a	"2021-02-04 13:52:27.727738"	"2021-02-04 13:52:28.308803"	64	2.77712255
"S210204"	"Response_Selection"	"LEFT"	"LEFT"	273.846700000036	933.3333352	n/a	n/a	n/a	n/a	n/a	n/a	n/a	"2021-02-04 13:52:29.252585"	"2021-02-04 13:52:29.733870"	65	2.77712255
"S210204"	"Response_Selection"	"RIGHT"	"RIGHT"	267.037200000004	700.0000014	n/a	n/a	n/a	n/a	n/a	n/a	n/a	"2021-02-04 13:52:30.442520"	"2021-02-04 13:52:30.917859"	66	2.77712255
"S210204"	"Response_Selection"	"LEFT"	"LEFT"	288.155199999949	583.3333345	n/a	n/a	n/a	n/a	n/a	n/a	n/a	"2021-02-04 13:52:31.509661"	"2021-02-04 13:52:32.007302"	67	2.77712255
"S210204"	"Response_Selection"	"LEFT"	"LEFT"	278.297299999963	1366.6666694	n/a	n/a	n/a	n/a	n/a	n/a	n/a	"2021-02-04 13:52:33.383287"	"2021-02-04 13:52:33.868983"	68	2.77712255
"S210204"	"Response_Selection"	"LEFT"	"LEFT"	262.537000000009	1250.0000025	n/a	n/a	n/a	n/a	n/a	n/a	n/a	"2021-02-04 13:52:35.127513"	"2021-02-04 13:52:35.598364"	69	2.77712255
"S210204"	"Response_Selection"	"RIGHT"	"RIGHT"	288.026100000025	750.0000015	n/a	n/a	n/a	n/a	n/a	n/a	n/a	"2021-02-04 13:52:36.357940"	"2021-02-04 13:52:36.855435"	70	2.77712255
"S210204"	"Response_Selection"	"RIGHT"	"RIGHT"	253.655600000002	1216.6666691	n/a	n/a	n/a	n/a	n/a	n/a	n/a	"2021-02-04 13:52:38.080119"	"2021-02-04 13:52:38.540924"	71	2.77712255
"S210204"	"Response_Selection"	"RIGHT"	"RIGHT"	259.437999999989	1316.6666693	n/a	n/a	n/a	n/a	n/a	n/a	n/a	"2021-02-04 13:52:39.866910"	"2021-02-04 13:52:40.334241"	72	2.77712255
"S210204"	"Response_Selection"	"LEFT"	"LEFT"	327.364199999977	983.3333353	n/a	n/a	n/a	n/a	n/a	n/a	n/a	"2021-02-04 13:52:41.326775"	"2021-02-04 13:52:41.862218"	73	2.77712255
"S210204"	"Response_Selection"	"LEFT"	"LEFT"	331.479300000012	883.3333351	n/a	n/a	n/a	n/a	n/a	n/a	n/a	"2021-02-04 13:52:42.754063"	"2021-02-04 13:52:43.294524"	74	2.77712255
"S210204"	"Response_Selection"	"RIGHT"	"RIGHT"	279.692799999964	1366.6666694	n/a	n/a	n/a	n/a	n/a	n/a	n/a	"2021-02-04 13:52:44.670594"	"2021-02-04 13:52:45.158280"	75	2.77712255
"S210204"	"Response_Selection"	"RIGHT"	"RIGHT"	275.9997	1083.3333355	n/a	n/a	n/a	n/a	n/a	n/a	n/a	"2021-02-04 13:52:46.250263"	"2021-02-04 13:52:46.733575"	76	2.77712255
"S210204"	"Response_Selection"	"LEFT"	"LEFT"	263.030500000013	1166.666669	n/a	n/a	n/a	n/a	n/a	n/a	n/a	"2021-02-04 13:52:47.910513"	"2021-02-04 13:52:48.381003"	77	2.77712255
"S210204"	"Response_Selection"	"LEFT"	"LEFT"	275.455300000033	700.0000014	n/a	n/a	n/a	n/a	n/a	n/a	n/a	"2021-02-04 13:52:49.090664"	"2021-02-04 13:52:49.573896"	78	2.77712255
"S210204"	"Response_Selection"	"LEFT"	"LEFT"	285.592399999985	650.0000013	n/a	n/a	n/a	n/a	n/a	n/a	n/a	"2021-02-04 13:52:50.232629"	"2021-02-04 13:52:50.726539"	79	2.77712255
"S210204"	"Response_Selection"	"LEFT"	"LEFT"	291.10860000003	1466.6666696	n/a	n/a	n/a	n/a	n/a	n/a	n/a	"2021-02-04 13:52:52.202445"	"2021-02-04 13:52:52.701584"	80	2.77712255
