index	Trial_Type	Participant_ID	Trial_Probability	Question_Position_Prediction_Correct	Question_Position_Prediction_Agent	Question_Position_Comparison_Self	Question_Position_Comparison_Irrelevant	Trial_Stake	Trial_Stake_Jitter	Trial_Type_Jitter	Trial_Result_Jitter	Balance_Update_Jitter	Question_Comparison_Condition	Question_Comparison_Type	Question_Comparison_Question	Question_Comparison_Label	Question_Comparison_Item	Question_Comparison_Proportion_Yes	Question_Factual_Condition	Question_Factual_Item	Question_Factual_Question	Question_Factual_Label	Question_Factual_Proportion_DontKnow	Question_Factual_Type	Answer_Prediction_Correct	Answer_Prediction_Correct_RT	Answer_Prediction_Agent	Answer_Prediction_Agent_RT	Answer_Irrelevant	Answer_Irrelevant_RT	Answer_Self	Answer_Self_RT	Trial_Balance	Trial_Balance_Effect	Trial_Condition	Trial_ProbableSide	Prediction_Choice	Prediction_Result	Prediction_RT	Trial_Order	Trial_Datetime
69	Self	S210225	0.6666666666666666	1	2	2	1	0.6	1283.3333359	1000.000002	2500.000005	1933.3333372	Minor	Good_deeds	1	You have kept your promises	C1_53	0.85	Easy	I1_11	17	Singapore ranked 8th in World's smallest countries	0.611111111111111	Yes	RIGHT	541.0686999999825	RIGHT	512.4725000000012	LEFT	1965.994599999988	RIGHT	960.93860000002	10.6	0.6	Probable_Truth	RIGHT	RIGHT	6	903.9298000000144	0	2021-02-25 14:28:31.663399
116	Computer	S210225	0.6666666666666666	1	2	2	1	0.7	1066.6666688	1000.000002	2350.0000047	2066.6666708	Minor	Wrong_doings	54	You have intentionally let others cut in line	C1_27	0.0	Hard	I2_21	28	Earth's atmosphere extends up to 10,000km into space	0.0	Yes	LEFT	773.8530999999966	LEFT	511.7505999999708	RIGHT	2399.2642000000046	RIGHT	1990.65250000001	10.6	0.7	Probable_Lie	RIGHT	LEFT	4	987.5389079200588	1	2021-02-25 14:28:57.390521
111	Computer	S210225	0.5	2	1	2	1	0.4	1000.000002	1150.0000023	2500.000005	1783.3333369	Major	Wrong_doings	47	You have extorted money from anyone	C2_56	0.65	Easy	I2_53	33	The first Olympic Games was held in the 5th century B.C	0.0	Yes	LEFT	361.76160000002255	LEFT	660.4812000000493	RIGHT	1617.5219999999513	LEFT	1375.7750000000328	10.6	0.4	Probable_Lie	RIGHT	LEFT	5	736.7005394371919	2	2021-02-25 14:29:21.142344
80	Self	S210225	0.8333333333333334	1	2	1	2	0.7	1283.3333359	1150.0000023	1783.3333369	2500.000005	Major	Good_deeds	40	You have a non-judgmental attitude towards everyone	C2_40	0.05	Easy	I1_41	34	The sun rises at night	1.0	No	RIGHT	434.486800000002	RIGHT	432.4709999999641	LEFT	2568.821200000002	RIGHT	1950.179099999957	11.3	0.7	Probable_Truth	LEFT	LEFT	1	920.9417000000144	3	2021-02-25 14:29:46.736032
82	Self	S210225	0.8333333333333334	1	2	1	2	0.4	1433.3333362	1500.000003	1933.3333372	1650.0000033	Major	Wrong_doings	58	You have engaged in underage smoking	C1_30	0.7	Hard	I1_9	43	The Franco-Prussian War occurred in the 19th century	0.833333333333333	No	LEFT	572.51100000002	RIGHT	832.45119999998	RIGHT	2832.174100000032	LEFT	1753.7418000000002	10.9	0.4	Probable_Lie	RIGHT	RIGHT	1	780.0561000000243	4	2021-02-25 14:30:12.591862
52	Self	S210225	0.5	1	2	2	1	0.8	1216.6666691	1000.000002	2066.6666708	2066.6666708	Minor	Wrong_doings	37	You have done something against your values	C1_50	0.1	Hard	I1_12	12	It takes 500 days to travel from Earth to Mars	0.0	Yes	LEFT	620.5838999999855	RIGHT	321.20480000003226	RIGHT	1871.3482	LEFT	1495.2625999999896	10.099999999999998	0.8	Probable_Lie	RIGHT	LEFT	5	952.4983999999675	5	2021-02-25 14:30:36.775868
55	Self	S210225	0.5	1	2	2	1	0.7	1500.000003	1500.000003	2500.000005	2500.000005	Minor	Good_deeds	7	You have cheated on a national exam	C1_44	0.95	Hard	I1_54	54	Cernan was the second last man to walk on the Moon	0.722222222222222	No	RIGHT	530.9852000000319	RIGHT	311.6437999999562	LEFT	3317.75360000006	LEFT	1312.9449999998997	10.799999999999995	0.7	Probable_Truth	LEFT	RIGHT	4	897.6359000000116	6	2021-02-25 14:31:03.718356
30	Self	S210225	0.6666666666666666	2	1	2	1	0.2	1350.0000027	1000.000002	2350.0000047	2500.000005	Minor	Good_deeds	30	You have sheltered others from disasters	C1_29	0.95	Easy	I2_59	44	Red is a color	0.0	Yes	RIGHT	263.9638999999079	RIGHT	307.9837000000225	RIGHT	931.509300000016	RIGHT	1544.8763000000554	10.999999999999996	0.2	Probable_Truth	LEFT	LEFT	1	795.6907000000228	7	2021-02-25 14:31:27.334565
136	Computer	S210225	0.8333333333333334	2	1	1	2	0.7	1066.6666688	1150.0000023	2216.6666711000003	2066.6666708	Minor	Wrong_doings	12	You have said thank you when you have received help	C2_27	0.95	Easy	I2_18	45	Pyramid of Giza is 468 feet tall	1.0	No	LEFT	264.70449999999346	LEFT	723.5282999999981	RIGHT	2016.7697999999064	RIGHT	1592.2415999999655	10.999999999999996	0.7	Probable_Lie	RIGHT	LEFT	5	628.5771749401526	8	2021-02-25 14:31:51.630480
1	Self	S210225	0.5	1	2	1	2	0.4	1350.0000027	1283.3333359	1783.3333369	2216.6666711000003	Major	Wrong_doings	43	You have rescued others from a catastrophe	C2_43	1.0	Hard	I2_31	39	Summer is hotter than winter	0.833333333333333	No	RIGHT	369.4848000000093	RIGHT	536.6513999999825	RIGHT	1160.2208000000471	RIGHT	1199.8749000000544	11.399999999999997	0.4	Probable_Truth	LEFT	RIGHT	6	896.7470999999705	9	2021-02-25 14:32:14.999490
109	Computer	S210225	0.5	2	1	2	1	0.5	1433.3333362	1216.6666691	1500.000003	2066.6666708	Major	Wrong_doings	3	You have switched off appliances when not in use	C1_13	0.0	Hard	I2_2	53	Mexico's National Day is September 16	0.888888888888889	No	RIGHT	255.8877000000166	LEFT	831.4536000000317	RIGHT	2126.4672999999448	RIGHT	1542.9176000000098	11.399999999999997	0.5	Probable_Truth	LEFT	LEFT	2	947.9945445412508	10	2021-02-25 14:32:39.495883
59	Self	S210225	0.5	2	1	1	2	0.5	1216.6666691	1500.000003	2350.0000047	2500.000005	Major	Wrong_doings	60	You have gossiped about your best friend	C1_28	0.1	Hard	I1_25	4	It sometimes snows in Singapore	0.777777777777778	No	LEFT	256.41080000002603	RIGHT	963.2332999999562	LEFT	1552.6020999999446	LEFT	1471.527000000037	10.899999999999997	0.5	Probable_Lie	LEFT	LEFT	5	835.5298999999832	11	2021-02-25 14:33:04.711827
79	Self	S210225	0.6666666666666666	2	1	2	1	0.3	1433.3333362	1350.0000027	1500.000003	1500.000003	Minor	Good_deeds	22	You have attended all lectures as a student	C2_1	0.95	Hard	I2_12	24	The Seine river is 50 feet above sea level	0.0	Yes	RIGHT	296.91990000003443	RIGHT	381.4123000000791	RIGHT	2783.179599999926	RIGHT	1702.9043	11.199999999999998	0.3	Probable_Truth	RIGHT	RIGHT	4	954.667000000086	12	2021-02-25 14:33:29.183680
56	Self	S210225	0.5	2	1	1	2	0.1	1066.6666688	1433.3333362	2500.000005	2350.0000047	Minor	Good_deeds	50	You have been restricting your electricity consumption	C2_2	0.0	Easy	I1_53	8	Singapore is in Africa	0.0	No	LEFT	439.9167999999918	RIGHT	1123.7564999998997	LEFT	1215.5182000000195	RIGHT	1828.3771000000115	11.099999999999998	0.1	Probable_Lie	LEFT	RIGHT	1	1037.912600000027	13	2021-02-25 14:33:54.750376
39	Self	S210225	0.8333333333333334	1	2	2	1	0.5	1350.0000027	1066.6666688	2066.6666708	2066.6666708	Minor	Good_deeds	37	You have sorted your trash into recycling bin	C2_34	0.0	Hard	I1_48	22	The first Grammy awards was held in 1959	0.833333333333333	Yes	RIGHT	590.7291999999416	RIGHT	271.1954000000105	RIGHT	1303.189900000007	RIGHT	4534.813600000007	11.599999999999998	0.5	Probable_Truth	LEFT	LEFT	1	832.8963000000158	14	2021-02-25 14:34:21.407028
32	Self	S210225	0.8333333333333334	1	2	1	2	0.1	1150.0000023	1000.000002	1500.000003	2500.000005	Minor	Wrong_doings	48	You have helped your parents when asked to	C2_13	0.0	Easy	I2_54	42	There is typically 0.6 grams of mercury in glass thermometer	0.777777777777778	No	RIGHT	313.5206999999127	RIGHT	272.1447999999782	RIGHT	2903.3944999999903	RIGHT	2270.0914000000694	11.699999999999998	0.1	Probable_Truth	LEFT	LEFT	1	776.8641000000116	15	2021-02-25 14:34:46.670900
48	Self	S210225	0.5	1	2	1	2	0.3	1066.6666688	1150.0000023	2350.0000047	1500.000003	Major	Good_deeds	57	You have risked your life to save another person's life	C2_37	0.85	Hard	I2_39	55	It is 20th Century now	1.0	Yes	LEFT	931.5126999999848	RIGHT	448.6626999999999	LEFT	1199.9915999999755	RIGHT	1902.0918999999597	11.399999999999997	0.3	Probable_Lie	LEFT	RIGHT	3	958.0584999999928	16	2021-02-25 14:35:10.750817
9	Self	S210225	0.5	2	1	1	2	0.2	1000.000002	1283.3333359	2500.000005	2350.0000047	Minor	Wrong_doings	33	You have claimed doing things that you never did	C1_33	0.9	Hard	I1_31	31	There are 7 days in a week	1.0	No	LEFT	216.8662000000268	RIGHT	708.8937999999416	RIGHT	1288.6296000000357	LEFT	1548.500200000035	11.199999999999998	0.2	Probable_Lie	RIGHT	RIGHT	3	1080.1969000000329	17	2021-02-25 14:35:35.295044
85	Self	S210225	0.8333333333333334	1	2	2	1	0.6	1500.000003	1433.3333362	1500.000003	1500.000003	Major	Good_deeds	9	You have offered a listening ear to a friend	C1_57	0.05	Easy	I1_35	35	Some owl species hunt fish	0.0	Yes	RIGHT	316.0553000000164	RIGHT	319.09079999991263	RIGHT	2612.744599999928	RIGHT	1118.054899999947	11.799999999999995	0.6	Probable_Truth	RIGHT	RIGHT	3	891.3221999999905	18	2021-02-25 14:35:59.062381
135	Computer	S210225	0.8333333333333334	1	2	2	1	0.3	1150.0000023	1000.000002	2216.6666711000003	2350.0000047	Minor	Good_deeds	37	You have sorted your trash into recycling bin	C2_34	0.0	Hard	I1_48	22	The first Grammy awards was held in 1959	0.833333333333333	Yes	LEFT	632.819599999948	LEFT	598.8737999999785	RIGHT	1010.8745	RIGHT	1079.7086999999692	11.799999999999995	0.3	Probable_Lie	RIGHT	LEFT	6	897.2358219543082	19	2021-02-25 14:36:22.575135
81	Self	S210225	0.8333333333333334	1	2	1	2	0.2	1216.6666691	1216.6666691	1650.0000033	1783.3333369	Minor	Good_deeds	57	You have taken responsibility for your actions	C2_16	0.7	Easy	I2_35	9	A triangle has three sides	0.888888888888889	Yes	RIGHT	198.90029999999115	RIGHT	296.99670000002243	RIGHT	919.1480000000638	RIGHT	1243.8615999999456	11.999999999999996	0.2	Probable_Lie	LEFT	LEFT	2	877.7108000000453	20	2021-02-25 14:36:44.551039
24	Self	S210225	0.6666666666666666	2	1	1	2	0.7	1000.000002	1350.0000027	1933.3333372	2216.6666711000003	Minor	Good_deeds	8	You have bribed someone to improve a grade	C2_30	1.0	Easy	I2_4	43	There are 20 bones in the human skull	0.944444444444444	Yes	RIGHT	320.16729999998006	RIGHT	436.994200000072	LEFT	1663.7825999999905	LEFT	1623.548899999946	12.699999999999996	0.7	Probable_Truth	LEFT	LEFT	2	889.5832999999129	21	2021-02-25 14:37:08.558666
72	Self	S210225	0.6666666666666666	2	1	1	2	0.4	1000.000002	1000.000002	2350.0000047	2350.0000047	Minor	Good_deeds	35	You have complimented others for good work	C2_35	0.95	Easy	I1_58	58	There are 30 hours in a day	0.611111111111111	No	LEFT	176.18460000005598	RIGHT	665.332899999953	LEFT	823.7797000000455	RIGHT	1196.4177999999492	12.299999999999995	0.4	Probable_Lie	RIGHT	RIGHT	1	718.2616000000053	22	2021-02-25 14:37:31.414655
4	Self	S210225	0.5	1	2	2	1	0.6	1150.0000023	1216.6666691	1500.000003	1783.3333369	Minor	Good_deeds	43	You have given directions to a lost tourist	C2_53	0.0	Easy	I2_13	52	Feijoa is a type of grape	0.0	Yes	RIGHT	1085.7505000000174	RIGHT	760.5366999999887	LEFT	3043.5545000000275	RIGHT	2231.877000000054	12.899999999999997	0.6	Probable_Lie	LEFT	RIGHT	2	993.6357999999929	23	2021-02-25 14:37:57.750516
49	Self	S210225	0.5	1	2	1	2	0.2	1283.3333359	1433.3333362	1933.3333372	1783.3333369	Major	Good_deeds	50	You have been convicted in court	C2_6	0.05	Easy	I2_25	25	The human's inner ear is larger than a pencil eraser	0.722222222222222	No	RIGHT	394.104000000084	RIGHT	433.5596999999325	RIGHT	2792.028899999991	LEFT	1107.3992999999973	13.099999999999994	0.2	Probable_Truth	LEFT	RIGHT	5	996.7430000000376	24	2021-02-25 14:38:22.478391
15	Self	S210225	0.5	2	1	2	1	0.1	1283.3333359	1350.0000027	1650.0000033	1650.0000033	Major	Wrong_doings	47	You have extorted money from anyone	C2_56	0.65	Easy	I2_53	33	The first Olympic Games was held in the 5th century B.C	0.0	Yes	LEFT	775.9856000000127	RIGHT	1188.6044999999967	RIGHT	1319.6903000000475	LEFT	832.2359000000006	12.999999999999996	0.1	Probable_Lie	RIGHT	RIGHT	1	855.3314000000682	25	2021-02-25 14:38:45.958322
114	Computer	S210225	0.6666666666666666	1	2	1	2	0.8	1283.3333359	1350.0000027	2500.000005	2350.0000047	Minor	Wrong_doings	28	You have engaged in arson	C2_23	0.0	Easy	I1_52	10	Algeria is Africa's second largest country	0.944444444444444	No	LEFT	1103.4717999999657	LEFT	493.672800000013	RIGHT	1912.0699999999715	LEFT	989.9438999999576	12.999999999999996	0.8	Probable_Lie	LEFT	RIGHT	2	800.1154716960737	26	2021-02-25 14:39:11.311251
64	Self	S210225	0.6666666666666666	1	2	1	2	0.1	1500.000003	1283.3333359	2066.6666708	2350.0000047	Minor	Good_deeds	39	You have shown your appreciation to your teachers	C1_15	0.0	Hard	I2_38	40	Beef comes from cows	0.0	Yes	RIGHT	364.45449999996526	RIGHT	216.97870000002692	RIGHT	1104.6633000000838	RIGHT	2113.9806999999564	13.099999999999994	0.1	Probable_Truth	RIGHT	RIGHT	6	737.0773999999756	27	2021-02-25 14:39:35.622903
88	Self	S210225	0.8333333333333334	2	1	1	2	0.5	1350.0000027	1000.000002	1783.3333369	2500.000005	Minor	Wrong_doings	23	You have borrowed things and never returned	C1_14	0.0	Hard	I2_50	41	February has 30 days	0.611111111111111	Yes	RIGHT	232.7181999999084	RIGHT	274.4261000000279	LEFT	936.588299999812	LEFT	1671.6338999999607	13.599999999999994	0.5	Probable_Truth	RIGHT	RIGHT	3	1001.0303000001386	28	2021-02-25 14:39:58.943087
70	Self	S210225	0.6666666666666666	1	2	2	1	0.4	1216.6666691	1350.0000027	1933.3333372	2500.000005	Minor	Wrong_doings	15	You have eaten something in the MRT train	C2_14	0.0	Hard	I2_1	36	A square has 3 corners	0.833333333333333	Yes	RIGHT	427.0207999998093	RIGHT	240.3818999998748	LEFT	1556.998399999884	LEFT	1175.206800000069	13.999999999999996	0.4	Probable_Lie	LEFT	LEFT	3	1045.3185999999732	29	2021-02-25 14:40:22.966828
90	Self	S210225	0.8333333333333334	2	1	1	2	0.1	1216.6666691	1150.0000023	2350.0000047	2216.6666711000003	Minor	Wrong_doings	42	You have engaged in drink-driving	C2_45	0.8	Easy	I2_3	26	The hardest bone in human body is the jawbone	0.0	No	RIGHT	230.16469999993205	RIGHT	308.6170999999922	RIGHT	3536.243400000103	LEFT	1170.147199999974	14.099999999999994	0.1	Probable_Truth	LEFT	LEFT	1	760.1540000000568	30	2021-02-25 14:40:48.478484
118	Computer	S210225	0.6666666666666666	1	2	2	1	0.6	1433.3333362	1216.6666691	2216.6666711000003	1783.3333369	Major	Good_deeds	27	You have participated in a scamming business	C2_54	0.85	Hard	I2_28	3	December is the last month of the year	0.666666666666667	No	RIGHT	514.7131999999601	LEFT	120.7941000000119	RIGHT	1052.3008000000118	LEFT	1438.3146000000124	14.099999999999994	0.6	Probable_Truth	RIGHT	RIGHT	4	909.784051091512	31	2021-02-25 14:41:11.742511
87	Self	S210225	0.8333333333333334	1	2	2	1	0.1	1150.0000023	1350.0000027	2500.000005	1933.3333372	Minor	Wrong_doings	45	You have cursed at your loved ones	C1_45	0.0	Easy	I2_49	41	Lehman Brothers went bankrupt on 20th September	0.0555555555555556	Yes	RIGHT	348.8791999998284	RIGHT	231.9049999998697	RIGHT	4305.345299999999	LEFT	1800.150799999983	14.199999999999994	0.1	Probable_Truth	LEFT	LEFT	1	816.3475000001199	32	2021-02-25 14:41:38.758347
99	Computer	S210225	0.5	1	2	1	2	0.2	1150.0000023	1433.3333362	1933.3333372	2066.6666708	Minor	Wrong_doings	20	You have illegally stayed in a country	C1_20	0.0	Hard	I1_24	24	A dog has four legs	0.833333333333333	Yes	LEFT	1043.046099999856	LEFT	288.49160000004304	RIGHT	822.7045999999518	LEFT	1063.030000000026	14.199999999999994	0.2	Probable_Lie	RIGHT	LEFT	5	541.2241587124008	33	2021-02-25 14:42:01.662034
94	Self	S210225	0.8333333333333334	2	1	2	1	0.4	1433.3333362	1500.000003	2500.000005	1650.0000033	Major	Wrong_doings	11	You have provided shelter for stray animals	C1_31	0.2	Hard	I1_13	38	It is night time now	0.0	Yes	RIGHT	231.5095000001293	RIGHT	310.89750000001004	LEFT	1255.5076000001009	RIGHT	1160.144199999877	14.599999999999994	0.4	Probable_Truth	LEFT	LEFT	1	779.9775999999383	34	2021-02-25 14:42:25.056031
17	Self	S210225	0.6666666666666666	1	2	1	2	0.4	1216.6666691	1433.3333362	2350.0000047	1783.3333369	Major	Good_deeds	58	You have volunteered for a disaster-related humanitarian mission	C1_58	0.65	Easy	I2_40	21	Bears have the biggest eyes among mammals	0.944444444444444	Yes	RIGHT	644.2090999998982	RIGHT	823.9324000001034	LEFT	2903.298199999881	RIGHT	1283.542400000215	14.999999999999996	0.4	Probable_Truth	LEFT	LEFT	1	1069.5313999999598	35	2021-02-25 14:42:51.134782
98	Computer	S210225	0.5	1	2	1	2	0.8	1433.3333362	1150.0000023	1650.0000033	1650.0000033	Minor	Good_deeds	35	You have coveted things that belong to others	C2_20	0.45	Hard	I1_44	13	Marijuana is legal in Singapore	0.888888888888889	No	LEFT	810.9101999998529	LEFT	39.85719999991488	LEFT	881.0455000000275	LEFT	2304.9473999999464	14.999999999999996	0.8	Probable_Lie	LEFT	LEFT	4	681.3554012002187	36	2021-02-25 14:43:14.302687
132	Computer	S210225	0.8333333333333334	1	2	2	1	0.8	1350.0000027	1216.6666691	1933.3333372	1650.0000033	Minor	Good_deeds	52	You have bought cigarettes for a minor	C1_11	0.7	Hard	I2_22	48	Last day of the year is 30th December	0.944444444444444	No	LEFT	1174.0935000000263	LEFT	439.2378000000008	LEFT	1825.6870000000165	LEFT	1062.4834999998711	14.999999999999996	0.8	Probable_Lie	RIGHT	LEFT	4	654.9668725499924	37	2021-02-25 14:43:38.174277
0	Self	S210225	0.5	1	2	1	2	0.5	1216.6666691	1500.000003	2216.6666711000003	2350.0000047	Minor	Wrong_doings	8	You have pretended to be busy to avoid a social situation	C1_8	1.0	Easy	I2_52	44	Teddy Roosevelt was the youngest US President	0.777777777777778	No	LEFT	849.5099000001574	RIGHT	519.2744000000857	RIGHT	3302.943000000141	RIGHT	4931.193099999973	14.499999999999996	0.5	Probable_Lie	RIGHT	LEFT	6	980.451500000072	38	2021-02-25 14:44:08.614549
54	Self	S210225	0.5	1	2	2	1	0.5	1433.3333362	1350.0000027	2216.6666711000003	2350.0000047	Major	Wrong_doings	4	You have cursed at others	C1_4	0.9	Easy	I1_14	58	Cleopatra was born in Greece	0.0	Yes	RIGHT	364.3868999999995	RIGHT	230.71810000010373	RIGHT	1186.8136000000504	LEFT	1047.658599999977	14.999999999999996	0.5	Probable_Truth	RIGHT	LEFT	1	953.5212000000683	39	2021-02-25 14:44:32.326734
50	Self	S210225	0.5	1	2	1	2	0.6	1150.0000023	1283.3333359	1650.0000033	1650.0000033	Minor	Good_deeds	6	You have stopped using products tested on animals	C1_7	0.05	Hard	I2_55	46	The current century is 21st	0.666666666666667	Yes	RIGHT	877.850399999943	RIGHT	480.96110000005865	RIGHT	872.7943000001233	RIGHT	4175.814400000036	15.599999999999994	0.6	Probable_Lie	RIGHT	LEFT	5	1115.29819999987	40	2021-02-25 14:44:58.158986
41	Self	S210225	0.8333333333333334	2	1	1	2	0.1	1500.000003	1150.0000023	2216.6666711000003	2350.0000047	Minor	Good_deeds	39	You have made someone cry	C2_36	0.0	Hard	I2_6	15	The hyoid bone is the only jointless bone	0.944444444444444	Yes	RIGHT	376.63990000010017	RIGHT	598.1163999999808	RIGHT	3392.655999999988	LEFT	2178.9481000000706	15.699999999999994	0.1	Probable_Truth	RIGHT	RIGHT	4	1710.584799999879	41	2021-02-25 14:45:26.207245
119	Computer	S210225	0.6666666666666666	1	2	2	1	0.3	1216.6666691	1150.0000023	1933.3333372	1650.0000033	Minor	Wrong_doings	3	You have started a hotline for victims of bully	C1_3	0.05	Easy	I1_47	52	It is snowing outside now	0.0	No	RIGHT	896.1028000001079	LEFT	592.3252000000048	LEFT	1277.8966999999284	LEFT	3326.075899999978	15.699999999999994	0.3	Probable_Truth	LEFT	RIGHT	6	990.1804763235154	42	2021-02-25 14:45:51.805769
137	Computer	S210225	0.8333333333333334	2	1	1	2	0.8	1283.3333359	1066.6666688	2500.000005	1650.0000033	Minor	Good_deeds	39	You have made someone cry	C2_36	0.0	Hard	I2_6	15	The hyoid bone is the only jointless bone	0.944444444444444	Yes	RIGHT	637.7823000000262	RIGHT	391.68880000011086	RIGHT	960.7140000000528	LEFT	1135.967900000196	16.499999999999993	0.8	Probable_Truth	RIGHT	RIGHT	5	959.1142730360052	43	2021-02-25 14:46:14.966091
35	Self	S210225	0.8333333333333334	1	2	1	2	0.8	1216.6666691	1216.6666691	1933.3333372	1500.000003	Major	Wrong_doings	18	You have donated blood every 6 months for many years	C1_48	0.1	Easy	I1_32	32	Today is Sunday	0.0	Yes	RIGHT	659.9647999998979	RIGHT	239.83529999986783	LEFT	1265.388699999903	RIGHT	3844.1246999998384	17.299999999999994	0.8	Probable_Lie	LEFT	LEFT	4	829.2595999998866	44	2021-02-25 14:46:40.245789
102	Computer	S210225	0.5	1	2	2	1	0.5	1000.000002	1350.0000027	1500.000003	2500.000005	Major	Good_deeds	20	You have helped a friend in need	C1_43	0.7	Easy	I1_39	26	Penguin can fly with their wings	0.0555555555555556	Yes	LEFT	1403.9869999999155	LEFT	367.9895000000215	LEFT	2043.7056000000664	RIGHT	991.2131999999474	17.299999999999994	0.5	Probable_Lie	RIGHT	RIGHT	1	644.2963980614946	45	2021-02-25 14:47:04.622627
2	Self	S210225	0.5	1	2	1	2	0.3	1000.000002	1000.000002	2066.6666708	2066.6666708	Minor	Good_deeds	35	You have coveted things that belong to others	C2_20	0.45	Hard	I1_44	13	Marijuana is legal in Singapore	0.888888888888889	No	LEFT	925.589700000046	RIGHT	424.9633999997968	LEFT	2233.186100000012	LEFT	1495.3146000000288	16.999999999999993	0.3	Probable_Lie	RIGHT	LEFT	5	944.946200000004	46	2021-02-25 14:47:29.351209
125	Computer	S210225	0.6666666666666666	2	1	2	1	0.4	1433.3333362	1066.6666688	2216.6666711000003	2066.6666708	Minor	Good_deeds	38	You have adopted a zero-waste lifestyle	C2_42	0.0	Hard	I1_50	11	Malay is one of the races in Singapore	0.888888888888889	No	LEFT	46.80250000001252	LEFT	991.4052000001448	RIGHT	1191.032700000051	RIGHT	1303.9481000000706	16.999999999999993	0.4	Probable_Lie	RIGHT	LEFT	5	647.3133598838962	47	2021-02-25 14:47:52.885395
143	Computer	S210225	0.8333333333333334	2	1	2	1	0.2	1500.000003	1433.3333362	2350.0000047	2216.6666711000003	Major	Wrong_doings	33	You have given up your seat in the MRT	C1_12	0.95	Hard	I2_23	19	Cheese is an Asian staple	0.0	Yes	LEFT	230.00920000004044	LEFT	993.5668999999052	LEFT	1642.7016000000094	RIGHT	1078.7285999999767	16.999999999999993	0.2	Probable_Lie	LEFT	RIGHT	1	829.7192653039874	48	2021-02-25 14:48:43.327101
122	Computer	S210225	0.6666666666666666	2	1	1	2	0.7	1000.000002	1500.000003	2500.000005	1500.000003	Major	Wrong_doings	40	You have fabricated facts about yourself	C2_8	0.05	Hard	I2_44	4	Christmas Day is in March	0.0	Yes	LEFT	216.4517000001069	LEFT	725.5127000000812	LEFT	1264.492700000119	LEFT	1259.7917000000507	16.999999999999993	0.7	Probable_Lie	RIGHT	RIGHT	2	821.4441804827131	49	2021-02-25 14:49:06.688054
23	Self	S210225	0.6666666666666666	1	2	2	1	0.8	1500.000003	1350.0000027	1650.0000033	2350.0000047	Minor	Wrong_doings	3	You have started a hotline for victims of bully	C1_3	0.05	Easy	I1_47	52	It is snowing outside now	0.0	No	LEFT	743.6451999999463	RIGHT	447.4370999998882	LEFT	1234.958100000085	LEFT	2088.364899999988	16.199999999999992	0.8	Probable_Lie	RIGHT	RIGHT	2	1341.1346000000322	50	2021-02-25 14:49:31.966069
93	Self	S210225	0.8333333333333334	2	1	2	1	0.7	1283.3333359	1283.3333359	1933.3333372	2066.6666708	Major	Wrong_doings	45	You have confessed to your mistake	C2_29	0.05	Hard	I2_26	13	Mozambique is the world's poorest country	0.833333333333333	No	LEFT	376.0340999999698	RIGHT	709.4449999999597	LEFT	4805.396900000005	RIGHT	1048.066800000015	15.499999999999991	0.7	Probable_Lie	RIGHT	RIGHT	1	838.1290999998328	51	2021-02-25 14:49:58.886023
37	Self	S210225	0.8333333333333334	1	2	2	1	0.3	1500.000003	1500.000003	2350.0000047	1933.3333372	Major	Wrong_doings	11	You have downloaded pirated movies	C1_37	0.05	Easy	I2_51	1	Carnivore refers to meat-eater	0.0	Yes	RIGHT	1354.3177999999898	RIGHT	304.9314999998387	RIGHT	1582.6492999999573	LEFT	1472.9222000000846	15.799999999999994	0.3	Probable_Truth	LEFT	LEFT	1	1176.72790000006	52	2021-02-25 14:50:24.630705
29	Self	S210225	0.6666666666666666	2	1	2	1	0.4	1216.6666691	1066.6666688	1500.000003	1650.0000033	Minor	Good_deeds	38	You have adopted a zero-waste lifestyle	C2_42	0.0	Hard	I1_50	11	Malay is one of the races in Singapore	0.888888888888889	No	RIGHT	848.1804000000466	RIGHT	395.6606000001557	RIGHT	784.6299000000272	RIGHT	767.0977000000221	16.199999999999992	0.4	Probable_Truth	RIGHT	RIGHT	3	1402.4062999999387	53	2021-02-25 14:50:46.838144
84	Self	S210225	0.8333333333333334	1	2	2	1	0.3	1000.000002	1066.6666688	2350.0000047	2350.0000047	Major	Wrong_doings	26	You have taken months off to volunteer	C2_26	1.0	Hard	I2_43	49	R. Amundsen discovered the South Pole	0.888888888888889	Yes	RIGHT	987.4721000001044	RIGHT	280.09610000003704	LEFT	2396.454100000028	RIGHT	1408.4731999998894	16.499999999999993	0.3	Probable_Lie	LEFT	LEFT	5	742.6399000000856	54	2021-02-25 14:51:11.989516
51	Self	S210225	0.5	1	2	1	2	0.1	1000.000002	1066.6666688	1783.3333369	1933.3333372	Major	Wrong_doings	44	You have held the door open for a stranger	C2_57	1.0	Easy	I2_58	39	The Moon orbits around the Earth	0.0555555555555556	No	LEFT	625.183399999969	RIGHT	720.2830000001086	Time_Max_Exceeded	5000.242200000002	RIGHT	3917.625199999975	16.39999999999999	0.1	Probable_Lie	LEFT	RIGHT	1	2428.956699999844	55	2021-02-25 14:51:43.038358
22	Self	S210225	0.6666666666666666	1	2	2	1	0.6	1000.000002	1000.000002	1933.3333372	2066.6666708	Major	Good_deeds	27	You have participated in a scamming business	C2_54	0.85	Hard	I2_28	3	December is the last month of the year	0.666666666666667	No	RIGHT	211.44440000011852	RIGHT	223.75499999998283	RIGHT	878.8042000001042	LEFT	1230.7129000000714	16.999999999999993	0.6	Probable_Truth	LEFT	LEFT	1	1042.808100000002	56	2021-02-25 14:52:05.206012
53	Self	S210225	0.5	1	2	2	1	0.4	1350.0000027	1216.6666691	1500.000003	2216.6666711000003	Minor	Wrong_doings	9	You have helped with household chores	C2_9	0.0	Easy	I1_46	14	Obama is the USA president now	0.0	No	LEFT	788.0715999999666	RIGHT	390.6064000000242	LEFT	1278.574400000025	RIGHT	1248.1217000001834	16.599999999999994	0.4	Probable_Lie	RIGHT	LEFT	6	1063.8632000000143	57	2021-02-25 14:52:28.837464
140	Computer	S210225	0.8333333333333334	2	1	2	1	0.5	1433.3333362	1283.3333359	1650.0000033	1933.3333372	Minor	Good_deeds	36	You have started a movement to support a cause	C2_10	0.8	Easy	I1_60	23	Brazil is in South America	0.111111111111111	Yes	LEFT	504.3014999998832	LEFT	1541.9592999999168	RIGHT	3314.95730000006	RIGHT	1286.9508000001133	16.599999999999994	0.5	Probable_Truth	LEFT	RIGHT	2	651.4869548181806	58	2021-02-25 14:52:55.006087
44	Self	S210225	0.8333333333333334	2	1	2	1	0.8	1216.6666691	1433.3333362	2066.6666708	2216.6666711000003	Minor	Good_deeds	36	You have started a movement to support a cause	C2_10	0.8	Easy	I1_60	23	Brazil is in South America	0.111111111111111	Yes	LEFT	231.57540000011068	RIGHT	661.7261999999755	RIGHT	1017.5000000001546	RIGHT	2712.05329999998	15.799999999999994	0.8	Probable_Lie	RIGHT	RIGHT	1	807.1463999999651	59	2021-02-25 14:53:19.942099
36	Self	S210225	0.8333333333333334	1	2	2	1	0.7	1433.3333362	1433.3333362	1650.0000033	1650.0000033	Minor	Good_deeds	52	You have bought cigarettes for a minor	C1_11	0.7	Hard	I2_22	48	Last day of the year is 30th December	0.944444444444444	No	RIGHT	453.228000000081	RIGHT	224.36880000009296	LEFT	1872.9697000001124	LEFT	824.3953999999576	16.499999999999993	0.7	Probable_Truth	LEFT	LEFT	1	914.617299999918	60	2021-02-25 14:53:42.973615
115	Computer	S210225	0.6666666666666666	1	2	1	2	0.2	1000.000002	1500.000003	2066.6666708	1933.3333372	Major	Good_deeds	23	You have failed to keep promises	C2_28	0.85	Hard	I1_10	16	Mageirocophobia is a fear of deathly disease	0.666666666666667	Yes	RIGHT	775.3797999998824	LEFT	238.73060000005356	RIGHT	3512.1374000000287	LEFT	1164.6680999999717	16.499999999999993	0.2	Probable_Truth	RIGHT	RIGHT	5	567.102049735614	61	2021-02-25 14:54:08.301393
106	Computer	S210225	0.5	2	1	1	2	0.8	1150.0000023	1066.6666688	1933.3333372	2350.0000047	Major	Good_deeds	60	You have deceived a loved one	C2_60	0.55	Hard	I1_6	2	There are 10 continents in the World	0.777777777777778	No	LEFT	16.793600000028164	LEFT	313.1147999999939	LEFT	1558.789600000182	LEFT	2092.232700000068	16.499999999999993	0.8	Probable_Lie	RIGHT	RIGHT	3	987.9276245776914	62	2021-02-25 14:54:32.336161
78	Self	S210225	0.6666666666666666	2	1	2	1	0.1	1216.6666691	1066.6666688	2216.6666711000003	1650.0000033	Major	Wrong_doings	46	You have been sued	C1_59	1.0	Hard	I2_17	5	Vegetarians can eat vegetable products	0.944444444444444	No	RIGHT	225.45289999993656	RIGHT	295.19409999988966	RIGHT	2503.683500000079	LEFT	872.4298000001909	16.599999999999994	0.1	Probable_Truth	LEFT	LEFT	2	1168.9106000001177	63	2021-02-25 14:54:56.125876
110	Computer	S210225	0.5	2	1	2	1	0.2	1216.6666691	1500.000003	1650.0000033	1650.0000033	Minor	Good_deeds	56	You have queued to enter the MRT train	C1_19	0.05	Easy	I2_33	56	The Amazon forest covers an area of 1 billion acres	0.0	No	RIGHT	104.22650000009526	LEFT	848.323100000016	LEFT	3600.501900000154	RIGHT	2072.000200000048	16.599999999999994	0.2	Probable_Truth	RIGHT	RIGHT	4	965.2677822657064	64	2021-02-25 14:55:22.303683
57	Self	S210225	0.5	2	1	1	2	0.2	1000.000002	1150.0000023	1783.3333369	1783.3333369	Major	Good_deeds	34	You have helped others to pick up their belongings	C2_50	0.45	Hard	I1_4	27	Beer is an alcoholic drink	0.0	Yes	LEFT	256.8674999999985	RIGHT	799.8881000000893	RIGHT	855.2065999999741	RIGHT	2420.053699999926	16.399999999999995	0.2	Probable_Lie	LEFT	LEFT	4	2062.5223000001824	65	2021-02-25 14:55:46.989788
75	Self	S210225	0.6666666666666666	2	1	1	2	0.2	1283.3333359	1150.0000023	1933.3333372	2216.6666711000003	Major	Wrong_doings	5	You have made counterfeit money	C2_19	0.2	Hard	I1_57	12	Statute of Liberty is in New York	0.0	Yes	RIGHT	32.642699999996694	RIGHT	179.1992000000846	RIGHT	1200.1309000002038	LEFT	1080.424799999946	16.599999999999994	0.2	Probable_Truth	LEFT	LEFT	2	1032.3106999999254	66	2021-02-25 14:56:09.670472
139	Computer	S210225	0.8333333333333334	2	1	1	2	0.6	1150.0000023	1000.000002	2066.6666708	1500.000003	Major	Good_deeds	27	You have engaged in money laundering	C1_16	0.0	Easy	I2_5	18	The Eiffel Tower is in Paris	0.0	No	RIGHT	329.46930000002794	LEFT	745.1931000000513	RIGHT	2112.6195000001644	LEFT	2206.194400000186	16.599999999999994	0.6	Probable_Truth	RIGHT	LEFT	1	500.2570500122597	67	2021-02-25 14:56:33.845690
89	Self	S210225	0.8333333333333334	2	1	1	2	0.2	1000.000002	1216.6666691	1650.0000033	2350.0000047	Minor	Good_deeds	31	You have assisted in a crime	C2_11	1.0	Easy	I2_41	2	Arabi is the oldest surviving breed of horse	0.888888888888889	Yes	LEFT	663.8208000003942	RIGHT	894.138600000133	RIGHT	2775.6281000001763	LEFT	1660.550300000068	16.399999999999995	0.2	Probable_Lie	RIGHT	RIGHT	1	1285.9514000001582	68	2021-02-25 14:56:59.916277
129	Computer	S210225	0.8333333333333334	1	2	1	2	0.7	1216.6666691	1433.3333362	2066.6666708	1933.3333372	Major	Wrong_doings	13	You have sold illegal drugs	C2_52	0.75	Hard	I1_21	51	Milwaukee Art Museum is located in California	0.666666666666667	Yes	LEFT	889.35790000005	LEFT	256.2238000000434	RIGHT	2032.833700000083	LEFT	2276.0080000002745	16.399999999999995	0.7	Probable_Lie	LEFT	RIGHT	1	763.9501972559176	69	2021-02-25 14:57:25.356959
19	Self	S210225	0.6666666666666666	1	2	1	2	0.3	1283.3333359	1066.6666688	2216.6666711000003	1500.000003	Major	Good_deeds	23	You have failed to keep promises	C2_28	0.85	Hard	I1_10	16	Mageirocophobia is a fear of deathly disease	0.666666666666667	Yes	RIGHT	88.12769999985903	RIGHT	222.831000000042	RIGHT	1319.155900000169	LEFT	1335.159499999918	16.699999999999996	0.3	Probable_Truth	LEFT	LEFT	1	714.9703000000045	70	2021-02-25 14:57:47.677593
60	Self	S210225	0.5	2	1	2	1	0.4	1350.0000027	1000.000002	2066.6666708	1500.000003	Minor	Good_deeds	28	You have taken part in burglary	C2_59	0.65	Easy	I2_60	25	Saturn's rings are between 30 and 300 feet thick	0.888888888888889	Yes	LEFT	31.72679999988759	RIGHT	925.0167000000148	RIGHT	3532.922800000051	LEFT	1343.486099999609	16.299999999999997	0.4	Probable_Lie	LEFT	RIGHT	3	1091.4867999999842	71	2021-02-25 14:58:13.093505
3	Self	S210225	0.5	1	2	1	2	0.7	1500.000003	1066.6666688	1933.3333372	1650.0000033	Minor	Wrong_doings	20	You have illegally stayed in a country	C1_20	0.0	Hard	I1_24	24	A dog has four legs	0.833333333333333	Yes	LEFT	829.5594999999594	RIGHT	360.6733000001441	RIGHT	752.3842999999033	LEFT	992.3294000000168	15.599999999999998	0.7	Probable_Lie	LEFT	LEFT	4	1432.7188000002025	72	2021-02-25 14:58:36.180677
46	Self	S210225	0.8333333333333334	2	1	2	1	0.3	1433.3333362	1350.0000027	2350.0000047	2500.000005	Major	Wrong_doings	10	You have bribed a police officer	C1_39	0.0	Hard	I1_15	5	Hot chocolate was created by the Mayan culture	0.0555555555555556	Yes	RIGHT	209.3344999998408	RIGHT	194.7546000001239	RIGHT	2512.6979000001484	LEFT	824.3936999997459	15.9	0.3	Probable_Truth	RIGHT	RIGHT	3	1017.115300000114	73	2021-02-25 14:59:01.141619
74	Self	S210225	0.6666666666666666	2	1	1	2	0.5	1350.0000027	1283.3333359	1783.3333369	2500.000005	Minor	Good_deeds	59	You have started an NGO using your savings	C2_38	0.55	Easy	I1_5	48	Nomophobia is the fear of being without a phone or computer	0.0	Yes	RIGHT	1137.2040999999626	RIGHT	570.1683000002049	RIGHT	4344.24829999989	RIGHT	3068.899099999726	16.4	0.5	Probable_Truth	RIGHT	RIGHT	5	847.3598000000493	74	2021-02-25 14:59:30.597269
108	Computer	S210225	0.5	2	1	2	1	0.6	1350.0000027	1283.3333359	2350.0000047	2500.000005	Major	Good_deeds	17	You have sign up to sponsor a needy child	C2_17	0.0	Hard	I2_56	37	Singapore has four seasons	0.111111111111111	Yes	LEFT	342.8782000000865	LEFT	890.5856999999742	LEFT	1405.5246000002626	RIGHT	1486.809500000163	16.4	0.6	Probable_Lie	LEFT	LEFT	6	640.3254280821469	75	2021-02-25 14:59:55.412867
130	Computer	S210225	0.8333333333333334	1	2	1	2	0.4	1433.3333362	1500.000003	2350.0000047	2500.000005	Major	Good_deeds	24	You have lost everything just to help others	C2_18	1.0	Easy	I1_1	21	The Earth turns the closest to the sun in May	0.0555555555555556	No	LEFT	601.5743000002658	LEFT	16.055099999903177	LEFT	3687.2267000003376	LEFT	2536.270799999784	16.4	0.4	Probable_Lie	RIGHT	LEFT	6	818.005827135542	76	2021-02-25 15:00:23.429869
83	Self	S210225	0.8333333333333334	1	2	1	2	0.8	1350.0000027	1283.3333359	2216.6666711000003	2066.6666708	Minor	Wrong_doings	30	You have blackmailed others for money	C2_58	0.95	Hard	I1_28	35	Singapore is a country	0.0	No	RIGHT	230.90060000004087	RIGHT	215.8549000000676	RIGHT	912.86429999991	LEFT	916.5906000002906	17.2	0.8	Probable_Lie	LEFT	LEFT	3	779.5325000001867	77	2021-02-25 15:00:45.980647
12	Self	S210225	0.5	2	1	2	1	0.5	1500.000003	1216.6666691	2350.0000047	1783.3333369	Major	Good_deeds	17	You have sign up to sponsor a needy child	C2_17	0.0	Hard	I2_56	37	Singapore has four seasons	0.111111111111111	Yes	RIGHT	233.5865999998532	RIGHT	284.41630000043006	LEFT	1066.9348999999784	RIGHT	2416.123599999992	17.7	0.5	Probable_Truth	LEFT	LEFT	3	1210.851299999831	78	2021-02-25 15:01:10.613193
34	Self	S210225	0.8333333333333334	1	2	1	2	0.6	1283.3333359	1350.0000027	2216.6666711000003	1783.3333369	Major	Good_deeds	24	You have lost everything just to help others	C2_18	1.0	Easy	I1_1	21	The Earth turns the closest to the sun in May	0.0555555555555556	No	RIGHT	214.40430000029664	RIGHT	209.2185999999856	RIGHT	1527.8360000002067	LEFT	1836.062700000184	18.3	0.6	Probable_Lie	LEFT	LEFT	5	799.2279000000053	79	2021-02-25 15:01:34.406237
38	Self	S210225	0.8333333333333334	1	2	2	1	0.4	1000.000002	1283.3333359	2500.000005	2350.0000047	Minor	Good_deeds	34	You have violated a traffic law	C1_24	0.85	Hard	I2_42	54	Today is a weekday	0.0	No	LEFT	901.4388999999028	RIGHT	376.9123000001855	RIGHT	1306.6208000000188	LEFT	854.7223999999005	17.900000000000002	0.4	Probable_Lie	RIGHT	RIGHT	1	1187.7862999999709	80	2021-02-25 15:01:58.740366
96	Computer	S210225	0.5	1	2	1	2	0.7	1066.6666688	1000.000002	2350.0000047	1933.3333372	Minor	Wrong_doings	8	You have pretended to be busy to avoid a social situation	C1_8	1.0	Easy	I2_52	44	Teddy Roosevelt was the youngest US President	0.777777777777778	No	LEFT	468.67059999976846	LEFT	679.6064000000115	RIGHT	1304.1108000002168	RIGHT	2771.722100000261	17.900000000000002	0.7	Probable_Lie	RIGHT	LEFT	4	765.4149792727732	81	2021-02-25 15:02:23.653863
61	Self	S210225	0.5	2	1	2	1	0.3	1283.3333359	1350.0000027	2216.6666711000003	1650.0000033	Minor	Good_deeds	2	You have returned your trays in food courts	C1_6	0.0	Easy	I2_27	33	Astatine is the rarest element in the Earth's crust	0.833333333333333	Yes	RIGHT	64.62860000010551	RIGHT	414.9333000000297	RIGHT	3127.9162999999244	RIGHT	1455.7808000004115	18.200000000000003	0.3	Probable_Truth	LEFT	RIGHT	4	1166.5592999997898	82	2021-02-25 15:02:48.957301
124	Computer	S210225	0.6666666666666666	2	1	2	1	0.6	1500.000003	1283.3333359	1500.000003	2500.000005	Major	Wrong_doings	17	You have given way to the handicapped	C1_38	0.15	Hard	I1_43	29	There are 6 million animal species on Earth	0.888888888888889	No	LEFT	200.6558000002769	LEFT	338.7207999999191	RIGHT	2948.23069999984	RIGHT	1559.0049999996154	18.200000000000003	0.6	Probable_Lie	RIGHT	RIGHT	1	540.6997059175818	83	2021-02-25 15:03:13.893677
21	Self	S210225	0.6666666666666666	1	2	2	1	0.1	1350.0000027	1500.000003	2500.000005	2216.6666711000003	Minor	Good_deeds	48	You have watched an M18 movie when you were underage	C1_51	0.95	Easy	I1_3	47	Most plants emit oxygen in the day	0.0555555555555556	No	RIGHT	236.5724000001137	RIGHT	7.9273000001194305	RIGHT	2651.3788000002023	LEFT	1352.499500000249	18.300000000000004	0.1	Probable_Truth	LEFT	LEFT	2	866.8100000004415	84	2021-02-25 15:03:39.156732
92	Self	S210225	0.8333333333333334	2	1	2	1	0.3	1066.6666688	1433.3333362	1500.000003	1783.3333369	Minor	Good_deeds	14	You have cheated on a test	C2_31	1.0	Easy	I1_2	50	Chickens lay eggs	0.0	No	RIGHT	56.040500000108295	RIGHT	194.945799999914	RIGHT	1988.6332000000948	LEFT	759.9353000000519	18.600000000000005	0.3	Probable_Truth	LEFT	LEFT	1	699.3262999999388	85	2021-02-25 15:04:01.212788
133	Computer	S210225	0.8333333333333334	1	2	2	1	0.6	1000.000002	1283.3333359	1783.3333369	2216.6666711000003	Major	Wrong_doings	11	You have downloaded pirated movies	C1_37	0.05	Easy	I2_51	1	Carnivore refers to meat-eater	0.0	Yes	LEFT	921.8115000003309	LEFT	552.5195999998687	RIGHT	992.6471999997376	LEFT	774.0401000000929	18.600000000000005	0.6	Probable_Lie	LEFT	LEFT	6	771.5029590567099	86	2021-02-25 15:04:24.076582
40	Self	S210225	0.8333333333333334	2	1	1	2	0.4	1150.0000023	1000.000002	1933.3333372	1500.000003	Minor	Wrong_doings	12	You have said thank you when you have received help	C2_27	0.95	Easy	I2_18	45	Pyramid of Giza is 468 feet tall	1.0	No	RIGHT	1.649999999699503	RIGHT	348.7694000000374	RIGHT	1606.1932000002344	RIGHT	1612.1800000000803	19.000000000000004	0.4	Probable_Truth	RIGHT	RIGHT	2	928.2017000000452	87	2021-02-25 15:04:46.732283
28	Self	S210225	0.6666666666666666	2	1	2	1	0.3	1150.0000023	1216.6666691	1783.3333369	2350.0000047	Major	Wrong_doings	17	You have given way to the handicapped	C1_38	0.15	Hard	I1_43	29	There are 6 million animal species on Earth	0.888888888888889	No	RIGHT	232.7426000001651	RIGHT	195.46760000002905	RIGHT	2603.888099999949	RIGHT	902.3492999999688	19.300000000000004	0.3	Probable_Truth	LEFT	LEFT	2	1109.4469999998182	88	2021-02-25 15:05:10.852267
138	Computer	S210225	0.8333333333333334	2	1	1	2	0.4	1000.000002	1500.000003	1500.000003	2500.000005	Minor	Good_deeds	16	You have volunteered every week for many years	C2_33	1.0	Easy	I1_45	60	It takes 112 years to build the Pisa Tower	0.666666666666667	No	RIGHT	1304.8910000002252	RIGHT	354.5874999999796	LEFT	2703.4389999998893	RIGHT	3782.903599999827	19.700000000000003	0.4	Probable_Truth	LEFT	LEFT	1	666.7217043846842	89	2021-02-25 15:05:38.732312
104	Computer	S210225	0.5	2	1	1	2	0.1	1066.6666688	1000.000002	2066.6666708	2216.6666711000003	Minor	Good_deeds	19	You have let a homeless man into your house	C1_47	0.05	Easy	I1_37	6	Acoustic Kitty refers to cat with implants	0.722222222222222	Yes	LEFT	3312.858000000233	RIGHT	1636.889699999756	RIGHT	4377.23029999961	RIGHT	1253.5804999997708	19.6	0.1	Probable_Truth	LEFT	LEFT	2	812.2497542468466	90	2021-02-25 15:06:09.054186
97	Computer	S210225	0.5	1	2	1	2	0.6	1283.3333359	1216.6666691	1783.3333369	2350.0000047	Major	Wrong_doings	43	You have rescued others from a catastrophe	C2_43	1.0	Hard	I2_31	39	Summer is hotter than winter	0.833333333333333	No	LEFT	246.8673000003037	LEFT	766.9442999999774	RIGHT	1063.0664000000252	RIGHT	3932.613399999809	19.6	0.6	Probable_Lie	RIGHT	LEFT	4	595.0427452772809	91	2021-02-25 15:06:34.868935
105	Computer	S210225	0.5	2	1	1	2	0.7	1283.3333359	1433.3333362	1783.3333369	1500.000003	Minor	Wrong_doings	33	You have claimed doing things that you never did	C1_33	0.9	Hard	I1_31	31	There are 7 days in a week	1.0	No	RIGHT	920.670699999846	RIGHT	254.71909999987477	RIGHT	647.6322999997137	LEFT	4013.971800000036	20.3	0.7	Probable_Truth	LEFT	RIGHT	6	663.7747237578862	92	2021-02-25 15:06:59.942093
8	Self	S210225	0.5	2	1	1	2	0.6	1150.0000023	1433.3333362	2216.6666711000003	2066.6666708	Minor	Good_deeds	19	You have let a homeless man into your house	C1_47	0.05	Easy	I1_37	6	Acoustic Kitty refers to cat with implants	0.722222222222222	Yes	RIGHT	215.30119999988528	RIGHT	193.08079999973413	RIGHT	840.105400000084	RIGHT	1708.0045000002428	20.9	0.6	Probable_Truth	LEFT	RIGHT	5	1054.656299999806	93	2021-02-25 15:07:23.396937
14	Self	S210225	0.5	2	1	2	1	0.7	1433.3333362	1000.000002	1783.3333369	1500.000003	Minor	Good_deeds	56	You have queued to enter the MRT train	C1_19	0.05	Easy	I2_33	56	The Amazon forest covers an area of 1 billion acres	0.0	No	LEFT	102.79800000034813	RIGHT	1034.172899999703	RIGHT	2615.06959999997	RIGHT	903.2741000000896	20.200000000000003	0.7	Probable_Lie	RIGHT	RIGHT	1	1452.9772999999295	94	2021-02-25 15:07:47.797041
95	Self	S210225	0.8333333333333334	2	1	2	1	0.8	1500.000003	1066.6666688	2066.6666708	1933.3333372	Major	Good_deeds	31	You have thrown your trash into the bin	C1_42	0.2	Easy	I1_36	36	China is a part of Asia	0.777777777777778	No	RIGHT	232.2079000000485	RIGHT	230.86770000008983	RIGHT	1158.2060999999158	RIGHT	1375.448100000085	21.000000000000004	0.8	Probable_Truth	LEFT	LEFT	1	872.4543000002996	95	2021-02-25 15:08:10.804839
117	Computer	S210225	0.6666666666666666	1	2	2	1	0.5	1500.000003	1433.3333362	1783.3333369	2500.000005	Minor	Good_deeds	48	You have watched an M18 movie when you were underage	C1_51	0.95	Easy	I1_3	47	Most plants emit oxygen in the day	0.0555555555555556	No	RIGHT	671.9671999999264	LEFT	169.45699999996577	RIGHT	1445.179299999836	LEFT	927.9066000003696	21.000000000000004	0.5	Probable_Truth	LEFT	LEFT	2	769.6576749546175	96	2021-02-25 15:09:16.213171
5	Self	S210225	0.5	1	2	2	1	0.2	1433.3333362	1150.0000023	2350.0000047	2500.000005	Major	Good_deeds	53	You have been physically hurt to protect others	C1_35	0.05	Easy	I2_45	31	Polish is 20th most spoken language in the World	0.0	No	LEFT	1266.2592000001496	RIGHT	85.80480000000534	RIGHT	4129.589099999976	RIGHT	2016.2114999998264	20.800000000000004	0.2	Probable_Lie	LEFT	LEFT	5	1017.3577000000478	97	2021-02-25 15:09:44.741020
73	Self	S210225	0.6666666666666666	2	1	1	2	0.7	1150.0000023	1500.000003	2066.6666708	1783.3333369	Major	Wrong_doings	1	You have lied to your parents	C1_22	0.0	Easy	I2_24	8	Dutch is the 6th Europe's most widely spoken language	0.944444444444444	Yes	RIGHT	217.0733999996628	RIGHT	238.4213000000273	RIGHT	2103.2611999999062	LEFT	1506.6098000002055	21.500000000000004	0.7	Probable_Truth	RIGHT	RIGHT	3	1011.610500000188	98	2021-02-25 15:10:08.892225
134	Computer	S210225	0.8333333333333334	1	2	2	1	0.5	1283.3333359	1150.0000023	1500.000003	1783.3333369	Minor	Good_deeds	34	You have violated a traffic law	C1_24	0.85	Hard	I2_42	54	Today is a weekday	0.0	No	RIGHT	508.2642000002125	LEFT	519.5664999996552	RIGHT	872.7868000000853	LEFT	824.0027000001646	21.500000000000004	0.5	Probable_Lie	LEFT	LEFT	5	867.2952010894086	99	2021-02-25 15:10:30.772933
47	Self	S210225	0.8333333333333334	2	1	2	1	0.6	1283.3333359	1216.6666691	1650.0000033	1650.0000033	Major	Wrong_doings	33	You have given up your seat in the MRT	C1_12	0.95	Hard	I2_23	19	Cheese is an Asian staple	0.0	Yes	LEFT	215.64399999988385	RIGHT	694.0449999997327	LEFT	1135.7685000002675	RIGHT	863.5920000001533	20.9	0.6	Probable_Lie	RIGHT	RIGHT	1	769.0312999998241	100	2021-02-25 15:10:52.828293
26	Self	S210225	0.6666666666666666	2	1	1	2	0.5	1066.6666688	1150.0000023	2066.6666708	1933.3333372	Major	Wrong_doings	40	You have fabricated facts about yourself	C2_8	0.05	Hard	I2_44	4	Christmas Day is in March	0.0	Yes	LEFT	57.062500000029104	RIGHT	542.8136999998969	LEFT	921.2282000003142	LEFT	1431.5997999997307	20.4	0.5	Probable_Lie	RIGHT	RIGHT	1	900.2120999998624	101	2021-02-25 15:11:15.468268
67	Self	S210225	0.6666666666666666	1	2	1	2	0.8	1000.000002	1433.3333362	1650.0000033	2216.6666711000003	Major	Good_deeds	14	You have taken part in violent demonstration	C1_49	0.85	Hard	I1_40	42	Singapore is a poor country	1.0	No	RIGHT	256.5926000002037	RIGHT	246.6703999998572	LEFT	936.1131999999088	LEFT	1239.7217999996428	21.200000000000003	0.8	Probable_Truth	LEFT	LEFT	1	918.8913999996656	102	2021-02-25 15:11:37.940590
86	Self	S210225	0.8333333333333334	1	2	2	1	0.5	1066.6666688	1000.000002	2066.6666708	2216.6666711000003	Minor	Good_deeds	16	You have used a fake name online	C1_9	0.25	Hard	I2_34	28	North Korea is more developed than South Korea	0.0	No	RIGHT	517.0545999999376	RIGHT	137.1969000001627	LEFT	2039.2135000001872	LEFT	1398.508100000072	21.700000000000003	0.5	Probable_Truth	RIGHT	RIGHT	5	884.2210000002524	103	2021-02-25 15:12:01.844299
25	Self	S210225	0.6666666666666666	2	1	1	2	0.8	1500.000003	1283.3333359	2216.6666711000003	1500.000003	Major	Good_deeds	47	You have organized a violent protest	C1_40	1.0	Hard	I1_29	59	Septicemia is a lung infection condition	0.166666666666667	No	LEFT	310.7193000000734	RIGHT	864.9874000002455	RIGHT	3830.858100000114	LEFT	1285.8080999999402	20.9	0.8	Probable_Lie	RIGHT	RIGHT	1	1037.8547999998773	104	2021-02-25 15:12:28.251821
91	Self	S210225	0.8333333333333334	2	1	1	2	0.6	1150.0000023	1350.0000027	2216.6666711000003	1500.000003	Major	Good_deeds	29	You have donated a pay cheque to charity	C1_23	0.65	Hard	I1_38	3	South East Asia is currently free from polio	0.0	Yes	LEFT	207.65160000019023	RIGHT	832.655799999884	RIGHT	1591.8225000000348	RIGHT	1430.409800000234	20.3	0.6	Probable_Lie	RIGHT	RIGHT	1	866.7170999997325	105	2021-02-25 15:12:51.972845
62	Self	S210225	0.5	2	1	2	1	0.8	1150.0000023	1216.6666691	1933.3333372	2066.6666708	Major	Wrong_doings	6	You have been arrested	C2_7	1.0	Easy	I2_30	60	The Earth is round	0.0	Yes	LEFT	71.28299999976662	RIGHT	707.8292000001056	RIGHT	928.0561999999009	LEFT	1143.1744999999864	19.5	0.8	Probable_Lie	RIGHT	RIGHT	2	937.812699999995	106	2021-02-25 15:13:14.700279
121	Computer	S210225	0.6666666666666666	2	1	1	2	0.1	1350.0000027	1000.000002	2350.0000047	2216.6666711000003	Major	Good_deeds	47	You have organized a violent protest	C1_40	1.0	Hard	I1_29	59	Septicemia is a lung infection condition	0.166666666666667	No	LEFT	593.7877000001208	LEFT	2025.225800000044	RIGHT	848.4878999997818	LEFT	1935.1896999996825	19.5	0.1	Probable_Lie	RIGHT	RIGHT	1	973.6068555656218	107	2021-02-25 15:13:40.555751
126	Computer	S210225	0.6666666666666666	2	1	2	1	0.3	1216.6666691	1350.0000027	1933.3333372	1933.3333372	Minor	Good_deeds	30	You have sheltered others from disasters	C1_29	0.95	Easy	I2_59	44	Red is a color	0.0	Yes	LEFT	329.0068999999676	LEFT	705.8701000000838	RIGHT	933.5402000001524	RIGHT	975.6898000000548	19.5	0.3	Probable_Lie	LEFT	RIGHT	2	986.9764771016294	108	2021-02-25 15:14:03.484296
43	Self	S210225	0.8333333333333334	2	1	1	2	0.5	1350.0000027	1283.3333359	1783.3333369	1933.3333372	Major	Good_deeds	27	You have engaged in money laundering	C1_16	0.0	Easy	I2_5	18	The Eiffel Tower is in Paris	0.0	No	RIGHT	65.67329999961657	RIGHT	617.3541999996814	RIGHT	975.9555999999066	LEFT	1261.2457000000177	20.0	0.5	Probable_Truth	LEFT	LEFT	1	1206.3474999999926	109	2021-02-25 15:14:26.532746
141	Computer	S210225	0.8333333333333334	2	1	2	1	0.1	1216.6666691	1350.0000027	1783.3333369	2350.0000047	Major	Wrong_doings	36	You have told someone's secret to others	C1_36	0.15	Hard	I1_19	6	Nanyang Technological University is in Australia	0.944444444444444	No	LEFT	169.40139999996973	LEFT	690.4131999999663	LEFT	1546.8792000001486	LEFT	1247.1639000000323	20.0	0.1	Probable_Lie	LEFT	LEFT	6	836.4118427463383	110	2021-02-25 15:14:50.291537
107	Computer	S210225	0.5	2	1	1	2	0.3	1500.000003	1350.0000027	2216.6666711000003	1933.3333372	Minor	Wrong_doings	13	You have kidnapped someone	C2_3	1.0	Easy	I1_27	27	Fishes can swim in water	0.0	Yes	LEFT	518.3145999999397	LEFT	990.327200000138	RIGHT	800.9551999998621	LEFT	1476.2808999998924	20.0	0.3	Probable_Lie	RIGHT	LEFT	4	635.8986368023358	111	2021-02-25 15:15:14.284759
120	Computer	S210225	0.6666666666666666	2	1	1	2	0.2	1066.6666688	1150.0000023	2066.6666708	1783.3333369	Minor	Good_deeds	8	You have bribed someone to improve a grade	C2_30	1.0	Easy	I2_4	43	There are 20 bones in the human skull	0.944444444444444	Yes	LEFT	217.62429999989763	LEFT	945.8162999999332	LEFT	2657.1015999998053	LEFT	1897.4293999999643	20.0	0.2	Probable_Lie	RIGHT	LEFT	5	772.2305989116037	112	2021-02-25 15:15:39.404425
58	Self	S210225	0.5	2	1	1	2	0.7	1500.000003	1066.6666688	1650.0000033	1933.3333372	Minor	Wrong_doings	59	You have signed up as a bone marrow donor	C1_34	1.0	Hard	I1_33	30	Airbags in cars are filled with sodium azide	0.0555555555555556	No	LEFT	48.83019999988392	RIGHT	919.6303999997326	RIGHT	2207.726999999977	RIGHT	3820.08930000029	19.3	0.7	Probable_Lie	LEFT	RIGHT	2	1254.63340000033	113	2021-02-25 15:16:06.382068
33	Self	S210225	0.8333333333333334	1	2	1	2	0.2	1066.6666688	1150.0000023	1783.3333369	2216.6666711000003	Major	Wrong_doings	13	You have sold illegal drugs	C2_52	0.75	Hard	I1_21	51	Milwaukee Art Museum is located in California	0.666666666666667	Yes	RIGHT	22.33819999992193	RIGHT	199.58429999996952	RIGHT	1103.0594000003475	LEFT	1359.863700000005	19.5	0.2	Probable_Truth	LEFT	LEFT	1	1486.2915999997313	114	2021-02-25 15:16:29.363284
128	Computer	S210225	0.8333333333333334	1	2	1	2	0.1	1500.000003	1066.6666688	2500.000005	2066.6666708	Minor	Wrong_doings	48	You have helped your parents when asked to	C2_13	0.0	Easy	I2_54	42	There is typically 0.6 grams of mercury in glass thermometer	0.777777777777778	No	RIGHT	600.8833000000777	LEFT	112.80159999978424	RIGHT	1183.1093999999212	RIGHT	1074.360400000387	19.5	0.1	Probable_Lie	LEFT	LEFT	4	966.4614401823162	115	2021-02-25 15:16:53.011821
123	Computer	S210225	0.6666666666666666	2	1	1	2	0.5	1283.3333359	1433.3333362	1650.0000033	1650.0000033	Major	Wrong_doings	29	You have watched a pirated movie	C1_17	0.0	Easy	I1_23	50	There are 6000 spoken languages in the World	0.0	No	RIGHT	16.73879999998462	LEFT	823.9269999999124	RIGHT	1375.4217999999128	LEFT	1092.5788999998076	19.5	0.5	Probable_Truth	RIGHT	LEFT	2	938.202502279584	116	2021-02-25 15:17:15.843401
66	Self	S210225	0.6666666666666666	1	2	1	2	0.2	1433.3333362	1150.0000023	1500.000003	1650.0000033	Major	Wrong_doings	49	You have faked an illness	C2_39	0.9	Easy	I2_36	11	Africa is the continent with the least rainfall	0.888888888888889	No	LEFT	573.5218999998324	RIGHT	71.73819999979969	LEFT	2216.640699999971	LEFT	870.2720000001136	19.3	0.2	Probable_Lie	RIGHT	RIGHT	2	849.4087000003674	117	2021-02-25 15:17:38.732645
68	Self	S210225	0.6666666666666666	1	2	2	1	0.5	1066.6666688	1066.6666688	1783.3333369	1783.3333369	Major	Wrong_doings	25	You have stopped using plastics completely	C1_1	0.0	Easy	I2_46	1	"Statue of Liberty is 151 feet tall"	0.0555555555555556	Yes	RIGHT	643.4211999999206	RIGHT	967.795500000193	RIGHT	1391.841800000293	RIGHT	2486.65820000042	19.8	0.5	Probable_Lie	LEFT	LEFT	3	909.8970999998528	118	2021-02-25 15:18:03.412078
77	Self	S210225	0.6666666666666666	2	1	2	1	0.8	1500.000003	1216.6666691	2500.000005	2066.6666708	Major	Good_deeds	19	You have held the elevator doors for others	C1_46	0.0	Easy	I1_8	17	There are 9 rings in the Olympic flag	0.0555555555555556	No	LEFT	200.13970000036352	RIGHT	905.1209000003836	LEFT	2168.541500000174	RIGHT	2920.361299999968	19.0	0.8	Probable_Lie	LEFT	LEFT	5	1159.5454000002974	119	2021-02-25 15:18:30.627970
42	Self	S210225	0.8333333333333334	2	1	1	2	0.2	1066.6666688	1066.6666688	1500.000003	2066.6666708	Minor	Good_deeds	16	You have volunteered every week for many years	C2_33	1.0	Easy	I1_45	60	It takes 112 years to build the Pisa Tower	0.666666666666667	No	RIGHT	182.30820000007952	RIGHT	70.22989999995843	LEFT	1639.6928999997726	RIGHT	3526.2629999997444	19.2	0.2	Probable_Truth	RIGHT	RIGHT	3	942.002499999944	120	2021-02-25 15:18:55.268305
103	Computer	S210225	0.5	1	2	2	1	0.3	1350.0000027	1283.3333359	2500.000005	2216.6666711000003	Major	Wrong_doings	24	You have bought cocaine	C2_24	0.95	Hard	I1_26	45	Afghan Hound is the first cloned cat	0.0	Yes	RIGHT	758.5924999998497	LEFT	240.64559999987975	LEFT	3295.489500000258	LEFT	1168.8413000001674	19.2	0.3	Probable_Truth	RIGHT	RIGHT	4	942.789654015388	121	2021-02-25 15:19:21.603641
31	Self	S210225	0.6666666666666666	2	1	2	1	0.1	1283.3333359	1433.3333362	2500.000005	2066.6666708	Minor	Wrong_doings	42	You have followed instructions	C2_47	0.5	Easy	I2_11	23	Kangaroos live in Africa	0.764705882352941	Yes	LEFT	184.7855000000891	RIGHT	861.3607000002048	LEFT	2719.3624999999884	RIGHT	872.9373999999552	19.1	0.1	Probable_Lie	LEFT	LEFT	5	765.5922000003557	122	2021-02-25 15:19:46.859723
13	Self	S210225	0.5	2	1	2	1	0.3	1350.0000027	1500.000003	1500.000003	1933.3333372	Major	Wrong_doings	3	You have switched off appliances when not in use	C1_13	0.0	Hard	I2_2	53	Mexico's National Day is September 16	0.888888888888889	No	LEFT	32.99909999986994	RIGHT	738.9089999996941	RIGHT	1870.252400000027	RIGHT	984.7476999998436	18.8	0.3	Probable_Lie	RIGHT	RIGHT	2	1106.7438000000038	123	2021-02-25 15:20:10.451732
7	Self	S210225	0.5	1	2	2	1	0.8	1283.3333359	1433.3333362	1650.0000033	1933.3333372	Major	Wrong_doings	24	You have bought cocaine	C2_24	0.95	Hard	I1_26	45	Afghan Hound is the first cloned cat	0.0	Yes	LEFT	1423.931900000298	RIGHT	368.2616999999482	LEFT	1365.8838000001197	LEFT	1168.1459999999788	17.999999999999996	0.8	Probable_Lie	LEFT	RIGHT	1	899.406099999851	124	2021-02-25 15:20:34.548258
101	Computer	S210225	0.5	1	2	2	1	0.1	1500.000003	1066.6666688	2216.6666711000003	1783.3333369	Major	Good_deeds	53	You have been physically hurt to protect others	C1_35	0.05	Easy	I2_45	31	Polish is 20th most spoken language in the World	0.0	No	RIGHT	1820.2611000001525	LEFT	607.4252999997043	RIGHT	4706.778199999917	RIGHT	1559.3088999999054	17.999999999999996	0.1	Probable_Truth	RIGHT	LEFT	1	806.9225587230266	125	2021-02-25 15:21:03.179561
76	Self	S210225	0.6666666666666666	2	1	2	1	0.6	1066.6666688	1433.3333362	1650.0000033	1933.3333372	Minor	Wrong_doings	38	You have drunk alcohol when you were underage	C1_5	0.0	Hard	I2_48	57	Fibers in oranges can be used to make fabric	0.888888888888889	No	RIGHT	350.6474000000708	RIGHT	1648.057599999902	RIGHT	3414.374200000111	LEFT	1463.2962999999108	18.6	0.6	Probable_Truth	RIGHT	RIGHT	4	1308.3019999999124	126	2021-02-25 15:21:30.019922
11	Self	S210225	0.5	2	1	1	2	0.8	1216.6666691	1066.6666688	2066.6666708	2216.6666711000003	Minor	Wrong_doings	13	You have kidnapped someone	C2_3	1.0	Easy	I1_27	27	Fishes can swim in water	0.0	Yes	LEFT	129.61670000004233	RIGHT	1246.4098000000376	RIGHT	711.2879000001158	LEFT	912.3322999998892	17.799999999999997	0.8	Probable_Lie	LEFT	RIGHT	3	926.854800000001	127	2021-02-25 15:21:53.091395
142	Computer	S210225	0.8333333333333334	2	1	2	1	0.3	1350.0000027	1216.6666691	1933.3333372	1783.3333369	Major	Wrong_doings	10	You have bribed a police officer	C1_39	0.0	Hard	I1_15	5	Hot chocolate was created by the Mayan culture	0.0555555555555556	Yes	RIGHT	456.7348999999013	LEFT	1876.1321000001767	RIGHT	2105.628400000114	LEFT	711.8172999998933	17.799999999999997	0.3	Probable_Truth	LEFT	LEFT	1	671.999217520372	128	2021-02-25 15:22:17.764410
45	Self	S210225	0.8333333333333334	2	1	2	1	0.7	1000.000002	1500.000003	2500.000005	1783.3333369	Major	Wrong_doings	36	You have told someone's secret to others	C1_36	0.15	Hard	I1_19	6	Nanyang Technological University is in Australia	0.944444444444444	No	RIGHT	200.6840999997621	RIGHT	387.2117999999318	LEFT	1266.5381000001616	LEFT	1096.0500999999567	18.5	0.7	Probable_Truth	RIGHT	RIGHT	5	1099.9218000001747	129	2021-02-25 15:22:41.172152
10	Self	S210225	0.5	2	1	1	2	0.4	1066.6666688	1150.0000023	1933.3333372	2500.000005	Major	Good_deeds	60	You have deceived a loved one	C2_60	0.55	Hard	I1_6	2	There are 10 continents in the World	0.777777777777778	No	RIGHT	464.7525000000314	RIGHT	732.4819999998908	LEFT	1262.6539000002597	LEFT	1007.1964999997364	18.899999999999995	0.4	Probable_Truth	LEFT	RIGHT	6	893.5390000001462	130	2021-02-25 15:23:04.755675
18	Self	S210225	0.6666666666666666	1	2	1	2	0.7	1150.0000023	1283.3333359	1783.3333369	2500.000005	Minor	Wrong_doings	28	You have engaged in arson	C2_23	0.0	Easy	I1_52	10	Algeria is Africa's second largest country	0.944444444444444	No	LEFT	842.387200000303	RIGHT	144.4482000001699	RIGHT	2287.571200000002	LEFT	1031.1271999999008	18.2	0.7	Probable_Lie	RIGHT	RIGHT	1	822.1883999999591	131	2021-02-25 15:23:29.172085
71	Self	S210225	0.6666666666666666	1	2	2	1	0.7	1350.0000027	1216.6666691	2216.6666711000003	2066.6666708	Minor	Wrong_doings	53	You have been donating all your excess food to a food bank	C2_46	1.0	Easy	I1_17	46	Animals are living things	0.0	No	RIGHT	598.968700000114	RIGHT	152.77199999991353	RIGHT	1198.725199999899	LEFT	3935.6634000000663	18.899999999999995	0.7	Probable_Truth	RIGHT	RIGHT	4	828.9684000001216	132	2021-02-25 15:23:55.315428
20	Self	S210225	0.6666666666666666	1	2	2	1	0.5	1066.6666688	1216.6666691	2066.6666708	1650.0000033	Minor	Wrong_doings	54	You have intentionally let others cut in line	C1_27	0.0	Hard	I2_21	28	Earth's atmosphere extends up to 10,000km into space	0.0	Yes	RIGHT	430.3891999998086	RIGHT	216.3315999996485	RIGHT	2352.4250000000397	LEFT	2360.028399999919	19.399999999999995	0.5	Probable_Truth	RIGHT	RIGHT	3	1058.5088000002545	133	2021-02-25 15:24:20.308000
27	Self	S210225	0.6666666666666666	2	1	1	2	0.6	1433.3333362	1500.000003	1650.0000033	1783.3333369	Major	Wrong_doings	29	You have watched a pirated movie	C1_17	0.0	Easy	I1_23	50	There are 6000 spoken languages in the World	0.0	No	RIGHT	136.8680000000495	RIGHT	574.2270999999164	RIGHT	672.2515000001295	LEFT	2038.362700000107	20.0	0.6	Probable_Truth	LEFT	LEFT	1	1066.224499999862	134	2021-02-25 15:24:43.739382
112	Computer	S210225	0.6666666666666666	1	2	1	2	0.4	1150.0000023	1283.3333359	1650.0000033	2216.6666711000003	Major	Wrong_doings	51	You have said sorry when you were rude	C2_48	0.0	Hard	I2_16	40	French is Singapore's official language	0.0	Yes	LEFT	655.047900000227	LEFT	320.48389999999927	LEFT	1232.3584000000665	RIGHT	2713.9750999999706	20.0	0.4	Probable_Lie	LEFT	RIGHT	1	583.6931866936194	135	2021-02-25 15:25:08.115544
100	Computer	S210225	0.5	1	2	2	1	0.4	1216.6666691	1500.000003	2066.6666708	1500.000003	Minor	Good_deeds	43	You have given directions to a lost tourist	C2_53	0.0	Easy	I2_13	52	Feijoa is a type of grape	0.0	Yes	LEFT	1430.797900000016	LEFT	519.9907000001076	RIGHT	2039.0486999999664	RIGHT	1182.9208999997718	20.0	0.4	Probable_Lie	LEFT	LEFT	6	930.873260440831	136	2021-02-25 15:25:33.076153
16	Self	S210225	0.6666666666666666	1	2	1	2	0.2	1433.3333362	1150.0000023	1500.000003	1933.3333372	Major	Wrong_doings	51	You have said sorry when you were rude	C2_48	0.0	Hard	I2_16	40	French is Singapore's official language	0.0	Yes	RIGHT	604.7640000001593	RIGHT	384.0141999999105	LEFT	911.8898000001536	RIGHT	675.7696999998188	20.2	0.2	Probable_Truth	LEFT	LEFT	1	1342.9847000002155	137	2021-02-25 15:25:55.595653
131	Computer	S210225	0.8333333333333334	1	2	1	2	0.2	1066.6666688	1350.0000027	1650.0000033	1500.000003	Major	Wrong_doings	18	You have donated blood every 6 months for many years	C1_48	0.1	Easy	I1_32	32	Today is Sunday	0.0	Yes	RIGHT	922.7214000002276	LEFT	224.05810000009296	LEFT	1280.0081000000318	RIGHT	3214.7509999999784	20.2	0.2	Probable_Truth	LEFT	LEFT	1	521.0409171230242	138	2021-02-25 15:26:19.891764
127	Computer	S210225	0.6666666666666666	2	1	2	1	0.8	1150.0000023	1216.6666691	1783.3333369	2350.0000047	Minor	Wrong_doings	42	You have followed instructions	C2_47	0.5	Easy	I2_11	23	Kangaroos live in Africa	0.764705882352941	Yes	LEFT	721.6862000000219	LEFT	1371.874200000093	LEFT	1645.218499999828	RIGHT	1216.402399999879	20.2	0.8	Probable_Lie	LEFT	RIGHT	2	688.4701234638725	139	2021-02-25 15:26:44.595983
6	Self	S210225	0.5	1	2	2	1	0.1	1066.6666688	1350.0000027	2500.000005	1500.000003	Major	Good_deeds	20	You have helped a friend in need	C1_43	0.7	Easy	I1_39	26	Penguin can fly with their wings	0.0555555555555556	Yes	RIGHT	460.7326999998804	RIGHT	185.0644999999531	LEFT	1524.5178000000124	RIGHT	1183.6855999999898	20.3	0.1	Probable_Truth	LEFT	RIGHT	4	1204.70239999986	140	2021-02-25 15:27:08.148023
65	Self	S210225	0.6666666666666666	1	2	1	2	0.3	1150.0000023	1500.000003	2350.0000047	1500.000003	Major	Good_deeds	46	You have used heroin	C2_25	0.0	Hard	I1_42	38	Slavery was abolished in Cuba in 1886	0.0	No	RIGHT	378.473700000086	RIGHT	88.52089999982127	RIGHT	2541.5838999997504	LEFT	999.1562000000158	20.6	0.3	Probable_Truth	LEFT	LEFT	1	877.1045999997114	141	2021-02-25 15:27:32.107746
63	Self	S210225	0.5	2	1	2	1	0.6	1433.3333362	1283.3333359	1500.000003	2216.6666711000003	Major	Wrong_doings	7	You have stolen something	C1_60	0.55	Hard	I2_8	53	A caterpillar has more muscle than a human	0.722222222222222	No	RIGHT	64.91929999992863	RIGHT	661.7166999999426	RIGHT	3320.8322000000408	LEFT	929.1157999996358	21.2	0.6	Probable_Truth	LEFT	RIGHT	4	1274.000100000194	142	2021-02-25 15:27:57.363485
113	Computer	S210225	0.6666666666666666	1	2	1	2	0.1	1350.0000027	1066.6666688	1500.000003	1500.000003	Major	Good_deeds	58	You have volunteered for a disaster-related humanitarian mission	C1_58	0.65	Easy	I2_40	21	Bears have the biggest eyes among mammals	0.944444444444444	Yes	RIGHT	582.1229000002859	LEFT	33.108399999946414	LEFT	1862.4006999998528	RIGHT	2148.7833000001046	21.2	0.1	Probable_Truth	LEFT	LEFT	2	966.2289221192982	143	2021-02-25 15:28:20.948127
