"Participant"	"Task"	"Stimulus_Side"	"Response"	"RT"	"ITI"	"Previous_Response"	"Previous_RT"	"Stop_Signal"	"Stop_Signal_RT"	"Conflict"	"Cue_Response"	"Cue_Response_RT"	"Trial_Onset"	"Trial_End"	"Trial_Order"	"Duration"
"S210225"	"Conflict_Resolution"	"RIGHT"	"RIGHT"	440.276700000027	700.0000014	n/a	n/a	n/a	n/a	"False"	n/a	n/a	"2021-02-25 14:03:31.779580"	"2021-02-25 14:03:32.427333"	1	5.98638793333333
"S210225"	"Conflict_Resolution"	"RIGHT"	"RIGHT"	712.320599999998	1316.6666693	n/a	n/a	n/a	n/a	"True"	n/a	n/a	"2021-02-25 14:03:33.762329"	"2021-02-25 14:03:34.682963"	2	5.98638793333333
"S210225"	"Conflict_Resolution"	"RIGHT"	"RIGHT"	406.688899999949	733.3333348	n/a	n/a	n/a	n/a	"False"	n/a	n/a	"2021-02-25 14:03:35.436506"	"2021-02-25 14:03:36.050960"	3	5.98638793333333
"S210225"	"Conflict_Resolution"	"LEFT"	"LEFT"	617.912599999954	1316.6666693	n/a	n/a	n/a	n/a	"True"	n/a	n/a	"2021-02-25 14:03:37.384631"	"2021-02-25 14:03:38.212657"	4	5.98638793333333
"S210225"	"Conflict_Resolution"	"RIGHT"	"RIGHT"	350.952600000028	1283.3333359	n/a	n/a	n/a	n/a	"False"	n/a	n/a	"2021-02-25 14:03:39.516365"	"2021-02-25 14:03:40.074912"	5	5.98638793333333
"S210225"	"Conflict_Resolution"	"RIGHT"	"RIGHT"	441.86620000005	1083.3333355	n/a	n/a	n/a	n/a	"False"	n/a	n/a	"2021-02-25 14:03:41.177521"	"2021-02-25 14:03:41.827424"	6	5.98638793333333
"S210225"	"Conflict_Resolution"	"LEFT"	"LEFT"	685.135600000081	1400.0000028	n/a	n/a	n/a	n/a	"True"	n/a	n/a	"2021-02-25 14:03:43.245450"	"2021-02-25 14:03:44.138431"	7	5.98638793333333
"S210225"	"Conflict_Resolution"	"RIGHT"	"RIGHT"	391.522499999951	933.3333352	n/a	n/a	n/a	n/a	"False"	n/a	n/a	"2021-02-25 14:03:45.091618"	"2021-02-25 14:03:45.691013"	8	5.98638793333333
"S210225"	"Conflict_Resolution"	"LEFT"	"LEFT"	517.344699999967	1216.6666691	n/a	n/a	n/a	n/a	"True"	n/a	n/a	"2021-02-25 14:03:46.925518"	"2021-02-25 14:03:47.650115"	9	5.98638793333333
"S210225"	"Conflict_Resolution"	"LEFT"	"LEFT"	371.559300000058	1050.0000021	n/a	n/a	n/a	n/a	"False"	n/a	n/a	"2021-02-25 14:03:48.719811"	"2021-02-25 14:03:49.298237"	10	5.98638793333333
"S210225"	"Conflict_Resolution"	"RIGHT"	"RIGHT"	420.643400000017	833.333335	n/a	n/a	n/a	n/a	"True"	n/a	n/a	"2021-02-25 14:03:50.150629"	"2021-02-25 14:03:50.779666"	11	5.98638793333333
"S210225"	"Conflict_Resolution"	"LEFT"	"LEFT"	407.212100000038	733.3333348	n/a	n/a	n/a	n/a	"False"	n/a	n/a	"2021-02-25 14:03:51.532681"	"2021-02-25 14:03:52.146846"	12	5.98638793333333
"S210225"	"Conflict_Resolution"	"LEFT"	"LEFT"	433.556400000043	666.666668	n/a	n/a	n/a	n/a	"True"	n/a	n/a	"2021-02-25 14:03:52.833658"	"2021-02-25 14:03:53.475423"	13	5.98638793333333
"S210225"	"Conflict_Resolution"	"LEFT"	"LEFT"	395.17520000004	633.3333346	n/a	n/a	n/a	n/a	"True"	n/a	n/a	"2021-02-25 14:03:54.127979"	"2021-02-25 14:03:54.729940"	14	5.98638793333333
"S210225"	"Conflict_Resolution"	"LEFT"	"RIGHT"	379.482600000074	1266.6666692	n/a	n/a	n/a	n/a	"True"	n/a	n/a	"2021-02-25 14:03:56.015597"	"2021-02-25 14:03:56.603544"	15	5.98638793333333
"S210225"	"Conflict_Resolution"	"LEFT"	"LEFT"	533.976099999904	1366.6666694	n/a	n/a	n/a	n/a	"True"	n/a	n/a	"2021-02-25 14:03:57.988865"	"2021-02-25 14:03:58.730117"	16	5.98638793333333
"S210225"	"Conflict_Resolution"	"RIGHT"	"RIGHT"	465.245100000061	750.0000015	n/a	n/a	n/a	n/a	"False"	n/a	n/a	"2021-02-25 14:03:59.497570"	"2021-02-25 14:04:00.171755"	17	5.98638793333333
"S210225"	"Conflict_Resolution"	"RIGHT"	"RIGHT"	377.778599999942	1466.6666696	n/a	n/a	n/a	n/a	"False"	n/a	n/a	"2021-02-25 14:04:01.656949"	"2021-02-25 14:04:02.242029"	18	5.98638793333333
"S210225"	"Conflict_Resolution"	"RIGHT"	"RIGHT"	406.07650000004	1433.3333362	n/a	n/a	n/a	n/a	"False"	n/a	n/a	"2021-02-25 14:04:03.693291"	"2021-02-25 14:04:04.307646"	19	5.98638793333333
"S210225"	"Conflict_Resolution"	"LEFT"	"LEFT"	534.028699999908	1166.666669	n/a	n/a	n/a	n/a	"True"	n/a	n/a	"2021-02-25 14:04:05.493244"	"2021-02-25 14:04:06.234495"	20	5.98638793333333
"S210225"	"Conflict_Resolution"	"LEFT"	"LEFT"	443.647700000042	1416.6666695	n/a	n/a	n/a	n/a	"False"	n/a	n/a	"2021-02-25 14:04:07.670948"	"2021-02-25 14:04:08.323787"	21	5.98638793333333
"S210225"	"Conflict_Resolution"	"RIGHT"	"RIGHT"	714.476399999967	633.3333346	n/a	n/a	n/a	n/a	"True"	n/a	n/a	"2021-02-25 14:04:08.976093"	"2021-02-25 14:04:09.899361"	22	5.98638793333333
"S210225"	"Conflict_Resolution"	"RIGHT"	"RIGHT"	606.679700000086	533.3333344	n/a	n/a	n/a	n/a	"True"	n/a	n/a	"2021-02-25 14:04:10.452428"	"2021-02-25 14:04:11.266383"	23	5.98638793333333
"S210225"	"Conflict_Resolution"	"LEFT"	"LEFT"	422.165800000016	1016.6666687	n/a	n/a	n/a	n/a	"False"	n/a	n/a	"2021-02-25 14:04:12.301283"	"2021-02-25 14:04:12.931976"	24	5.98638793333333
"S210225"	"Conflict_Resolution"	"LEFT"	"LEFT"	552.192500000046	516.6666677	n/a	n/a	n/a	n/a	"True"	n/a	n/a	"2021-02-25 14:04:13.466169"	"2021-02-25 14:04:14.226130"	25	5.98638793333333
"S210225"	"Conflict_Resolution"	"RIGHT"	"RIGHT"	469.123700000068	1000.000002	n/a	n/a	n/a	n/a	"True"	n/a	n/a	"2021-02-25 14:04:15.245703"	"2021-02-25 14:04:15.922255"	26	5.98638793333333
"S210225"	"Conflict_Resolution"	"LEFT"	"LEFT"	424.842300000023	516.6666677	n/a	n/a	n/a	n/a	"False"	n/a	n/a	"2021-02-25 14:04:16.458251"	"2021-02-25 14:04:17.090529"	27	5.98638793333333
"S210225"	"Conflict_Resolution"	"LEFT"	"LEFT"	458.474700000011	1250.0000025	n/a	n/a	n/a	n/a	"True"	n/a	n/a	"2021-02-25 14:04:18.360156"	"2021-02-25 14:04:19.026754"	28	5.98638793333333
"S210225"	"Conflict_Resolution"	"LEFT"	"LEFT"	360.012299999994	1366.6666694	n/a	n/a	n/a	n/a	"False"	n/a	n/a	"2021-02-25 14:04:20.410996"	"2021-02-25 14:04:20.978087"	29	5.98638793333333
"S210225"	"Conflict_Resolution"	"LEFT"	"LEFT"	386.924499999964	1466.6666696	n/a	n/a	n/a	n/a	"False"	n/a	n/a	"2021-02-25 14:04:22.463767"	"2021-02-25 14:04:23.059287"	30	5.98638793333333
"S210225"	"Conflict_Resolution"	"RIGHT"	"RIGHT"	386.879799999974	833.333335	n/a	n/a	n/a	n/a	"False"	n/a	n/a	"2021-02-25 14:04:23.912559"	"2021-02-25 14:04:24.506494"	31	5.98638793333333
"S210225"	"Conflict_Resolution"	"RIGHT"	"RIGHT"	380.831200000102	1216.6666691	n/a	n/a	n/a	n/a	"False"	n/a	n/a	"2021-02-25 14:04:25.741765"	"2021-02-25 14:04:26.329913"	32	5.98638793333333
"S210225"	"Conflict_Resolution"	"LEFT"	"LEFT"	404.585399999974	616.6666679	n/a	n/a	n/a	n/a	"False"	n/a	n/a	"2021-02-25 14:04:26.966166"	"2021-02-25 14:04:27.579589"	33	5.98638793333333
"S210225"	"Conflict_Resolution"	"LEFT"	"LEFT"	376.004999999964	1250.0000025	n/a	n/a	n/a	n/a	"False"	n/a	n/a	"2021-02-25 14:04:28.850574"	"2021-02-25 14:04:29.434553"	34	5.98638793333333
"S210225"	"Conflict_Resolution"	"RIGHT"	"RIGHT"	420.659999999998	600.0000012	n/a	n/a	n/a	n/a	"False"	n/a	n/a	"2021-02-25 14:04:30.054691"	"2021-02-25 14:04:30.683023"	35	5.98638793333333
"S210225"	"Conflict_Resolution"	"LEFT"	"LEFT"	571.055000000001	866.6666684	n/a	n/a	n/a	n/a	"True"	n/a	n/a	"2021-02-25 14:04:31.567330"	"2021-02-25 14:04:32.346307"	36	5.98638793333333
"S210225"	"Conflict_Resolution"	"RIGHT"	"LEFT"	481.773799999928	1133.3333356	n/a	n/a	n/a	n/a	"True"	n/a	n/a	"2021-02-25 14:04:33.497284"	"2021-02-25 14:04:34.185945"	37	5.98638793333333
"S210225"	"Conflict_Resolution"	"LEFT"	"LEFT"	442.697700000053	866.6666684	n/a	n/a	n/a	n/a	"False"	n/a	n/a	"2021-02-25 14:04:35.071758"	"2021-02-25 14:04:35.723096"	38	5.98638793333333
"S210225"	"Conflict_Resolution"	"LEFT"	"LEFT"	489.369300000021	666.666668	n/a	n/a	n/a	n/a	"False"	n/a	n/a	"2021-02-25 14:04:36.409975"	"2021-02-25 14:04:37.107456"	39	5.98638793333333
"S210225"	"Conflict_Resolution"	"LEFT"	"LEFT"	405.883099999983	1000.000002	n/a	n/a	n/a	n/a	"False"	n/a	n/a	"2021-02-25 14:04:38.125341"	"2021-02-25 14:04:38.739698"	40	5.98638793333333
"S210225"	"Conflict_Resolution"	"LEFT"	"LEFT"	569.587200000001	1500.000003	n/a	n/a	n/a	n/a	"True"	n/a	n/a	"2021-02-25 14:04:40.257767"	"2021-02-25 14:04:41.035012"	41	5.98638793333333
"S210225"	"Conflict_Resolution"	"RIGHT"	"RIGHT"	412.911600000029	800.0000016	n/a	n/a	n/a	n/a	"False"	n/a	n/a	"2021-02-25 14:04:41.853848"	"2021-02-25 14:04:42.475758"	42	5.98638793333333
"S210225"	"Conflict_Resolution"	"LEFT"	"LEFT"	386.194400000022	850.0000017	n/a	n/a	n/a	n/a	"False"	n/a	n/a	"2021-02-25 14:04:43.344540"	"2021-02-25 14:04:43.939450"	43	5.98638793333333
"S210225"	"Conflict_Resolution"	"RIGHT"	"RIGHT"	421.128899999985	983.3333353	n/a	n/a	n/a	n/a	"False"	n/a	n/a	"2021-02-25 14:04:44.941927"	"2021-02-25 14:04:45.571311"	44	5.98638793333333
"S210225"	"Conflict_Resolution"	"RIGHT"	"RIGHT"	385.076200000071	1266.6666692	n/a	n/a	n/a	n/a	"False"	n/a	n/a	"2021-02-25 14:04:46.857841"	"2021-02-25 14:04:47.451686"	45	5.98638793333333
"S210225"	"Conflict_Resolution"	"RIGHT"	"RIGHT"	348.460000000046	583.3333345	n/a	n/a	n/a	n/a	"False"	n/a	n/a	"2021-02-25 14:04:48.054700"	"2021-02-25 14:04:48.610762"	46	5.98638793333333
"S210225"	"Conflict_Resolution"	"RIGHT"	"RIGHT"	862.802899999906	1150.0000023	n/a	n/a	n/a	n/a	"True"	n/a	n/a	"2021-02-25 14:04:49.780208"	"2021-02-25 14:04:50.849904"	47	5.98638793333333
"S210225"	"Conflict_Resolution"	"RIGHT"	"RIGHT"	484.418800000071	1033.3333354	n/a	n/a	n/a	n/a	"False"	n/a	n/a	"2021-02-25 14:04:51.902175"	"2021-02-25 14:04:52.595191"	48	5.98638793333333
"S210225"	"Conflict_Resolution"	"LEFT"	"LEFT"	464.298499999927	566.6666678	n/a	n/a	n/a	n/a	"True"	n/a	n/a	"2021-02-25 14:04:53.179640"	"2021-02-25 14:04:53.852406"	49	5.98638793333333
"S210225"	"Conflict_Resolution"	"LEFT"	"LEFT"	431.792400000063	1100.0000022	n/a	n/a	n/a	n/a	"False"	n/a	n/a	"2021-02-25 14:04:54.971469"	"2021-02-25 14:04:55.610584"	50	5.98638793333333
"S210225"	"Conflict_Resolution"	"RIGHT"	"RIGHT"	540.715599999999	783.3333349	n/a	n/a	n/a	n/a	"True"	n/a	n/a	"2021-02-25 14:04:56.414167"	"2021-02-25 14:04:57.162549"	51	5.98638793333333
"S210225"	"Conflict_Resolution"	"RIGHT"	"RIGHT"	392.296099999953	1333.333336	n/a	n/a	n/a	n/a	"False"	n/a	n/a	"2021-02-25 14:04:58.514860"	"2021-02-25 14:04:59.114553"	52	5.98638793333333
"S210225"	"Conflict_Resolution"	"LEFT"	"LEFT"	537.438599999973	1450.0000029	n/a	n/a	n/a	n/a	"True"	n/a	n/a	"2021-02-25 14:05:00.585389"	"2021-02-25 14:05:01.331432"	53	5.98638793333333
"S210225"	"Conflict_Resolution"	"LEFT"	"LEFT"	510.383899999965	950.0000019	n/a	n/a	n/a	n/a	"True"	n/a	n/a	"2021-02-25 14:05:02.300918"	"2021-02-25 14:05:03.018261"	54	5.98638793333333
"S210225"	"Conflict_Resolution"	"RIGHT"	"RIGHT"	520.102899999983	933.3333352	n/a	n/a	n/a	n/a	"True"	n/a	n/a	"2021-02-25 14:05:03.970921"	"2021-02-25 14:05:04.698422"	55	5.98638793333333
"S210225"	"Conflict_Resolution"	"RIGHT"	"RIGHT"	449.082099999941	950.0000019	n/a	n/a	n/a	n/a	"True"	n/a	n/a	"2021-02-25 14:05:05.665623"	"2021-02-25 14:05:06.321867"	56	5.98638793333333
"S210225"	"Conflict_Resolution"	"LEFT"	"LEFT"	423.791300000062	1350.0000027	n/a	n/a	n/a	n/a	"False"	n/a	n/a	"2021-02-25 14:05:07.691479"	"2021-02-25 14:05:08.322284"	57	5.98638793333333
"S210225"	"Conflict_Resolution"	"RIGHT"	"RIGHT"	417.947599999934	850.0000017	n/a	n/a	n/a	n/a	"True"	n/a	n/a	"2021-02-25 14:05:09.193191"	"2021-02-25 14:05:09.819501"	58	5.98638793333333
"S210225"	"Conflict_Resolution"	"LEFT"	"LEFT"	533.843999999931	766.6666682	n/a	n/a	n/a	n/a	"True"	n/a	n/a	"2021-02-25 14:05:10.605480"	"2021-02-25 14:05:11.346527"	59	5.98638793333333
"S210225"	"Conflict_Resolution"	"RIGHT"	"RIGHT"	358.509099999992	1366.6666694	n/a	n/a	n/a	n/a	"False"	n/a	n/a	"2021-02-25 14:05:12.732458"	"2021-02-25 14:05:13.299186"	60	5.98638793333333
"S210225"	"Conflict_Resolution"	"RIGHT"	"RIGHT"	406.868799999984	1483.3333363	n/a	n/a	n/a	n/a	"False"	n/a	n/a	"2021-02-25 14:05:14.803731"	"2021-02-25 14:05:15.418424"	61	5.98638793333333
"S210225"	"Conflict_Resolution"	"RIGHT"	"RIGHT"	483.125100000052	1433.3333362	n/a	n/a	n/a	n/a	"True"	n/a	n/a	"2021-02-25 14:05:16.871149"	"2021-02-25 14:05:17.563295"	62	5.98638793333333
"S210225"	"Conflict_Resolution"	"LEFT"	"LEFT"	392.962099999977	1266.6666692	n/a	n/a	n/a	n/a	"False"	n/a	n/a	"2021-02-25 14:05:18.849967"	"2021-02-25 14:05:19.452608"	63	5.98638793333333
"S210225"	"Conflict_Resolution"	"RIGHT"	"RIGHT"	438.874199999987	550.0000011	n/a	n/a	n/a	n/a	"True"	n/a	n/a	"2021-02-25 14:05:20.019604"	"2021-02-25 14:05:20.666323"	64	5.98638793333333
"S210225"	"Conflict_Resolution"	"LEFT"	"LEFT"	377.039599999989	950.0000019	n/a	n/a	n/a	n/a	"False"	n/a	n/a	"2021-02-25 14:05:21.633673"	"2021-02-25 14:05:22.219705"	65	5.98638793333333
"S210225"	"Conflict_Resolution"	"RIGHT"	"RIGHT"	499.31980000008	1216.6666691	n/a	n/a	n/a	n/a	"True"	n/a	n/a	"2021-02-25 14:05:23.455485"	"2021-02-25 14:05:24.163209"	66	5.98638793333333
"S210225"	"Conflict_Resolution"	"RIGHT"	"RIGHT"	448.350099999971	1466.6666696	n/a	n/a	n/a	n/a	"True"	n/a	n/a	"2021-02-25 14:05:25.649983"	"2021-02-25 14:05:26.306421"	67	5.98638793333333
"S210225"	"Conflict_Resolution"	"LEFT"	"RIGHT"	351.218700000004	916.6666685	n/a	n/a	n/a	n/a	"True"	n/a	n/a	"2021-02-25 14:05:27.243387"	"2021-02-25 14:05:27.801907"	68	5.98638793333333
"S210225"	"Conflict_Resolution"	"LEFT"	"LEFT"	438.993100000062	583.3333345	n/a	n/a	n/a	n/a	"False"	n/a	n/a	"2021-02-25 14:05:28.404302"	"2021-02-25 14:05:29.050147"	69	5.98638793333333
"S210225"	"Conflict_Resolution"	"RIGHT"	"RIGHT"	479.488899999978	1133.3333356	n/a	n/a	n/a	n/a	"False"	n/a	n/a	"2021-02-25 14:05:30.203578"	"2021-02-25 14:05:30.891773"	70	5.98638793333333
"S210225"	"Conflict_Resolution"	"LEFT"	"LEFT"	505.642699999953	850.0000017	n/a	n/a	n/a	n/a	"True"	n/a	n/a	"2021-02-25 14:05:31.761228"	"2021-02-25 14:05:32.475317"	71	5.98638793333333
"S210225"	"Conflict_Resolution"	"LEFT"	"LEFT"	503.139000000033	533.3333344	n/a	n/a	n/a	n/a	"True"	n/a	n/a	"2021-02-25 14:05:33.027889"	"2021-02-25 14:05:33.738035"	72	5.98638793333333
"S210225"	"Conflict_Resolution"	"RIGHT"	"RIGHT"	495.724500000051	1183.3333357	n/a	n/a	n/a	n/a	"True"	n/a	n/a	"2021-02-25 14:05:34.939543"	"2021-02-25 14:05:35.643733"	73	5.98638793333333
"S210225"	"Conflict_Resolution"	"LEFT"	"LEFT"	475.960999999984	1416.6666695	n/a	n/a	n/a	n/a	"True"	n/a	n/a	"2021-02-25 14:05:37.078464"	"2021-02-25 14:05:37.763638"	74	5.98638793333333
"S210225"	"Conflict_Resolution"	"RIGHT"	"RIGHT"	501.122399999986	1383.3333361	n/a	n/a	n/a	n/a	"True"	n/a	n/a	"2021-02-25 14:05:39.165504"	"2021-02-25 14:05:39.874643"	75	5.98638793333333
"S210225"	"Conflict_Resolution"	"RIGHT"	"RIGHT"	535.967100000107	700.0000014	n/a	n/a	n/a	n/a	"True"	n/a	n/a	"2021-02-25 14:05:40.595314"	"2021-02-25 14:05:41.339627"	76	5.98638793333333
"S210225"	"Conflict_Resolution"	"RIGHT"	"RIGHT"	516.226699999947	800.0000016	n/a	n/a	n/a	n/a	"True"	n/a	n/a	"2021-02-25 14:05:42.159158"	"2021-02-25 14:05:42.882483"	77	5.98638793333333
"S210225"	"Conflict_Resolution"	"LEFT"	"LEFT"	384.082100000001	916.6666685	n/a	n/a	n/a	n/a	"False"	n/a	n/a	"2021-02-25 14:05:43.818301"	"2021-02-25 14:05:44.410617"	78	5.98638793333333
"S210225"	"Conflict_Resolution"	"LEFT"	"LEFT"	433.739199999991	1116.6666689	n/a	n/a	n/a	n/a	"False"	n/a	n/a	"2021-02-25 14:05:45.545027"	"2021-02-25 14:05:46.187009"	79	5.98638793333333
"S210225"	"Conflict_Resolution"	"LEFT"	"LEFT"	409.145699999954	1450.0000029	n/a	n/a	n/a	n/a	"False"	n/a	n/a	"2021-02-25 14:05:47.657706"	"2021-02-25 14:05:48.274376"	80	5.98638793333333
"S210225"	"Conflict_Resolution"	"RIGHT"	"RIGHT"	508.479599999987	1416.6666695	n/a	n/a	n/a	n/a	"True"	n/a	n/a	"2021-02-25 14:05:49.709809"	"2021-02-25 14:05:50.425820"	81	5.98638793333333
"S210225"	"Conflict_Resolution"	"LEFT"	"LEFT"	495.267300000023	966.6666686	n/a	n/a	n/a	n/a	"True"	n/a	n/a	"2021-02-25 14:05:51.411272"	"2021-02-25 14:05:52.113910"	82	5.98638793333333
"S210225"	"Conflict_Resolution"	"LEFT"	"LEFT"	409.731000000079	683.3333347	n/a	n/a	n/a	n/a	"False"	n/a	n/a	"2021-02-25 14:05:52.817362"	"2021-02-25 14:05:53.434722"	83	5.98638793333333
"S210225"	"Conflict_Resolution"	"RIGHT"	"RIGHT"	427.832999999964	650.0000013	n/a	n/a	n/a	n/a	"True"	n/a	n/a	"2021-02-25 14:05:54.102673"	"2021-02-25 14:05:54.739589"	84	5.98638793333333
"S210225"	"Conflict_Resolution"	"RIGHT"	"RIGHT"	358.343300000001	1100.0000022	n/a	n/a	n/a	n/a	"False"	n/a	n/a	"2021-02-25 14:05:55.860099"	"2021-02-25 14:05:56.426089"	85	5.98638793333333
"S210225"	"Conflict_Resolution"	"RIGHT"	"RIGHT"	433.385700000031	500.000001	n/a	n/a	n/a	n/a	"False"	n/a	n/a	"2021-02-25 14:05:56.945727"	"2021-02-25 14:05:57.586666"	86	5.98638793333333
"S210225"	"Conflict_Resolution"	"RIGHT"	"RIGHT"	315.840399999956	1233.3333358	n/a	n/a	n/a	n/a	"False"	n/a	n/a	"2021-02-25 14:05:58.839279"	"2021-02-25 14:05:59.363480"	87	5.98638793333333
"S210225"	"Conflict_Resolution"	"LEFT"	"LEFT"	450.150000000008	1100.0000022	n/a	n/a	n/a	n/a	"True"	n/a	n/a	"2021-02-25 14:06:00.480552"	"2021-02-25 14:06:01.139788"	88	5.98638793333333
"S210225"	"Conflict_Resolution"	"RIGHT"	"RIGHT"	373.739699999987	1150.0000023	n/a	n/a	n/a	n/a	"False"	n/a	n/a	"2021-02-25 14:06:02.308879"	"2021-02-25 14:06:02.889917"	89	5.98638793333333
"S210225"	"Conflict_Resolution"	"LEFT"	"LEFT"	401.404699999944	716.6666681	n/a	n/a	n/a	n/a	"False"	n/a	n/a	"2021-02-25 14:06:03.625504"	"2021-02-25 14:06:04.235530"	90	5.98638793333333
"S210225"	"Conflict_Resolution"	"RIGHT"	"RIGHT"	516.968599999927	750.0000015	n/a	n/a	n/a	n/a	"True"	n/a	n/a	"2021-02-25 14:06:05.005953"	"2021-02-25 14:06:05.730091"	91	5.98638793333333
"S210225"	"Conflict_Resolution"	"RIGHT"	"RIGHT"	530.601499999989	1266.6666692	n/a	n/a	n/a	n/a	"True"	n/a	n/a	"2021-02-25 14:06:07.016688"	"2021-02-25 14:06:07.754306"	92	5.98638793333333
"S210225"	"Conflict_Resolution"	"RIGHT"	"RIGHT"	549.381499999981	1033.3333354	n/a	n/a	n/a	n/a	"True"	n/a	n/a	"2021-02-25 14:06:08.805681"	"2021-02-25 14:06:09.562033"	93	5.98638793333333
"S210225"	"Conflict_Resolution"	"LEFT"	"LEFT"	423.955800000044	533.3333344	n/a	n/a	n/a	n/a	"False"	n/a	n/a	"2021-02-25 14:06:10.114340"	"2021-02-25 14:06:10.745883"	94	5.98638793333333
"S210225"	"Conflict_Resolution"	"LEFT"	"LEFT"	605.292700000064	1000.000002	n/a	n/a	n/a	n/a	"True"	n/a	n/a	"2021-02-25 14:06:11.765667"	"2021-02-25 14:06:12.578796"	95	5.98638793333333
"S210225"	"Conflict_Resolution"	"RIGHT"	"RIGHT"	416.371399999889	1100.0000022	n/a	n/a	n/a	n/a	"True"	n/a	n/a	"2021-02-25 14:06:13.697911"	"2021-02-25 14:06:14.323805"	96	5.98638793333333
"S210225"	"Conflict_Resolution"	"RIGHT"	"RIGHT"	423.504100000059	1316.6666693	n/a	n/a	n/a	n/a	"False"	n/a	n/a	"2021-02-25 14:06:15.659514"	"2021-02-25 14:06:16.290322"	97	5.98638793333333
"S210225"	"Conflict_Resolution"	"LEFT"	"LEFT"	479.581800000005	1300.0000026	n/a	n/a	n/a	n/a	"True"	n/a	n/a	"2021-02-25 14:06:17.610916"	"2021-02-25 14:06:18.298106"	98	5.98638793333333
"S210225"	"Conflict_Resolution"	"RIGHT"	"RIGHT"	471.988900000042	733.3333348	n/a	n/a	n/a	n/a	"True"	n/a	n/a	"2021-02-25 14:06:19.051126"	"2021-02-25 14:06:19.730493"	99	5.98638793333333
"S210225"	"Conflict_Resolution"	"LEFT"	"LEFT"	410.934700000098	1066.6666688	n/a	n/a	n/a	n/a	"False"	n/a	n/a	"2021-02-25 14:06:20.815714"	"2021-02-25 14:06:21.434084"	100	5.98638793333333
"S210225"	"Conflict_Resolution"	"LEFT"	"LEFT"	571.507899999915	1200.0000024	n/a	n/a	n/a	n/a	"True"	n/a	n/a	"2021-02-25 14:06:22.655545"	"2021-02-25 14:06:23.434720"	101	5.98638793333333
"S210225"	"Conflict_Resolution"	"RIGHT"	"RIGHT"	529.402699999991	1483.3333363	n/a	n/a	n/a	n/a	"True"	n/a	n/a	"2021-02-25 14:06:24.936958"	"2021-02-25 14:06:25.673854"	102	5.98638793333333
"S210225"	"Conflict_Resolution"	"LEFT"	"LEFT"	572.950800000058	816.6666683	n/a	n/a	n/a	n/a	"True"	n/a	n/a	"2021-02-25 14:06:26.510156"	"2021-02-25 14:06:27.291438"	103	5.98638793333333
"S210225"	"Conflict_Resolution"	"RIGHT"	"RIGHT"	378.079400000047	850.0000017	n/a	n/a	n/a	n/a	"False"	n/a	n/a	"2021-02-25 14:06:28.160657"	"2021-02-25 14:06:28.746126"	104	5.98638793333333
"S210225"	"Conflict_Resolution"	"LEFT"	"LEFT"	462.653300000056	1166.666669	n/a	n/a	n/a	n/a	"False"	n/a	n/a	"2021-02-25 14:06:29.931752"	"2021-02-25 14:06:30.603120"	105	5.98638793333333
"S210225"	"Conflict_Resolution"	"RIGHT"	"RIGHT"	385.319699999968	883.3333351	n/a	n/a	n/a	n/a	"False"	n/a	n/a	"2021-02-25 14:06:31.505832"	"2021-02-25 14:06:32.097868"	106	5.98638793333333
"S210225"	"Conflict_Resolution"	"RIGHT"	"RIGHT"	563.433099999997	683.3333347	n/a	n/a	n/a	n/a	"True"	n/a	n/a	"2021-02-25 14:06:32.799547"	"2021-02-25 14:06:33.571642"	107	5.98638793333333
"S210225"	"Conflict_Resolution"	"RIGHT"	"RIGHT"	417.180400000007	1233.3333358	n/a	n/a	n/a	n/a	"True"	n/a	n/a	"2021-02-25 14:06:34.825809"	"2021-02-25 14:06:35.450699"	108	5.98638793333333
"S210225"	"Conflict_Resolution"	"RIGHT"	"RIGHT"	403.060800000048	633.3333346	n/a	n/a	n/a	n/a	"False"	n/a	n/a	"2021-02-25 14:06:36.103438"	"2021-02-25 14:06:36.713899"	109	5.98638793333333
"S210225"	"Conflict_Resolution"	"LEFT"	"LEFT"	353.647199999955	900.0000018	n/a	n/a	n/a	n/a	"False"	n/a	n/a	"2021-02-25 14:06:37.632639"	"2021-02-25 14:06:38.194155"	110	5.98638793333333
"S210225"	"Conflict_Resolution"	"LEFT"	"LEFT"	473.138800000015	1466.6666696	n/a	n/a	n/a	n/a	"True"	n/a	n/a	"2021-02-25 14:06:39.681896"	"2021-02-25 14:06:40.362087"	111	5.98638793333333
"S210225"	"Conflict_Resolution"	"RIGHT"	"RIGHT"	298.24659999997	900.0000018	n/a	n/a	n/a	n/a	"False"	n/a	n/a	"2021-02-25 14:06:41.280183"	"2021-02-25 14:06:41.786044"	112	5.98638793333333
"S210225"	"Conflict_Resolution"	"RIGHT"	"RIGHT"	399.551900000006	783.3333349	n/a	n/a	n/a	n/a	"False"	n/a	n/a	"2021-02-25 14:06:42.586924"	"2021-02-25 14:06:43.195311"	113	5.98638793333333
"S210225"	"Conflict_Resolution"	"LEFT"	"LEFT"	444.250399999987	1400.0000028	n/a	n/a	n/a	n/a	"False"	n/a	n/a	"2021-02-25 14:06:44.614567"	"2021-02-25 14:06:45.266479"	114	5.98638793333333
"S210225"	"Conflict_Resolution"	"RIGHT"	"RIGHT"	474.61080000005	500.000001	n/a	n/a	n/a	n/a	"True"	n/a	n/a	"2021-02-25 14:06:45.783812"	"2021-02-25 14:06:46.466938"	115	5.98638793333333
"S210225"	"Conflict_Resolution"	"LEFT"	"LEFT"	396.609299999909	966.6666686	n/a	n/a	n/a	n/a	"False"	n/a	n/a	"2021-02-25 14:06:47.454414"	"2021-02-25 14:06:48.058379"	116	5.98638793333333
"S210225"	"Conflict_Resolution"	"LEFT"	"LEFT"	307.612899999981	816.6666683	n/a	n/a	n/a	n/a	"False"	n/a	n/a	"2021-02-25 14:06:48.895371"	"2021-02-25 14:06:49.410633"	117	5.98638793333333
"S210225"	"Conflict_Resolution"	"LEFT"	"LEFT"	340.918500000043	1216.6666691	n/a	n/a	n/a	n/a	"False"	n/a	n/a	"2021-02-25 14:06:50.646054"	"2021-02-25 14:06:51.195534"	118	5.98638793333333
"S210225"	"Conflict_Resolution"	"RIGHT"	"RIGHT"	450.274300000046	883.3333351	n/a	n/a	n/a	n/a	"True"	n/a	n/a	"2021-02-25 14:06:52.096796"	"2021-02-25 14:06:52.754160"	119	5.98638793333333
"S210225"	"Conflict_Resolution"	"RIGHT"	"RIGHT"	384.942700000011	900.0000018	n/a	n/a	n/a	n/a	"True"	n/a	n/a	"2021-02-25 14:06:53.674340"	"2021-02-25 14:06:54.265937"	120	5.98638793333333
"S210225"	"Conflict_Resolution"	"LEFT"	"LEFT"	373.482700000068	1200.0000024	n/a	n/a	n/a	n/a	"False"	n/a	n/a	"2021-02-25 14:06:55.485571"	"2021-02-25 14:06:56.066461"	121	5.98638793333333
"S210225"	"Conflict_Resolution"	"LEFT"	"RIGHT"	394.262000000026	1050.0000021	n/a	n/a	n/a	n/a	"True"	n/a	n/a	"2021-02-25 14:06:57.136991"	"2021-02-25 14:06:57.738820"	122	5.98638793333333
"S210225"	"Conflict_Resolution"	"RIGHT"	"RIGHT"	446.399199999973	1000.000002	n/a	n/a	n/a	n/a	"False"	n/a	n/a	"2021-02-25 14:06:58.755952"	"2021-02-25 14:06:59.410444"	123	5.98638793333333
"S210225"	"Conflict_Resolution"	"LEFT"	"LEFT"	514.291500000013	616.6666679	n/a	n/a	n/a	n/a	"True"	n/a	n/a	"2021-02-25 14:07:00.048988"	"2021-02-25 14:07:00.770999"	124	5.98638793333333
"S210225"	"Conflict_Resolution"	"RIGHT"	"RIGHT"	484.884299999976	600.0000012	n/a	n/a	n/a	n/a	"True"	n/a	n/a	"2021-02-25 14:07:01.389926"	"2021-02-25 14:07:02.083659"	125	5.98638793333333
"S210225"	"Conflict_Resolution"	"LEFT"	"LEFT"	398.846700000036	766.6666682	n/a	n/a	n/a	n/a	"False"	n/a	n/a	"2021-02-25 14:07:02.867563"	"2021-02-25 14:07:03.475177"	126	5.98638793333333
"S210225"	"Conflict_Resolution"	"RIGHT"	"RIGHT"	464.588200000094	1283.3333359	n/a	n/a	n/a	n/a	"True"	n/a	n/a	"2021-02-25 14:07:04.777989"	"2021-02-25 14:07:05.450375"	127	5.98638793333333
"S210225"	"Conflict_Resolution"	"LEFT"	"LEFT"	589.599399999997	583.3333345	n/a	n/a	n/a	n/a	"True"	n/a	n/a	"2021-02-25 14:07:06.052949"	"2021-02-25 14:07:06.849842"	128	5.98638793333333
"S210225"	"Conflict_Resolution"	"LEFT"	"LEFT"	391.97189999993	1150.0000023	n/a	n/a	n/a	n/a	"False"	n/a	n/a	"2021-02-25 14:07:08.018825"	"2021-02-25 14:07:08.619194"	129	5.98638793333333
"S210225"	"Conflict_Resolution"	"RIGHT"	"RIGHT"	509.087999999906	983.3333353	n/a	n/a	n/a	n/a	"True"	n/a	n/a	"2021-02-25 14:07:09.621525"	"2021-02-25 14:07:10.338799"	130	5.98638793333333
"S210225"	"Conflict_Resolution"	"LEFT"	"LEFT"	525.43460000004	783.3333349	n/a	n/a	n/a	n/a	"True"	n/a	n/a	"2021-02-25 14:07:11.141792"	"2021-02-25 14:07:11.873905"	131	5.98638793333333
"S210225"	"Conflict_Resolution"	"RIGHT"	"RIGHT"	537.926699999957	1333.333336	n/a	n/a	n/a	n/a	"True"	n/a	n/a	"2021-02-25 14:07:13.225216"	"2021-02-25 14:07:13.970219"	132	5.98638793333333
"S210225"	"Conflict_Resolution"	"RIGHT"	"RIGHT"	540.132200000016	1050.0000021	n/a	n/a	n/a	n/a	"True"	n/a	n/a	"2021-02-25 14:07:15.038225"	"2021-02-25 14:07:15.787806"	133	5.98638793333333
"S210225"	"Conflict_Resolution"	"LEFT"	"LEFT"	581.99060000004	683.3333347	n/a	n/a	n/a	n/a	"True"	n/a	n/a	"2021-02-25 14:07:16.492594"	"2021-02-25 14:07:17.282736"	134	5.98638793333333
"S210225"	"Conflict_Resolution"	"LEFT"	"LEFT"	400.760200000036	1300.0000026	n/a	n/a	n/a	n/a	"False"	n/a	n/a	"2021-02-25 14:07:18.601825"	"2021-02-25 14:07:19.211159"	135	5.98638793333333
"S210225"	"Conflict_Resolution"	"RIGHT"	"RIGHT"	471.038300000032	533.3333344	n/a	n/a	n/a	n/a	"False"	n/a	n/a	"2021-02-25 14:07:19.763251"	"2021-02-25 14:07:20.442384"	136	5.98638793333333
"S210225"	"Conflict_Resolution"	"LEFT"	"LEFT"	464.245900000037	1116.6666689	n/a	n/a	n/a	n/a	"True"	n/a	n/a	"2021-02-25 14:07:21.578886"	"2021-02-25 14:07:22.250692"	137	5.98638793333333
"S210225"	"Conflict_Resolution"	"LEFT"	"LEFT"	577.089999999998	900.0000018	n/a	n/a	n/a	n/a	"True"	n/a	n/a	"2021-02-25 14:07:23.169258"	"2021-02-25 14:07:23.954067"	138	5.98638793333333
"S210225"	"Conflict_Resolution"	"LEFT"	"LEFT"	456.575499999985	733.3333348	n/a	n/a	n/a	n/a	"True"	n/a	n/a	"2021-02-25 14:07:24.705857"	"2021-02-25 14:07:25.370099"	139	5.98638793333333
"S210225"	"Conflict_Resolution"	"LEFT"	"LEFT"	409.401899999921	1066.6666688	n/a	n/a	n/a	n/a	"True"	n/a	n/a	"2021-02-25 14:07:26.456710"	"2021-02-25 14:07:27.074263"	140	5.98638793333333
"S210225"	"Conflict_Resolution"	"RIGHT"	"RIGHT"	386.944300000096	650.0000013	n/a	n/a	n/a	n/a	"False"	n/a	n/a	"2021-02-25 14:07:27.743983"	"2021-02-25 14:07:28.339894"	141	5.98638793333333
"S210225"	"Conflict_Resolution"	"RIGHT"	"RIGHT"	374.557999999979	683.3333347	n/a	n/a	n/a	n/a	"False"	n/a	n/a	"2021-02-25 14:07:29.043956"	"2021-02-25 14:07:29.628391"	142	5.98638793333333
"S210225"	"Conflict_Resolution"	"RIGHT"	"RIGHT"	540.104400000018	1366.6666694	n/a	n/a	n/a	n/a	"True"	n/a	n/a	"2021-02-25 14:07:31.014186"	"2021-02-25 14:07:31.762165"	143	5.98638793333333
"S210225"	"Conflict_Resolution"	"LEFT"	"LEFT"	519.584399999985	1150.0000023	n/a	n/a	n/a	n/a	"True"	n/a	n/a	"2021-02-25 14:07:32.930849"	"2021-02-25 14:07:33.658239"	144	5.98638793333333
"S210225"	"Conflict_Resolution"	"RIGHT"	"RIGHT"	356.348399999888	1416.6666695	n/a	n/a	n/a	n/a	"False"	n/a	n/a	"2021-02-25 14:07:35.094180"	"2021-02-25 14:07:35.658084"	145	5.98638793333333
"S210225"	"Conflict_Resolution"	"RIGHT"	"RIGHT"	446.027199999889	1183.3333357	n/a	n/a	n/a	n/a	"False"	n/a	n/a	"2021-02-25 14:07:36.860261"	"2021-02-25 14:07:37.514525"	146	5.98638793333333
"S210225"	"Conflict_Resolution"	"LEFT"	"LEFT"	493.881900000133	1016.6666687	n/a	n/a	n/a	n/a	"True"	n/a	n/a	"2021-02-25 14:07:38.548850"	"2021-02-25 14:07:39.250141"	147	5.98638793333333
"S210225"	"Conflict_Resolution"	"LEFT"	"LEFT"	393.509700000095	783.3333349	n/a	n/a	n/a	n/a	"False"	n/a	n/a	"2021-02-25 14:07:40.057538"	"2021-02-25 14:07:40.659043"	148	5.98638793333333
"S210225"	"Conflict_Resolution"	"RIGHT"	"RIGHT"	513.329599999906	1050.0000021	n/a	n/a	n/a	n/a	"False"	n/a	n/a	"2021-02-25 14:07:41.729391"	"2021-02-25 14:07:42.451358"	149	5.98638793333333
"S210225"	"Conflict_Resolution"	"LEFT"	"LEFT"	455.886999999848	716.6666681	n/a	n/a	n/a	n/a	"True"	n/a	n/a	"2021-02-25 14:07:43.187233"	"2021-02-25 14:07:43.850802"	150	5.98638793333333
"S210225"	"Conflict_Resolution"	"RIGHT"	"RIGHT"	391.081299999996	950.0000019	n/a	n/a	n/a	n/a	"False"	n/a	n/a	"2021-02-25 14:07:44.819947"	"2021-02-25 14:07:45.418197"	151	5.98638793333333
"S210225"	"Conflict_Resolution"	"LEFT"	"LEFT"	410.424800000101	633.3333346	n/a	n/a	n/a	n/a	"False"	n/a	n/a	"2021-02-25 14:07:46.072100"	"2021-02-25 14:07:46.691488"	152	5.98638793333333
"S210225"	"Conflict_Resolution"	"LEFT"	"LEFT"	519.825899999887	1350.0000027	n/a	n/a	n/a	n/a	"True"	n/a	n/a	"2021-02-25 14:07:48.058664"	"2021-02-25 14:07:48.787677"	153	5.98638793333333
"S210225"	"Conflict_Resolution"	"RIGHT"	"RIGHT"	410.078399999975	1083.3333355	n/a	n/a	n/a	n/a	"True"	n/a	n/a	"2021-02-25 14:07:49.888816"	"2021-02-25 14:07:50.506103"	154	5.98638793333333
"S210225"	"Conflict_Resolution"	"LEFT"	"LEFT"	393.148099999962	1316.6666693	n/a	n/a	n/a	n/a	"False"	n/a	n/a	"2021-02-25 14:07:51.841770"	"2021-02-25 14:07:52.442452"	155	5.98638793333333
"S210225"	"Conflict_Resolution"	"RIGHT"	"RIGHT"	415.098200000102	550.0000011	n/a	n/a	n/a	n/a	"False"	n/a	n/a	"2021-02-25 14:07:53.012021"	"2021-02-25 14:07:53.633851"	156	5.98638793333333
"S210225"	"Conflict_Resolution"	"LEFT"	"LEFT"	306.791200000134	1500.000003	n/a	n/a	n/a	n/a	"False"	n/a	n/a	"2021-02-25 14:07:55.152059"	"2021-02-25 14:07:55.665936"	157	5.98638793333333
"S210225"	"Conflict_Resolution"	"RIGHT"	"RIGHT"	416.028200000028	583.3333345	n/a	n/a	n/a	n/a	"True"	n/a	n/a	"2021-02-25 14:07:56.266443"	"2021-02-25 14:07:56.890774"	158	5.98638793333333
"S210225"	"Conflict_Resolution"	"RIGHT"	"RIGHT"	412.599900000032	1383.3333361	n/a	n/a	n/a	n/a	"False"	n/a	n/a	"2021-02-25 14:07:58.293636"	"2021-02-25 14:07:58.914589"	159	5.98638793333333
"S210225"	"Conflict_Resolution"	"LEFT"	"LEFT"	382.311100000152	566.6666678	n/a	n/a	n/a	n/a	"False"	n/a	n/a	"2021-02-25 14:07:59.500024"	"2021-02-25 14:08:00.090365"	160	5.98638793333333
"S210225"	"Processing_Speed"	"LEFT"	"DOWN"	2140.92219999999	1500.000003	n/a	n/a	n/a	n/a	n/a	n/a	n/a	"2021-02-25 13:52:17.758608"	"2021-02-25 13:52:20.125849"	1	2.02551818333333
"S210225"	"Processing_Speed"	"LEFT"	"DOWN"	303.271699999996	1150.0000023	n/a	n/a	n/a	n/a	n/a	n/a	n/a	"2021-02-25 13:52:21.284387"	"2021-02-25 13:52:21.795018"	2	2.02551818333333
"S210225"	"Processing_Speed"	"RIGHT"	"DOWN"	307.203200000004	533.3333344	n/a	n/a	n/a	n/a	n/a	n/a	n/a	"2021-02-25 13:52:22.336113"	"2021-02-25 13:52:22.851913"	3	2.02551818333333
"S210225"	"Processing_Speed"	"LEFT"	"DOWN"	270.969799999989	816.6666683	n/a	n/a	n/a	n/a	n/a	n/a	n/a	"2021-02-25 13:52:23.677281"	"2021-02-25 13:52:24.155107"	4	2.02551818333333
"S210225"	"Processing_Speed"	"RIGHT"	"DOWN"	246.618499999997	633.3333346	n/a	n/a	n/a	n/a	n/a	n/a	n/a	"2021-02-25 13:52:24.797006"	"2021-02-25 13:52:25.251145"	5	2.02551818333333
"S210225"	"Processing_Speed"	"LEFT"	"DOWN"	273.341500000001	566.6666678	n/a	n/a	n/a	n/a	n/a	n/a	n/a	"2021-02-25 13:52:25.826695"	"2021-02-25 13:52:26.308644"	6	2.02551818333333
"S210225"	"Processing_Speed"	"RIGHT"	"DOWN"	237.525000000005	816.6666683	n/a	n/a	n/a	n/a	n/a	n/a	n/a	"2021-02-25 13:52:27.134260"	"2021-02-25 13:52:27.579022"	7	2.02551818333333
"S210225"	"Processing_Speed"	"RIGHT"	"DOWN"	312.29359999999	1400.0000028	n/a	n/a	n/a	n/a	n/a	n/a	n/a	"2021-02-25 13:52:28.987086"	"2021-02-25 13:52:29.508690"	8	2.02551818333333
"S210225"	"Processing_Speed"	"LEFT"	"DOWN"	241.683899999998	1466.6666696	n/a	n/a	n/a	n/a	n/a	n/a	n/a	"2021-02-25 13:52:30.985960"	"2021-02-25 13:52:31.435756"	9	2.02551818333333
"S210225"	"Processing_Speed"	"LEFT"	"DOWN"	239.146199999993	1216.6666691	n/a	n/a	n/a	n/a	n/a	n/a	n/a	"2021-02-25 13:52:32.660859"	"2021-02-25 13:52:33.106923"	10	2.02551818333333
"S210225"	"Processing_Speed"	"RIGHT"	"DOWN"	207.963499999977	983.3333353	n/a	n/a	n/a	n/a	n/a	n/a	n/a	"2021-02-25 13:52:34.100263"	"2021-02-25 13:52:34.516667"	11	2.02551818333333
"S210225"	"Processing_Speed"	"RIGHT"	"DOWN"	220.055899999977	1266.6666692	n/a	n/a	n/a	n/a	n/a	n/a	n/a	"2021-02-25 13:52:35.792072"	"2021-02-25 13:52:36.219560"	12	2.02551818333333
"S210225"	"Processing_Speed"	"LEFT"	"DOWN"	265.289699999983	950.0000019	n/a	n/a	n/a	n/a	n/a	n/a	n/a	"2021-02-25 13:52:37.178591"	"2021-02-25 13:52:37.651895"	13	2.02551818333333
"S210225"	"Processing_Speed"	"LEFT"	"DOWN"	258.969000000008	1300.0000026	n/a	n/a	n/a	n/a	n/a	n/a	n/a	"2021-02-25 13:52:38.960171"	"2021-02-25 13:52:39.427094"	14	2.02551818333333
"S210225"	"Processing_Speed"	"LEFT"	"DOWN"	253.992099999977	850.0000017	n/a	n/a	n/a	n/a	n/a	n/a	n/a	"2021-02-25 13:52:40.285891"	"2021-02-25 13:52:40.747654"	15	2.02551818333333
"S210225"	"Processing_Speed"	"RIGHT"	"DOWN"	235.624200000018	1500.000003	n/a	n/a	n/a	n/a	n/a	n/a	n/a	"2021-02-25 13:52:42.255760"	"2021-02-25 13:52:42.699873"	16	2.02551818333333
"S210225"	"Processing_Speed"	"LEFT"	"DOWN"	249.999500000001	733.3333348	n/a	n/a	n/a	n/a	n/a	n/a	n/a	"2021-02-25 13:52:43.441507"	"2021-02-25 13:52:43.898880"	17	2.02551818333333
"S210225"	"Processing_Speed"	"RIGHT"	"DOWN"	297.542300000003	1366.6666694	n/a	n/a	n/a	n/a	n/a	n/a	n/a	"2021-02-25 13:52:45.274578"	"2021-02-25 13:52:45.778872"	18	2.02551818333333
"S210225"	"Processing_Speed"	"RIGHT"	"DOWN"	304.808600000001	1183.3333357	n/a	n/a	n/a	n/a	n/a	n/a	n/a	"2021-02-25 13:52:46.970389"	"2021-02-25 13:52:47.482959"	19	2.02551818333333
"S210225"	"Processing_Speed"	"LEFT"	"DOWN"	223.775799999999	1400.0000028	n/a	n/a	n/a	n/a	n/a	n/a	n/a	"2021-02-25 13:52:48.892414"	"2021-02-25 13:52:49.323448"	20	2.02551818333333
"S210225"	"Processing_Speed"	"LEFT"	"DOWN"	419.968699999998	700.0000014	n/a	n/a	n/a	n/a	n/a	n/a	n/a	"2021-02-25 13:52:50.032132"	"2021-02-25 13:52:50.659437"	21	2.02551818333333
"S210225"	"Processing_Speed"	"RIGHT"	"DOWN"	278.895200000022	1016.6666687	n/a	n/a	n/a	n/a	n/a	n/a	n/a	"2021-02-25 13:52:51.685062"	"2021-02-25 13:52:52.171536"	22	2.02551818333333
"S210225"	"Processing_Speed"	"LEFT"	"DOWN"	279.748099999978	983.3333353	n/a	n/a	n/a	n/a	n/a	n/a	n/a	"2021-02-25 13:52:53.163751"	"2021-02-25 13:52:53.652442"	23	2.02551818333333
"S210225"	"Processing_Speed"	"RIGHT"	"DOWN"	251.569499999988	1050.0000021	n/a	n/a	n/a	n/a	n/a	n/a	n/a	"2021-02-25 13:52:54.711887"	"2021-02-25 13:52:55.171696"	24	2.02551818333333
"S210225"	"Processing_Speed"	"RIGHT"	"DOWN"	246.403999999984	1433.3333362	n/a	n/a	n/a	n/a	n/a	n/a	n/a	"2021-02-25 13:52:56.613450"	"2021-02-25 13:52:57.067235"	25	2.02551818333333
"S210225"	"Processing_Speed"	"LEFT"	"DOWN"	258.975300000003	916.6666685	n/a	n/a	n/a	n/a	n/a	n/a	n/a	"2021-02-25 13:52:57.992952"	"2021-02-25 13:52:58.460711"	26	2.02551818333333
"S210225"	"Processing_Speed"	"LEFT"	"DOWN"	236.033599999985	1266.6666692	n/a	n/a	n/a	n/a	n/a	n/a	n/a	"2021-02-25 13:52:59.735821"	"2021-02-25 13:53:00.179885"	27	2.02551818333333
"S210225"	"Processing_Speed"	"LEFT"	"DOWN"	241.183000000007	1333.333336	n/a	n/a	n/a	n/a	n/a	n/a	n/a	"2021-02-25 13:53:01.522040"	"2021-02-25 13:53:01.973331"	28	2.02551818333333
"S210225"	"Processing_Speed"	"RIGHT"	"DOWN"	288.620600000002	1333.333336	n/a	n/a	n/a	n/a	n/a	n/a	n/a	"2021-02-25 13:53:03.314912"	"2021-02-25 13:53:03.811660"	29	2.02551818333333
"S210225"	"Processing_Speed"	"RIGHT"	"DOWN"	266.414900000001	1116.6666689	n/a	n/a	n/a	n/a	n/a	n/a	n/a	"2021-02-25 13:53:04.937204"	"2021-02-25 13:53:05.411173"	30	2.02551818333333
"S210225"	"Processing_Speed"	"RIGHT"	"DOWN"	218.932199999983	916.6666685	n/a	n/a	n/a	n/a	n/a	n/a	n/a	"2021-02-25 13:53:06.336328"	"2021-02-25 13:53:06.763148"	31	2.02551818333333
"S210225"	"Processing_Speed"	"RIGHT"	"DOWN"	219.539499999996	1083.3333355	n/a	n/a	n/a	n/a	n/a	n/a	n/a	"2021-02-25 13:53:07.856376"	"2021-02-25 13:53:08.283684"	32	2.02551818333333
"S210225"	"Processing_Speed"	"RIGHT"	"DOWN"	253.493300000002	850.0000017	n/a	n/a	n/a	n/a	n/a	n/a	n/a	"2021-02-25 13:53:09.142521"	"2021-02-25 13:53:09.604511"	33	2.02551818333333
"S210225"	"Processing_Speed"	"RIGHT"	"DOWN"	243.519900000024	1466.6666696	n/a	n/a	n/a	n/a	n/a	n/a	n/a	"2021-02-25 13:53:11.080096"	"2021-02-25 13:53:11.532435"	34	2.02551818333333
"S210225"	"Processing_Speed"	"RIGHT"	"DOWN"	274.747500000018	700.0000014	n/a	n/a	n/a	n/a	n/a	n/a	n/a	"2021-02-25 13:53:12.241159"	"2021-02-25 13:53:12.723032"	35	2.02551818333333
"S210225"	"Processing_Speed"	"LEFT"	"DOWN"	290.472699999981	533.3333344	n/a	n/a	n/a	n/a	n/a	n/a	n/a	"2021-02-25 13:53:13.265186"	"2021-02-25 13:53:13.762853"	36	2.02551818333333
"S210225"	"Processing_Speed"	"LEFT"	"DOWN"	286.0321	666.666668	n/a	n/a	n/a	n/a	n/a	n/a	n/a	"2021-02-25 13:53:14.437642"	"2021-02-25 13:53:14.932329"	37	2.02551818333333
"S210225"	"Processing_Speed"	"LEFT"	"DOWN"	303.40129999999	783.3333349	n/a	n/a	n/a	n/a	n/a	n/a	n/a	"2021-02-25 13:53:15.724224"	"2021-02-25 13:53:16.236071"	38	2.02551818333333
"S210225"	"Processing_Speed"	"LEFT"	"DOWN"	266.434000000004	1116.6666689	n/a	n/a	n/a	n/a	n/a	n/a	n/a	"2021-02-25 13:53:17.361687"	"2021-02-25 13:53:17.834946"	39	2.02551818333333
"S210225"	"Processing_Speed"	"RIGHT"	"DOWN"	252.544900000004	883.3333351	n/a	n/a	n/a	n/a	n/a	n/a	n/a	"2021-02-25 13:53:18.727263"	"2021-02-25 13:53:19.188240"	40	2.02551818333333
"S210225"	"Processing_Speed"	"RIGHT"	"DOWN"	239.134699999994	783.3333349	n/a	n/a	n/a	n/a	n/a	n/a	n/a	"2021-02-25 13:53:19.980630"	"2021-02-25 13:53:20.427772"	41	2.02551818333333
"S210225"	"Processing_Speed"	"RIGHT"	"DOWN"	263.020000000012	600.0000012	n/a	n/a	n/a	n/a	n/a	n/a	n/a	"2021-02-25 13:53:21.036397"	"2021-02-25 13:53:21.508599"	42	2.02551818333333
"S210225"	"Processing_Speed"	"LEFT"	"DOWN"	247.303199999976	1183.3333357	n/a	n/a	n/a	n/a	n/a	n/a	n/a	"2021-02-25 13:53:22.700583"	"2021-02-25 13:53:23.155205"	43	2.02551818333333
"S210225"	"Processing_Speed"	"LEFT"	"DOWN"	247.159799999991	1016.6666687	n/a	n/a	n/a	n/a	n/a	n/a	n/a	"2021-02-25 13:53:24.180120"	"2021-02-25 13:53:24.635198"	44	2.02551818333333
"S210225"	"Processing_Speed"	"LEFT"	"DOWN"	269.708000000008	1050.0000021	n/a	n/a	n/a	n/a	n/a	n/a	n/a	"2021-02-25 13:53:25.693789"	"2021-02-25 13:53:26.173159"	45	2.02551818333333
"S210225"	"Processing_Speed"	"RIGHT"	"DOWN"	320.106100000004	950.0000019	n/a	n/a	n/a	n/a	n/a	n/a	n/a	"2021-02-25 13:53:27.131790"	"2021-02-25 13:53:27.659417"	46	2.02551818333333
"S210225"	"Processing_Speed"	"RIGHT"	"DOWN"	419.544299999984	500.000001	n/a	n/a	n/a	n/a	n/a	n/a	n/a	"2021-02-25 13:53:28.169089"	"2021-02-25 13:53:28.796208"	47	2.02551818333333
"S210225"	"Processing_Speed"	"LEFT"	"DOWN"	235.374900000011	1083.3333355	n/a	n/a	n/a	n/a	n/a	n/a	n/a	"2021-02-25 13:53:29.888708"	"2021-02-25 13:53:30.331164"	48	2.02551818333333
"S210225"	"Processing_Speed"	"LEFT"	"DOWN"	257.277499999987	1366.6666694	n/a	n/a	n/a	n/a	n/a	n/a	n/a	"2021-02-25 13:53:31.706531"	"2021-02-25 13:53:32.172285"	49	2.02551818333333
"S210225"	"Processing_Speed"	"LEFT"	"DOWN"	298.937200000012	500.000001	n/a	n/a	n/a	n/a	n/a	n/a	n/a	"2021-02-25 13:53:32.681071"	"2021-02-25 13:53:33.187715"	50	2.02551818333333
"S210225"	"Processing_Speed"	"LEFT"	"DOWN"	245.847599999991	1433.3333362	n/a	n/a	n/a	n/a	n/a	n/a	n/a	"2021-02-25 13:53:34.629883"	"2021-02-25 13:53:35.083671"	51	2.02551818333333
"S210225"	"Processing_Speed"	"RIGHT"	"DOWN"	300.722699999994	666.666668	n/a	n/a	n/a	n/a	n/a	n/a	n/a	"2021-02-25 13:53:35.758465"	"2021-02-25 13:53:36.267107"	52	2.02551818333333
"S210225"	"Processing_Speed"	"LEFT"	"DOWN"	260.771499999976	600.0000012	n/a	n/a	n/a	n/a	n/a	n/a	n/a	"2021-02-25 13:53:36.878559"	"2021-02-25 13:53:37.348303"	53	2.02551818333333
"S210225"	"Processing_Speed"	"RIGHT"	"DOWN"	232.637900000014	733.3333348	n/a	n/a	n/a	n/a	n/a	n/a	n/a	"2021-02-25 13:53:38.090667"	"2021-02-25 13:53:38.531788"	54	2.02551818333333
"S210225"	"Processing_Speed"	"RIGHT"	"DOWN"	272.68380000001	566.6666678	n/a	n/a	n/a	n/a	n/a	n/a	n/a	"2021-02-25 13:53:39.106861"	"2021-02-25 13:53:39.587081"	55	2.02551818333333
"S210225"	"Processing_Speed"	"RIGHT"	"DOWN"	195.987600000024	1300.0000026	n/a	n/a	n/a	n/a	n/a	n/a	n/a	"2021-02-25 13:53:40.895702"	"2021-02-25 13:53:41.299175"	56	2.02551818333333
"S210225"	"Processing_Speed"	"RIGHT"	"DOWN"	231.397500000014	1216.6666691	n/a	n/a	n/a	n/a	n/a	n/a	n/a	"2021-02-25 13:53:42.524757"	"2021-02-25 13:53:42.963549"	57	2.02551818333333
"S210225"	"Processing_Speed"	"LEFT"	"DOWN"	270.37820000001	633.3333346	n/a	n/a	n/a	n/a	n/a	n/a	n/a	"2021-02-25 13:53:43.605084"	"2021-02-25 13:53:44.084805"	58	2.02551818333333
"S210225"	"Processing_Speed"	"LEFT"	"DOWN"	210.952300000002	883.3333351	n/a	n/a	n/a	n/a	n/a	n/a	n/a	"2021-02-25 13:53:44.976523"	"2021-02-25 13:53:45.395986"	59	2.02551818333333
"S210225"	"Processing_Speed"	"RIGHT"	"DOWN"	209.403900000012	1150.0000023	n/a	n/a	n/a	n/a	n/a	n/a	n/a	"2021-02-25 13:53:46.554579"	"2021-02-25 13:53:46.971715"	60	2.02551818333333
"S210225"	"Response_Inhibition"	"LEFT"	"LEFT"	326.833299999976	1433.3333362	n/a	n/a	n/a	n/a	n/a	n/a	n/a	"2021-02-25 13:57:29.684163"	"2021-02-25 13:57:30.219810"	1	5.38357706666667
"S210225"	"Response_Inhibition"	"RIGHT"	"RIGHT"	274.458899999956	1316.6666693	n/a	n/a	n/a	n/a	n/a	n/a	n/a	"2021-02-25 13:57:31.544711"	"2021-02-25 13:57:32.027017"	2	5.38357706666667
"S210225"	"Response_Inhibition"	"RIGHT"	"RIGHT"	335.331300000007	1416.6666695	n/a	n/a	n/a	n/a	n/a	n/a	n/a	"2021-02-25 13:57:33.451773"	"2021-02-25 13:57:33.994991"	3	5.38357706666667
"S210225"	"Response_Inhibition"	"RIGHT"	"RIGHT"	324.415299999998	683.3333347	n/a	n/a	n/a	n/a	n/a	n/a	n/a	"2021-02-25 13:57:34.687221"	"2021-02-25 13:57:35.219664"	4	5.38357706666667
"S210225"	"Response_Inhibition"	"LEFT"	"LEFT"	277.427900000021	1233.3333358	n/a	n/a	n/a	n/a	n/a	n/a	n/a	"2021-02-25 13:57:36.461625"	"2021-02-25 13:57:36.947321"	5	5.38357706666667
"S210225"	"Response_Inhibition"	"LEFT"	"LEFT"	334.129300400041	950.0000019	n/a	n/a	n/a	n/a	n/a	n/a	n/a	"2021-02-25 13:57:37.905512"	"2021-02-25 13:57:38.451053"	6	5.38357706666667
"S210225"	"Response_Inhibition"	"RIGHT"	"RIGHT"	337.236833700013	683.3333347	n/a	n/a	n/a	n/a	n/a	n/a	n/a	"2021-02-25 13:57:39.142816"	"2021-02-25 13:57:39.691142"	7	5.38357706666667
"S210225"	"Response_Inhibition"	"LEFT"	"Time_Max_Exceeded"	1500.05983389999	800.0000016	n/a	n/a	n/a	n/a	n/a	n/a	n/a	"2021-02-25 13:57:40.499979"	"2021-02-25 13:57:42.002652"	8	5.38357706666667
"S210225"	"Response_Inhibition"	"RIGHT"	"RIGHT"	281.243000000018	1350.0000027	n/a	n/a	n/a	n/a	n/a	n/a	n/a	"2021-02-25 13:57:43.362175"	"2021-02-25 13:57:43.850866"	9	5.38357706666667
"S210225"	"Response_Inhibition"	"RIGHT"	"RIGHT"	325.649399999975	666.666668	n/a	n/a	n/a	n/a	n/a	n/a	n/a	"2021-02-25 13:57:44.526177"	"2021-02-25 13:57:45.060628"	10	5.38357706666667
"S210225"	"Response_Inhibition"	"RIGHT"	"RIGHT"	297.74156680001	633.3333346	n/a	n/a	n/a	n/a	n/a	n/a	n/a	"2021-02-25 13:57:45.702911"	"2021-02-25 13:57:46.211034"	11	5.38357706666667
"S210225"	"Response_Inhibition"	"RIGHT"	"RIGHT"	746.44980000005	533.3333344	n/a	n/a	n/a	n/a	n/a	n/a	n/a	"2021-02-25 13:57:46.753169"	"2021-02-25 13:57:47.708230"	12	5.38357706666667
"S210225"	"Response_Inhibition"	"RIGHT"	"RIGHT"	332.704999999976	1250.0000025	n/a	n/a	n/a	n/a	n/a	n/a	n/a	"2021-02-25 13:57:48.966614"	"2021-02-25 13:57:49.507167"	13	5.38357706666667
"S210225"	"Response_Inhibition"	"RIGHT"	"RIGHT"	345.176900000013	1366.6666694	n/a	n/a	n/a	n/a	n/a	n/a	n/a	"2021-02-25 13:57:50.882328"	"2021-02-25 13:57:51.436797"	14	5.38357706666667
"S210225"	"Response_Inhibition"	"LEFT"	"LEFT"	367.305299999998	766.6666682	n/a	n/a	n/a	n/a	n/a	n/a	n/a	"2021-02-25 13:57:52.212245"	"2021-02-25 13:57:52.788749"	15	5.38357706666667
"S210225"	"Response_Inhibition"	"LEFT"	"LEFT"	346.487866999992	1000.000002	n/a	n/a	n/a	n/a	n/a	n/a	n/a	"2021-02-25 13:57:53.797077"	"2021-02-25 13:57:54.354094"	16	5.38357706666667
"S210225"	"Response_Inhibition"	"RIGHT"	"RIGHT"	500.24830000001	900.0000018	n/a	n/a	n/a	n/a	n/a	n/a	n/a	"2021-02-25 13:57:55.263246"	"2021-02-25 13:57:55.971276"	17	5.38357706666667
"S210225"	"Response_Inhibition"	"LEFT"	"LEFT"	334.695899999986	1400.0000028	n/a	n/a	n/a	n/a	n/a	n/a	n/a	"2021-02-25 13:57:57.380695"	"2021-02-25 13:57:57.922831"	18	5.38357706666667
"S210225"	"Response_Inhibition"	"RIGHT"	"RIGHT"	608.102799999983	600.0000012	n/a	n/a	n/a	n/a	n/a	n/a	n/a	"2021-02-25 13:57:58.531218"	"2021-02-25 13:57:59.347570"	19	5.38357706666667
"S210225"	"Response_Inhibition"	"RIGHT"	"RIGHT"	347.833100000003	1083.3333355	n/a	n/a	n/a	n/a	n/a	n/a	n/a	"2021-02-25 13:58:00.439873"	"2021-02-25 13:58:00.996980"	20	5.38357706666667
"S210225"	"Response_Inhibition"	"LEFT"	"LEFT"	306.712199999993	1066.6666688	n/a	n/a	n/a	n/a	n/a	n/a	n/a	"2021-02-25 13:58:02.072371"	"2021-02-25 13:58:02.587689"	21	5.38357706666667
"S210225"	"Response_Inhibition"	"LEFT"	"LEFT"	343.834999999956	583.3333345	n/a	n/a	n/a	n/a	n/a	n/a	n/a	"2021-02-25 13:58:03.179873"	"2021-02-25 13:58:03.730864"	22	5.38357706666667
"S210225"	"Response_Inhibition"	"LEFT"	"LEFT"	291.611533700029	633.3333346	n/a	n/a	n/a	n/a	n/a	n/a	n/a	"2021-02-25 13:58:04.372852"	"2021-02-25 13:58:04.875517"	23	5.38357706666667
"S210225"	"Response_Inhibition"	"LEFT"	"LEFT"	327.557133499986	916.6666685	n/a	n/a	n/a	n/a	n/a	n/a	n/a	"2021-02-25 13:58:05.801132"	"2021-02-25 13:58:06.339346"	24	5.38357706666667
"S210225"	"Response_Inhibition"	"RIGHT"	"RIGHT"	304.767799999979	950.0000019	n/a	n/a	n/a	n/a	n/a	n/a	n/a	"2021-02-25 13:58:07.298978"	"2021-02-25 13:58:07.811010"	25	5.38357706666667
"S210225"	"Response_Inhibition"	"LEFT"	"LEFT"	287.619199999995	1366.6666694	n/a	n/a	n/a	n/a	n/a	n/a	n/a	"2021-02-25 13:58:09.187602"	"2021-02-25 13:58:09.682998"	26	5.38357706666667
"S210225"	"Response_Inhibition"	"LEFT"	"Time_Max_Exceeded"	1500.06253379999	683.3333347	n/a	n/a	n/a	n/a	n/a	n/a	n/a	"2021-02-25 13:58:10.374946"	"2021-02-25 13:58:11.878607"	27	5.38357706666667
"S210225"	"Response_Inhibition"	"LEFT"	"LEFT"	391.980999999987	500.000001	n/a	n/a	n/a	n/a	n/a	n/a	n/a	"2021-02-25 13:58:12.387352"	"2021-02-25 13:58:12.987297"	28	5.38357706666667
"S210225"	"Response_Inhibition"	"LEFT"	"LEFT"	323.731100299998	616.6666679	n/a	n/a	n/a	n/a	n/a	n/a	n/a	"2021-02-25 13:58:13.612628"	"2021-02-25 13:58:14.147055"	29	5.38357706666667
"S210225"	"Response_Inhibition"	"LEFT"	"Time_Max_Exceeded"	1500.05480030001	1200.0000024	n/a	n/a	n/a	n/a	n/a	n/a	n/a	"2021-02-25 13:58:15.355341"	"2021-02-25 13:58:16.858524"	30	5.38357706666667
"S210225"	"Response_Inhibition"	"RIGHT"	"RIGHT"	373.982500000011	633.3333346	n/a	n/a	n/a	n/a	n/a	n/a	n/a	"2021-02-25 13:58:17.501242"	"2021-02-25 13:58:18.083684"	31	5.38357706666667
"S210225"	"Response_Inhibition"	"LEFT"	"LEFT"	354.748900000004	516.6666677	n/a	n/a	n/a	n/a	n/a	n/a	n/a	"2021-02-25 13:58:18.608926"	"2021-02-25 13:58:19.171568"	32	5.38357706666667
"S210225"	"Response_Inhibition"	"LEFT"	"LEFT"	443.757399999981	1483.3333363	n/a	n/a	n/a	n/a	n/a	n/a	n/a	"2021-02-25 13:58:20.663143"	"2021-02-25 13:58:21.314916"	33	5.38357706666667
"S210225"	"Response_Inhibition"	"RIGHT"	"RIGHT"	272.8702	983.3333353	n/a	n/a	n/a	n/a	n/a	n/a	n/a	"2021-02-25 13:58:22.306619"	"2021-02-25 13:58:22.787333"	34	5.38357706666667
"S210225"	"Response_Inhibition"	"RIGHT"	"RIGHT"	355.941199999961	1483.3333363	n/a	n/a	n/a	n/a	n/a	n/a	n/a	"2021-02-25 13:58:24.279220"	"2021-02-25 13:58:24.842974"	35	5.38357706666667
"S210225"	"Response_Inhibition"	"LEFT"	"LEFT"	459.296300000005	900.0000018	n/a	n/a	n/a	n/a	n/a	n/a	n/a	"2021-02-25 13:58:25.751626"	"2021-02-25 13:58:26.419351"	36	5.38357706666667
"S210225"	"Response_Inhibition"	"LEFT"	"LEFT"	460.101199999997	683.3333347	n/a	n/a	n/a	n/a	n/a	n/a	n/a	"2021-02-25 13:58:27.111629"	"2021-02-25 13:58:27.779197"	37	5.38357706666667
"S210225"	"Response_Inhibition"	"LEFT"	"LEFT"	553.472299999953	1350.0000027	n/a	n/a	n/a	n/a	n/a	n/a	n/a	"2021-02-25 13:58:29.137568"	"2021-02-25 13:58:29.899772"	38	5.38357706666667
"S210225"	"Response_Inhibition"	"RIGHT"	"RIGHT"	429.191199999991	833.333335	n/a	n/a	n/a	n/a	n/a	n/a	n/a	"2021-02-25 13:58:30.742124"	"2021-02-25 13:58:31.378855"	39	5.38357706666667
"S210225"	"Response_Inhibition"	"RIGHT"	"RIGHT"	303.816900000015	1200.0000024	n/a	n/a	n/a	n/a	n/a	n/a	n/a	"2021-02-25 13:58:32.587810"	"2021-02-25 13:58:33.098872"	40	5.38357706666667
"S210225"	"Response_Inhibition"	"RIGHT"	"RIGHT"	277.833200199952	966.6666686	n/a	n/a	n/a	n/a	n/a	n/a	n/a	"2021-02-25 13:58:34.074001"	"2021-02-25 13:58:34.563151"	41	5.38357706666667
"S210225"	"Response_Inhibition"	"RIGHT"	"RIGHT"	487.048200000004	1216.6666691	n/a	n/a	n/a	n/a	n/a	n/a	n/a	"2021-02-25 13:58:35.788626"	"2021-02-25 13:58:36.482820"	42	5.38357706666667
"S210225"	"Response_Inhibition"	"RIGHT"	"RIGHT"	339.167599999996	933.3333352	n/a	n/a	n/a	n/a	n/a	n/a	n/a	"2021-02-25 13:58:37.424450"	"2021-02-25 13:58:37.971725"	43	5.38357706666667
"S210225"	"Response_Inhibition"	"LEFT"	"LEFT"	344.056899999998	1150.0000023	n/a	n/a	n/a	n/a	n/a	n/a	n/a	"2021-02-25 13:58:39.131450"	"2021-02-25 13:58:39.683043"	44	5.38357706666667
"S210225"	"Response_Inhibition"	"LEFT"	"LEFT"	373.868899999991	650.0000013	n/a	n/a	n/a	n/a	n/a	n/a	n/a	"2021-02-25 13:58:40.341283"	"2021-02-25 13:58:40.922822"	45	5.38357706666667
"S210225"	"Response_Inhibition"	"RIGHT"	"RIGHT"	266.034199999979	750.0000015	n/a	n/a	n/a	n/a	n/a	n/a	n/a	"2021-02-25 13:58:41.681168"	"2021-02-25 13:58:42.154932"	46	5.38357706666667
"S210225"	"Response_Inhibition"	"LEFT"	"LEFT"	288.577500000031	583.3333345	n/a	n/a	n/a	n/a	n/a	n/a	n/a	"2021-02-25 13:58:42.746416"	"2021-02-25 13:58:43.243340"	47	5.38357706666667
"S210225"	"Response_Inhibition"	"RIGHT"	"RIGHT"	297.409000000016	1150.0000023	n/a	n/a	n/a	n/a	n/a	n/a	n/a	"2021-02-25 13:58:44.401907"	"2021-02-25 13:58:44.907579"	48	5.38357706666667
"S210225"	"Response_Inhibition"	"LEFT"	"LEFT"	411.219099999983	866.6666684	n/a	n/a	n/a	n/a	n/a	n/a	n/a	"2021-02-25 13:58:45.783971"	"2021-02-25 13:58:46.403265"	49	5.38357706666667
"S210225"	"Response_Inhibition"	"LEFT"	"LEFT"	508.964600000013	1266.6666692	n/a	n/a	n/a	n/a	n/a	n/a	n/a	"2021-02-25 13:58:47.678492"	"2021-02-25 13:58:48.395341"	50	5.38357706666667
"S210225"	"Response_Inhibition"	"LEFT"	"LEFT"	357.9249	1016.6666687	n/a	n/a	n/a	n/a	n/a	n/a	n/a	"2021-02-25 13:58:49.420993"	"2021-02-25 13:58:49.985926"	51	5.38357706666667
"S210225"	"Response_Inhibition"	"LEFT"	"LEFT"	459.479299999998	733.3333348	n/a	n/a	n/a	n/a	n/a	n/a	n/a	"2021-02-25 13:58:50.728156"	"2021-02-25 13:58:51.396401"	52	5.38357706666667
"S210225"	"Response_Inhibition"	"RIGHT"	"RIGHT"	270.044067199977	733.3333348	n/a	n/a	n/a	n/a	n/a	n/a	n/a	"2021-02-25 13:58:52.138701"	"2021-02-25 13:58:52.619919"	53	5.38357706666667
"S210225"	"Response_Inhibition"	"RIGHT"	"Time_Max_Exceeded"	1500.07040000003	766.6666682	n/a	n/a	n/a	n/a	n/a	n/a	n/a	"2021-02-25 13:58:53.395876"	"2021-02-25 13:58:54.895456"	54	5.38357706666667
"S210225"	"Response_Inhibition"	"RIGHT"	"RIGHT"	336.084000000028	1466.6666696	n/a	n/a	n/a	n/a	n/a	n/a	n/a	"2021-02-25 13:58:56.371290"	"2021-02-25 13:58:56.914925"	55	5.38357706666667
"S210225"	"Response_Inhibition"	"RIGHT"	"RIGHT"	314.275799999905	733.3333348	n/a	n/a	n/a	n/a	n/a	n/a	n/a	"2021-02-25 13:58:57.657085"	"2021-02-25 13:58:58.179651"	56	5.38357706666667
"S210225"	"Response_Inhibition"	"LEFT"	"LEFT"	315.275266800011	1416.6666695	n/a	n/a	n/a	n/a	n/a	n/a	n/a	"2021-02-25 13:58:59.604947"	"2021-02-25 13:59:00.131601"	57	5.38357706666667
"S210225"	"Response_Inhibition"	"RIGHT"	"RIGHT"	458.732699999928	1116.6666689	n/a	n/a	n/a	n/a	n/a	n/a	n/a	"2021-02-25 13:59:01.256355"	"2021-02-25 13:59:01.924579"	58	5.38357706666667
"S210225"	"Response_Inhibition"	"LEFT"	"LEFT"	338.663100000076	1083.3333355	n/a	n/a	n/a	n/a	n/a	n/a	n/a	"2021-02-25 13:59:03.016343"	"2021-02-25 13:59:03.563089"	59	5.38357706666667
"S210225"	"Response_Inhibition"	"LEFT"	"Time_Max_Exceeded"	1500.05853359991	850.0000017	n/a	n/a	n/a	n/a	n/a	n/a	n/a	"2021-02-25 13:59:04.421932"	"2021-02-25 13:59:05.925943"	60	5.38357706666667
"S210225"	"Response_Inhibition"	"LEFT"	"LEFT"	340.9213002999	1316.6666693	n/a	n/a	n/a	n/a	n/a	n/a	n/a	"2021-02-25 13:59:07.251018"	"2021-02-25 13:59:07.803538"	61	5.38357706666667
"S210225"	"Response_Inhibition"	"LEFT"	"LEFT"	463.922900000057	1383.3333361	n/a	n/a	n/a	n/a	n/a	n/a	n/a	"2021-02-25 13:59:09.195601"	"2021-02-25 13:59:09.866840"	62	5.38357706666667
"S210225"	"Response_Inhibition"	"LEFT"	"Time_Max_Exceeded"	1500.05986679995	1100.0000022	n/a	n/a	n/a	n/a	n/a	n/a	n/a	"2021-02-25 13:59:10.975636"	"2021-02-25 13:59:12.480120"	63	5.38357706666667
"S210225"	"Response_Inhibition"	"LEFT"	"LEFT"	337.421466900009	750.0000015	n/a	n/a	n/a	n/a	n/a	n/a	n/a	"2021-02-25 13:59:13.238726"	"2021-02-25 13:59:13.786942"	64	5.38357706666667
"S210225"	"Response_Inhibition"	"RIGHT"	"Time_Max_Exceeded"	1500.0538335	1233.3333358	n/a	n/a	n/a	n/a	n/a	n/a	n/a	"2021-02-25 13:59:15.028480"	"2021-02-25 13:59:16.532500"	65	5.38357706666667
"S210225"	"Response_Inhibition"	"RIGHT"	"RIGHT"	294.018567199985	1333.333336	n/a	n/a	n/a	n/a	n/a	n/a	n/a	"2021-02-25 13:59:17.874966"	"2021-02-25 13:59:18.379606"	66	5.38357706666667
"S210225"	"Response_Inhibition"	"LEFT"	"LEFT"	535.015600000065	600.0000012	n/a	n/a	n/a	n/a	n/a	n/a	n/a	"2021-02-25 13:59:18.987928"	"2021-02-25 13:59:19.730202"	67	5.38357706666667
"S210225"	"Response_Inhibition"	"RIGHT"	"RIGHT"	517.63840000001	1450.0000029	n/a	n/a	n/a	n/a	n/a	n/a	n/a	"2021-02-25 13:59:21.189424"	"2021-02-25 13:59:21.914854"	68	5.38357706666667
"S210225"	"Response_Inhibition"	"LEFT"	"LEFT"	369.654499999911	1333.333336	n/a	n/a	n/a	n/a	n/a	n/a	n/a	"2021-02-25 13:59:23.257917"	"2021-02-25 13:59:23.836336"	69	5.38357706666667
"S210225"	"Response_Inhibition"	"RIGHT"	"RIGHT"	410.625299999992	500.000001	n/a	n/a	n/a	n/a	n/a	n/a	n/a	"2021-02-25 13:59:24.344662"	"2021-02-25 13:59:24.963481"	70	5.38357706666667
"S210225"	"Response_Inhibition"	"RIGHT"	"RIGHT"	341.088367000039	1366.6666694	n/a	n/a	n/a	n/a	n/a	n/a	n/a	"2021-02-25 13:59:26.338728"	"2021-02-25 13:59:26.891412"	71	5.38357706666667
"S210225"	"Response_Inhibition"	"RIGHT"	"RIGHT"	719.991499999992	783.3333349	n/a	n/a	n/a	n/a	n/a	n/a	n/a	"2021-02-25 13:59:27.683344"	"2021-02-25 13:59:28.611172"	72	5.38357706666667
"S210225"	"Response_Inhibition"	"RIGHT"	"RIGHT"	322.342399999911	533.3333344	n/a	n/a	n/a	n/a	n/a	n/a	n/a	"2021-02-25 13:59:29.152733"	"2021-02-25 13:59:29.683390"	73	5.38357706666667
"S210225"	"Response_Inhibition"	"RIGHT"	"RIGHT"	318.268500000045	1033.3333354	n/a	n/a	n/a	n/a	n/a	n/a	n/a	"2021-02-25 13:59:30.724832"	"2021-02-25 13:59:31.251705"	74	5.38357706666667
"S210225"	"Response_Inhibition"	"LEFT"	"LEFT"	343.787999999904	783.3333349	n/a	n/a	n/a	n/a	n/a	n/a	n/a	"2021-02-25 13:59:32.043745"	"2021-02-25 13:59:32.595594"	75	5.38357706666667
"S210225"	"Response_Inhibition"	"LEFT"	"LEFT"	459.038999999962	1466.6666696	n/a	n/a	n/a	n/a	n/a	n/a	n/a	"2021-02-25 13:59:34.072661"	"2021-02-25 13:59:34.739625"	76	5.38357706666667
"S210225"	"Response_Inhibition"	"LEFT"	"LEFT"	357.442600000013	1216.6666691	n/a	n/a	n/a	n/a	n/a	n/a	n/a	"2021-02-25 13:59:35.966274"	"2021-02-25 13:59:36.531254"	77	5.38357706666667
"S210225"	"Response_Inhibition"	"RIGHT"	"RIGHT"	430.982700000072	1216.6666691	n/a	n/a	n/a	n/a	n/a	n/a	n/a	"2021-02-25 13:59:37.756471"	"2021-02-25 13:59:38.395760"	78	5.38357706666667
"S210225"	"Response_Inhibition"	"RIGHT"	"RIGHT"	296.868600000039	916.6666685	n/a	n/a	n/a	n/a	n/a	n/a	n/a	"2021-02-25 13:59:39.322868"	"2021-02-25 13:59:39.826152"	79	5.38357706666667
"S210225"	"Response_Inhibition"	"LEFT"	"LEFT"	315.215800000033	1133.3333356	n/a	n/a	n/a	n/a	n/a	n/a	n/a	"2021-02-25 13:59:40.967784"	"2021-02-25 13:59:41.490742"	80	5.38357706666667
"S210225"	"Response_Inhibition"	"LEFT"	"LEFT"	335.843700500055	716.6666681	n/a	n/a	n/a	n/a	n/a	n/a	n/a	"2021-02-25 13:59:42.216493"	"2021-02-25 13:59:42.764101"	81	5.38357706666667
"S210225"	"Response_Inhibition"	"RIGHT"	"RIGHT"	484.816300000034	1016.6666687	n/a	n/a	n/a	n/a	n/a	n/a	n/a	"2021-02-25 13:59:43.789936"	"2021-02-25 13:59:44.482853"	82	5.38357706666667
"S210225"	"Response_Inhibition"	"RIGHT"	"RIGHT"	328.774933900004	900.0000018	n/a	n/a	n/a	n/a	n/a	n/a	n/a	"2021-02-25 13:59:45.391479"	"2021-02-25 13:59:45.930859"	83	5.38357706666667
"S210225"	"Response_Inhibition"	"RIGHT"	"Time_Max_Exceeded"	1500.05500009991	1316.6666693	n/a	n/a	n/a	n/a	n/a	n/a	n/a	"2021-02-25 13:59:47.256477"	"2021-02-25 13:59:48.759639"	84	5.38357706666667
"S210225"	"Response_Inhibition"	"LEFT"	"LEFT"	316.590799999972	783.3333349	n/a	n/a	n/a	n/a	n/a	n/a	n/a	"2021-02-25 13:59:49.551597"	"2021-02-25 13:59:50.076542"	85	5.38357706666667
"S210225"	"Response_Inhibition"	"RIGHT"	"RIGHT"	284.096500000032	1050.0000021	n/a	n/a	n/a	n/a	n/a	n/a	n/a	"2021-02-25 13:59:51.135384"	"2021-02-25 13:59:51.627006"	86	5.38357706666667
"S210225"	"Response_Inhibition"	"LEFT"	"LEFT"	289.241100200004	1250.0000025	n/a	n/a	n/a	n/a	n/a	n/a	n/a	"2021-02-25 13:59:52.886282"	"2021-02-25 13:59:53.387470"	87	5.38357706666667
"S210225"	"Response_Inhibition"	"LEFT"	"Time_Max_Exceeded"	1500.05366669999	1416.6666695	n/a	n/a	n/a	n/a	n/a	n/a	n/a	"2021-02-25 13:59:54.812232"	"2021-02-25 13:59:56.316193"	88	5.38357706666667
"S210225"	"Response_Inhibition"	"RIGHT"	"RIGHT"	361.951700000077	883.3333351	n/a	n/a	n/a	n/a	n/a	n/a	n/a	"2021-02-25 13:59:57.209484"	"2021-02-25 13:59:57.778960"	89	5.38357706666667
"S210225"	"Response_Inhibition"	"RIGHT"	"RIGHT"	383.861499999966	1400.0000028	n/a	n/a	n/a	n/a	n/a	n/a	n/a	"2021-02-25 13:59:59.187182"	"2021-02-25 13:59:59.778337"	90	5.38357706666667
"S210225"	"Response_Inhibition"	"RIGHT"	"Time_Max_Exceeded"	1500.0504334001	550.0000011	n/a	n/a	n/a	n/a	n/a	n/a	n/a	"2021-02-25 14:00:00.336799"	"2021-02-25 14:00:01.840701"	91	5.38357706666667
"S210225"	"Response_Inhibition"	"LEFT"	"Time_Max_Exceeded"	1500.05683340006	816.6666683	n/a	n/a	n/a	n/a	n/a	n/a	n/a	"2021-02-25 14:00:02.667045"	"2021-02-25 14:00:04.170668"	92	5.38357706666667
"S210225"	"Response_Inhibition"	"LEFT"	"LEFT"	451.302400000031	1500.000003	n/a	n/a	n/a	n/a	n/a	n/a	n/a	"2021-02-25 14:00:05.680538"	"2021-02-25 14:00:06.339118"	93	5.38357706666667
"S210225"	"Response_Inhibition"	"LEFT"	"LEFT"	396.316999999954	883.3333351	n/a	n/a	n/a	n/a	n/a	n/a	n/a	"2021-02-25 14:00:07.231398"	"2021-02-25 14:00:07.835774"	94	5.38357706666667
"S210225"	"Response_Inhibition"	"RIGHT"	"RIGHT"	398.128733700071	950.0000019	n/a	n/a	n/a	n/a	n/a	n/a	n/a	"2021-02-25 14:00:08.794284"	"2021-02-25 14:00:09.404299"	95	5.38357706666667
"S210225"	"Response_Inhibition"	"LEFT"	"LEFT"	546.42089999993	1300.0000026	n/a	n/a	n/a	n/a	n/a	n/a	n/a	"2021-02-25 14:00:10.713181"	"2021-02-25 14:00:11.467965"	96	5.38357706666667
"S210225"	"Response_Inhibition"	"LEFT"	"LEFT"	368.246900499917	1283.3333359	n/a	n/a	n/a	n/a	n/a	n/a	n/a	"2021-02-25 14:00:12.760176"	"2021-02-25 14:00:13.339589"	97	5.38357706666667
"S210225"	"Response_Inhibition"	"LEFT"	"LEFT"	704.588899999976	533.3333344	n/a	n/a	n/a	n/a	n/a	n/a	n/a	"2021-02-25 14:00:13.882726"	"2021-02-25 14:00:14.795801"	98	5.38357706666667
"S210225"	"Response_Inhibition"	"LEFT"	"LEFT"	500.651600000083	850.0000017	n/a	n/a	n/a	n/a	n/a	n/a	n/a	"2021-02-25 14:00:15.655058"	"2021-02-25 14:00:16.363017"	99	5.38357706666667
"S210225"	"Response_Inhibition"	"LEFT"	"LEFT"	285.54456700003	1166.666669	n/a	n/a	n/a	n/a	n/a	n/a	n/a	"2021-02-25 14:00:17.538980"	"2021-02-25 14:00:18.034431"	100	5.38357706666667
"S210225"	"Response_Inhibition"	"LEFT"	"LEFT"	630.004000000099	1050.0000021	n/a	n/a	n/a	n/a	n/a	n/a	n/a	"2021-02-25 14:00:19.092725"	"2021-02-25 14:00:19.930211"	101	5.38357706666667
"S210225"	"Response_Inhibition"	"RIGHT"	"RIGHT"	331.515233600009	1050.0000021	n/a	n/a	n/a	n/a	n/a	n/a	n/a	"2021-02-25 14:00:20.988656"	"2021-02-25 14:00:21.531771"	102	5.38357706666667
"S210225"	"Response_Inhibition"	"LEFT"	"LEFT"	416.439500000024	966.6666686	n/a	n/a	n/a	n/a	n/a	n/a	n/a	"2021-02-25 14:00:22.506820"	"2021-02-25 14:00:23.130069"	103	5.38357706666667
"S210225"	"Response_Inhibition"	"RIGHT"	"RIGHT"	572.295600000075	700.0000014	n/a	n/a	n/a	n/a	n/a	n/a	n/a	"2021-02-25 14:00:23.839304"	"2021-02-25 14:00:24.618764"	104	5.38357706666667
"S210225"	"Response_Inhibition"	"RIGHT"	"RIGHT"	319.163133599965	1133.3333356	n/a	n/a	n/a	n/a	n/a	n/a	n/a	"2021-02-25 14:00:25.760440"	"2021-02-25 14:00:26.290065"	105	5.38357706666667
"S210225"	"Response_Inhibition"	"LEFT"	"LEFT"	361.913200199981	1466.6666696	n/a	n/a	n/a	n/a	n/a	n/a	n/a	"2021-02-25 14:00:27.765842"	"2021-02-25 14:00:28.339761"	106	5.38357706666667
"S210225"	"Response_Inhibition"	"LEFT"	"LEFT"	493.117900000016	633.3333346	n/a	n/a	n/a	n/a	n/a	n/a	n/a	"2021-02-25 14:00:28.981663"	"2021-02-25 14:00:29.683496"	107	5.38357706666667
"S210225"	"Response_Inhibition"	"RIGHT"	"RIGHT"	290.889300000003	1300.0000026	n/a	n/a	n/a	n/a	n/a	n/a	n/a	"2021-02-25 14:00:30.992155"	"2021-02-25 14:00:31.489870"	108	5.38357706666667
"S210225"	"Response_Inhibition"	"LEFT"	"LEFT"	379.899600000044	1116.6666689	n/a	n/a	n/a	n/a	n/a	n/a	n/a	"2021-02-25 14:00:32.615412"	"2021-02-25 14:00:33.203426"	109	5.38357706666667
"S210225"	"Response_Inhibition"	"RIGHT"	"RIGHT"	358.612300000004	1416.6666695	n/a	n/a	n/a	n/a	n/a	n/a	n/a	"2021-02-25 14:00:34.628334"	"2021-02-25 14:00:35.195443"	110	5.38357706666667
"S210225"	"Response_Inhibition"	"RIGHT"	"RIGHT"	355.266399999891	1100.0000022	n/a	n/a	n/a	n/a	n/a	n/a	n/a	"2021-02-25 14:00:36.304061"	"2021-02-25 14:00:36.867316"	111	5.38357706666667
"S210225"	"Response_Inhibition"	"RIGHT"	"Time_Max_Exceeded"	1500.06050009995	650.0000013	n/a	n/a	n/a	n/a	n/a	n/a	n/a	"2021-02-25 14:00:37.526145"	"2021-02-25 14:00:39.029192"	112	5.38357706666667
"S210225"	"Response_Inhibition"	"LEFT"	"LEFT"	356.758300000024	1000.000002	n/a	n/a	n/a	n/a	n/a	n/a	n/a	"2021-02-25 14:00:40.038534"	"2021-02-25 14:00:40.603329"	113	5.38357706666667
"S210225"	"Response_Inhibition"	"RIGHT"	"Time_Max_Exceeded"	1500.07303339995	1266.6666692	n/a	n/a	n/a	n/a	n/a	n/a	n/a	"2021-02-25 14:00:41.878229"	"2021-02-25 14:00:43.381939"	114	5.38357706666667
"S210225"	"Response_Inhibition"	"LEFT"	"LEFT"	337.725200399977	566.6666678	n/a	n/a	n/a	n/a	n/a	n/a	n/a	"2021-02-25 14:00:43.957322"	"2021-02-25 14:00:44.506017"	115	5.38357706666667
"S210225"	"Response_Inhibition"	"RIGHT"	"RIGHT"	373.36856710003	1000.000002	n/a	n/a	n/a	n/a	n/a	n/a	n/a	"2021-02-25 14:00:45.514358"	"2021-02-25 14:00:46.099145"	116	5.38357706666667
"S210225"	"Response_Inhibition"	"LEFT"	"LEFT"	529.144699999961	1183.3333357	n/a	n/a	n/a	n/a	n/a	n/a	n/a	"2021-02-25 14:00:47.291486"	"2021-02-25 14:00:48.028624"	117	5.38357706666667
"S210225"	"Response_Inhibition"	"LEFT"	"LEFT"	367.984299999989	550.0000011	n/a	n/a	n/a	n/a	n/a	n/a	n/a	"2021-02-25 14:00:48.587521"	"2021-02-25 14:00:49.163207"	118	5.38357706666667
"S210225"	"Response_Inhibition"	"LEFT"	"LEFT"	321.298700000057	950.0000019	n/a	n/a	n/a	n/a	n/a	n/a	n/a	"2021-02-25 14:00:50.122149"	"2021-02-25 14:00:50.649886"	119	5.38357706666667
"S210225"	"Response_Inhibition"	"LEFT"	"LEFT"	334.857067100003	1366.6666694	n/a	n/a	n/a	n/a	n/a	n/a	n/a	"2021-02-25 14:00:52.025327"	"2021-02-25 14:00:52.571394"	120	5.38357706666667
"S210225"	"Response_Inhibition"	"RIGHT"	"RIGHT"	536.853699999938	1166.666669	n/a	n/a	n/a	n/a	n/a	n/a	n/a	"2021-02-25 14:00:53.746575"	"2021-02-25 14:00:54.491343"	121	5.38357706666667
"S210225"	"Response_Inhibition"	"LEFT"	"Time_Max_Exceeded"	1500.06310000003	1033.3333354	n/a	n/a	n/a	n/a	n/a	n/a	n/a	"2021-02-25 14:00:55.534089"	"2021-02-25 14:00:57.033808"	122	5.38357706666667
"S210225"	"Response_Inhibition"	"LEFT"	"Time_Max_Exceeded"	1500.05906670007	533.3333344	n/a	n/a	n/a	n/a	n/a	n/a	n/a	"2021-02-25 14:00:57.576506"	"2021-02-25 14:00:59.079713"	123	5.38357706666667
"S210225"	"Response_Inhibition"	"LEFT"	"LEFT"	401.087400000051	1216.6666691	n/a	n/a	n/a	n/a	n/a	n/a	n/a	"2021-02-25 14:01:00.306159"	"2021-02-25 14:01:00.913986"	124	5.38357706666667
"S210225"	"Response_Inhibition"	"LEFT"	"LEFT"	339.81760000006	1100.0000022	n/a	n/a	n/a	n/a	n/a	n/a	n/a	"2021-02-25 14:01:02.023237"	"2021-02-25 14:01:02.572318"	125	5.38357706666667
"S210225"	"Response_Inhibition"	"RIGHT"	"RIGHT"	311.066699999969	783.3333349	n/a	n/a	n/a	n/a	n/a	n/a	n/a	"2021-02-25 14:01:03.363738"	"2021-02-25 14:01:03.882390"	126	5.38357706666667
"S210225"	"Response_Inhibition"	"RIGHT"	"RIGHT"	284.127500000068	1100.0000022	n/a	n/a	n/a	n/a	n/a	n/a	n/a	"2021-02-25 14:01:04.990957"	"2021-02-25 14:01:05.482775"	127	5.38357706666667
"S210225"	"Response_Inhibition"	"LEFT"	"LEFT"	286.505199999965	833.333335	n/a	n/a	n/a	n/a	n/a	n/a	n/a	"2021-02-25 14:01:06.324687"	"2021-02-25 14:01:06.819363"	128	5.38357706666667
"S210225"	"Response_Inhibition"	"RIGHT"	"RIGHT"	284.91120000001	866.6666684	n/a	n/a	n/a	n/a	n/a	n/a	n/a	"2021-02-25 14:01:07.694661"	"2021-02-25 14:01:08.187294"	129	5.38357706666667
"S210225"	"Response_Inhibition"	"LEFT"	"LEFT"	367.04009999994	983.3333353	n/a	n/a	n/a	n/a	n/a	n/a	n/a	"2021-02-25 14:01:09.180338"	"2021-02-25 14:01:09.754054"	130	5.38357706666667
"S210225"	"Response_Inhibition"	"RIGHT"	"RIGHT"	286.165133600058	583.3333345	n/a	n/a	n/a	n/a	n/a	n/a	n/a	"2021-02-25 14:01:10.345436"	"2021-02-25 14:01:10.843317"	131	5.38357706666667
"S210225"	"Response_Inhibition"	"LEFT"	"LEFT"	451.67570000001	1266.6666692	n/a	n/a	n/a	n/a	n/a	n/a	n/a	"2021-02-25 14:01:12.119832"	"2021-02-25 14:01:12.778896"	132	5.38357706666667
"S210225"	"Response_Inhibition"	"LEFT"	"LEFT"	329.29409999997	933.3333352	n/a	n/a	n/a	n/a	n/a	n/a	n/a	"2021-02-25 14:01:13.721907"	"2021-02-25 14:01:14.259729"	133	5.38357706666667
"S210225"	"Response_Inhibition"	"LEFT"	"LEFT"	313.776467099998	1050.0000021	n/a	n/a	n/a	n/a	n/a	n/a	n/a	"2021-02-25 14:01:15.318447"	"2021-02-25 14:01:15.842264"	134	5.38357706666667
"S210225"	"Response_Inhibition"	"RIGHT"	"RIGHT"	384.496133800066	516.6666677	n/a	n/a	n/a	n/a	n/a	n/a	n/a	"2021-02-25 14:01:16.367538"	"2021-02-25 14:01:16.963634"	135	5.38357706666667
"S210225"	"Response_Inhibition"	"RIGHT"	"RIGHT"	540.451099999927	1266.6666692	n/a	n/a	n/a	n/a	n/a	n/a	n/a	"2021-02-25 14:01:18.239356"	"2021-02-25 14:01:18.987398"	136	5.38357706666667
"S210225"	"Response_Inhibition"	"RIGHT"	"RIGHT"	285.307333799973	1150.0000023	n/a	n/a	n/a	n/a	n/a	n/a	n/a	"2021-02-25 14:01:20.146852"	"2021-02-25 14:01:20.643508"	137	5.38357706666667
"S210225"	"Response_Inhibition"	"RIGHT"	"RIGHT"	361.681166900025	850.0000017	n/a	n/a	n/a	n/a	n/a	n/a	n/a	"2021-02-25 14:01:21.502318"	"2021-02-25 14:01:22.073973"	138	5.38357706666667
"S210225"	"Response_Inhibition"	"LEFT"	"LEFT"	571.683000000007	1316.6666693	n/a	n/a	n/a	n/a	n/a	n/a	n/a	"2021-02-25 14:01:23.399190"	"2021-02-25 14:01:24.178387"	139	5.38357706666667
"S210225"	"Response_Inhibition"	"LEFT"	"LEFT"	501.523900000052	1450.0000029	n/a	n/a	n/a	n/a	n/a	n/a	n/a	"2021-02-25 14:01:25.637212"	"2021-02-25 14:01:26.347110"	140	5.38357706666667
"S210225"	"Response_Inhibition"	"RIGHT"	"RIGHT"	343.484900000021	800.0000016	n/a	n/a	n/a	n/a	n/a	n/a	n/a	"2021-02-25 14:01:27.155543"	"2021-02-25 14:01:27.706632"	141	5.38357706666667
"S210225"	"Response_Inhibition"	"RIGHT"	"RIGHT"	355.803700500024	816.6666683	n/a	n/a	n/a	n/a	n/a	n/a	n/a	"2021-02-25 14:01:28.531744"	"2021-02-25 14:01:29.099500"	142	5.38357706666667
"S210225"	"Response_Inhibition"	"RIGHT"	"RIGHT"	361.283733499895	1466.6666696	n/a	n/a	n/a	n/a	n/a	n/a	n/a	"2021-02-25 14:01:30.574458"	"2021-02-25 14:01:31.147458"	143	5.38357706666667
"S210225"	"Response_Inhibition"	"RIGHT"	"RIGHT"	525.079300000016	850.0000017	n/a	n/a	n/a	n/a	n/a	n/a	n/a	"2021-02-25 14:01:32.006457"	"2021-02-25 14:01:32.739303"	144	5.38357706666667
"S210225"	"Response_Inhibition"	"LEFT"	"LEFT"	588.777199999981	666.666668	n/a	n/a	n/a	n/a	n/a	n/a	n/a	"2021-02-25 14:01:33.414545"	"2021-02-25 14:01:34.210007"	145	5.38357706666667
"S210225"	"Response_Inhibition"	"LEFT"	"LEFT"	388.526500000012	900.0000018	n/a	n/a	n/a	n/a	n/a	n/a	n/a	"2021-02-25 14:01:35.118667"	"2021-02-25 14:01:35.714074"	146	5.38357706666667
"S210225"	"Response_Inhibition"	"RIGHT"	"RIGHT"	372.260600000004	716.6666681	n/a	n/a	n/a	n/a	n/a	n/a	n/a	"2021-02-25 14:01:36.439305"	"2021-02-25 14:01:37.019326"	147	5.38357706666667
"S210225"	"Response_Inhibition"	"RIGHT"	"RIGHT"	288.215300000047	566.6666678	n/a	n/a	n/a	n/a	n/a	n/a	n/a	"2021-02-25 14:01:37.594350"	"2021-02-25 14:01:38.091679"	148	5.38357706666667
"S210225"	"Response_Inhibition"	"RIGHT"	"RIGHT"	312.733500000036	583.3333345	n/a	n/a	n/a	n/a	n/a	n/a	n/a	"2021-02-25 14:01:38.683363"	"2021-02-25 14:01:39.203137"	149	5.38357706666667
"S210225"	"Response_Inhibition"	"RIGHT"	"RIGHT"	327.562400000033	1000.000002	n/a	n/a	n/a	n/a	n/a	n/a	n/a	"2021-02-25 14:01:40.211375"	"2021-02-25 14:01:40.747468"	150	5.38357706666667
"S210225"	"Response_Inhibition"	"RIGHT"	"RIGHT"	263.888899999984	1383.3333361	n/a	n/a	n/a	n/a	n/a	n/a	n/a	"2021-02-25 14:01:42.138897"	"2021-02-25 14:01:42.611629"	151	5.38357706666667
"S210225"	"Response_Inhibition"	"RIGHT"	"RIGHT"	332.688166700033	1183.3333357	n/a	n/a	n/a	n/a	n/a	n/a	n/a	"2021-02-25 14:01:43.803208"	"2021-02-25 14:01:44.347752"	152	5.38357706666667
"S210225"	"Response_Inhibition"	"RIGHT"	"RIGHT"	534.138299999995	616.6666679	n/a	n/a	n/a	n/a	n/a	n/a	n/a	"2021-02-25 14:01:44.972725"	"2021-02-25 14:01:45.714256"	153	5.38357706666667
"S210225"	"Response_Inhibition"	"RIGHT"	"RIGHT"	397.061099999974	1283.3333359	n/a	n/a	n/a	n/a	n/a	n/a	n/a	"2021-02-25 14:01:47.006320"	"2021-02-25 14:01:47.611654"	154	5.38357706666667
"S210225"	"Response_Inhibition"	"LEFT"	"LEFT"	435.091099999909	700.0000014	n/a	n/a	n/a	n/a	n/a	n/a	n/a	"2021-02-25 14:01:48.320322"	"2021-02-25 14:01:48.963355"	155	5.38357706666667
"S210225"	"Response_Inhibition"	"RIGHT"	"RIGHT"	336.276567200046	1500.000003	n/a	n/a	n/a	n/a	n/a	n/a	n/a	"2021-02-25 14:01:50.471385"	"2021-02-25 14:01:51.017991"	156	5.38357706666667
"S210225"	"Response_Inhibition"	"LEFT"	"Time_Max_Exceeded"	1500.04960009994	1150.0000023	n/a	n/a	n/a	n/a	n/a	n/a	n/a	"2021-02-25 14:01:52.176815"	"2021-02-25 14:01:53.679644"	157	5.38357706666667
"S210225"	"Response_Inhibition"	"RIGHT"	"Time_Max_Exceeded"	1500.05990040006	1433.3333362	n/a	n/a	n/a	n/a	n/a	n/a	n/a	"2021-02-25 14:01:55.122671"	"2021-02-25 14:01:56.626217"	158	5.38357706666667
"S210225"	"Response_Inhibition"	"RIGHT"	"Time_Max_Exceeded"	1500.05076690006	1066.6666688	n/a	n/a	n/a	n/a	n/a	n/a	n/a	"2021-02-25 14:01:57.702222"	"2021-02-25 14:01:59.205492"	159	5.38357706666667
"S210225"	"Response_Inhibition"	"LEFT"	"LEFT"	646.983399999954	733.3333348	n/a	n/a	n/a	n/a	n/a	n/a	n/a	"2021-02-25 14:01:59.948340"	"2021-02-25 14:02:00.803723"	160	5.38357706666667
"S210225"	"Response_Selection"	"LEFT"	"LEFT"	368.348799999978	1500.000003	"LEFT"	-579.207	n/a	n/a	n/a	n/a	n/a	"2021-02-25 13:54:38.299535"	"2021-02-25 13:54:38.874962"	1	2.81385398333333
"S210225"	"Response_Selection"	"LEFT"	"LEFT"	411.149499999965	533.3333344	""	n/a	n/a	n/a	n/a	n/a	n/a	"2021-02-25 13:54:39.416629"	"2021-02-25 13:54:40.034888"	2	2.81385398333333
"S210225"	"Response_Selection"	"RIGHT"	"RIGHT"	275.151799999946	500.000001	""	n/a	n/a	n/a	n/a	n/a	n/a	"2021-02-25 13:54:40.544560"	"2021-02-25 13:54:41.026838"	3	2.81385398333333
"S210225"	"Response_Selection"	"LEFT"	"LEFT"	301.063099999965	683.3333347	""	n/a	n/a	n/a	n/a	n/a	n/a	"2021-02-25 13:54:41.718333"	"2021-02-25 13:54:42.227346"	4	2.81385398333333
"S210225"	"Response_Selection"	"LEFT"	"LEFT"	327.666299999976	1200.0000024	""	n/a	n/a	n/a	n/a	n/a	n/a	"2021-02-25 13:54:43.435511"	"2021-02-25 13:54:43.971105"	5	2.81385398333333
"S210225"	"Response_Selection"	"RIGHT"	"RIGHT"	259.165899999971	700.0000014	""	n/a	n/a	n/a	n/a	n/a	n/a	"2021-02-25 13:54:44.680317"	"2021-02-25 13:54:45.147664"	6	2.81385398333333
"S210225"	"Response_Selection"	"LEFT"	"LEFT"	295.48269999998	983.3333353	""	n/a	n/a	n/a	n/a	n/a	n/a	"2021-02-25 13:54:46.139749"	"2021-02-25 13:54:46.643142"	7	2.81385398333333
"S210225"	"Response_Selection"	"RIGHT"	"RIGHT"	272.18959999999	800.0000016	""	n/a	n/a	n/a	n/a	n/a	n/a	"2021-02-25 13:54:47.451566"	"2021-02-25 13:54:47.931320"	8	2.81385398333333
"S210225"	"Response_Selection"	"LEFT"	"LEFT"	291.252600000007	1316.6666693	""	n/a	n/a	n/a	n/a	n/a	n/a	"2021-02-25 13:54:49.256009"	"2021-02-25 13:54:49.755150"	9	2.81385398333333
"S210225"	"Response_Selection"	"RIGHT"	"RIGHT"	300.192400000014	883.3333351	""	n/a	n/a	n/a	n/a	n/a	n/a	"2021-02-25 13:54:50.647473"	"2021-02-25 13:54:51.155309"	10	2.81385398333333
"S210225"	"Response_Selection"	"LEFT"	"LEFT"	283.522199999993	700.0000014	""	n/a	n/a	n/a	n/a	n/a	n/a	"2021-02-25 13:54:51.863922"	"2021-02-25 13:54:52.354838"	11	2.81385398333333
"S210225"	"Response_Selection"	"LEFT"	"LEFT"	309.93860000001	866.6666684	""	n/a	n/a	n/a	n/a	n/a	n/a	"2021-02-25 13:54:53.230002"	"2021-02-25 13:54:53.747599"	12	2.81385398333333
"S210225"	"Response_Selection"	"LEFT"	"LEFT"	315.395299999977	916.6666685	""	n/a	n/a	n/a	n/a	n/a	n/a	"2021-02-25 13:54:54.672677"	"2021-02-25 13:54:55.198397"	13	2.81385398333333
"S210225"	"Response_Selection"	"RIGHT"	"RIGHT"	245.428500000003	983.3333353	""	n/a	n/a	n/a	n/a	n/a	n/a	"2021-02-25 13:54:56.190174"	"2021-02-25 13:54:56.643472"	14	2.81385398333333
"S210225"	"Response_Selection"	"LEFT"	"LEFT"	293.849399999999	1450.0000029	""	n/a	n/a	n/a	n/a	n/a	n/a	"2021-02-25 13:54:58.102237"	"2021-02-25 13:54:58.602897"	15	2.81385398333333
"S210225"	"Response_Selection"	"LEFT"	"LEFT"	309.874400000012	633.3333346	""	n/a	n/a	n/a	n/a	n/a	n/a	"2021-02-25 13:54:59.245389"	"2021-02-25 13:54:59.763217"	16	2.81385398333333
"S210225"	"Response_Selection"	"LEFT"	"LEFT"	330.440800000019	933.3333352	""	n/a	n/a	n/a	n/a	n/a	n/a	"2021-02-25 13:55:00.705188"	"2021-02-25 13:55:01.244565"	17	2.81385398333333
"S210225"	"Response_Selection"	"RIGHT"	"RIGHT"	281.803700000012	1066.6666688	""	n/a	n/a	n/a	n/a	n/a	n/a	"2021-02-25 13:55:02.321892"	"2021-02-25 13:55:02.812062"	18	2.81385398333333
"S210225"	"Response_Selection"	"LEFT"	"LEFT"	268.40679999998	1266.6666692	""	n/a	n/a	n/a	n/a	n/a	n/a	"2021-02-25 13:55:04.087553"	"2021-02-25 13:55:04.563537"	19	2.81385398333333
"S210225"	"Response_Selection"	"RIGHT"	"RIGHT"	268.686800000012	1266.6666692	""	n/a	n/a	n/a	n/a	n/a	n/a	"2021-02-25 13:55:05.839227"	"2021-02-25 13:55:06.315757"	20	2.81385398333333
"S210225"	"Response_Selection"	"RIGHT"	"RIGHT"	383.839399999999	783.3333349	""	n/a	n/a	n/a	n/a	n/a	n/a	"2021-02-25 13:55:07.107793"	"2021-02-25 13:55:07.699210"	21	2.81385398333333
"S210225"	"Response_Selection"	"RIGHT"	"RIGHT"	291.716500000007	1300.0000026	""	n/a	n/a	n/a	n/a	n/a	n/a	"2021-02-25 13:55:09.007913"	"2021-02-25 13:55:09.507116"	22	2.81385398333333
"S210225"	"Response_Selection"	"LEFT"	"LEFT"	292.973599999982	1466.6666696	""	n/a	n/a	n/a	n/a	n/a	n/a	"2021-02-25 13:55:10.982719"	"2021-02-25 13:55:11.483467"	23	2.81385398333333
"S210225"	"Response_Selection"	"LEFT"	"LEFT"	379.662599999961	500.000001	""	n/a	n/a	n/a	n/a	n/a	n/a	"2021-02-25 13:55:11.992121"	"2021-02-25 13:55:12.579068"	24	2.81385398333333
"S210225"	"Response_Selection"	"RIGHT"	"RIGHT"	233.334499999955	966.6666686	""	n/a	n/a	n/a	n/a	n/a	n/a	"2021-02-25 13:55:13.553808"	"2021-02-25 13:55:13.995070"	25	2.81385398333333
"S210225"	"Response_Selection"	"LEFT"	"LEFT"	260.64869999999	883.3333351	""	n/a	n/a	n/a	n/a	n/a	n/a	"2021-02-25 13:55:14.886906"	"2021-02-25 13:55:15.356354"	26	2.81385398333333
"S210225"	"Response_Selection"	"RIGHT"	"RIGHT"	281.065600000034	750.0000015	""	n/a	n/a	n/a	n/a	n/a	n/a	"2021-02-25 13:55:16.115542"	"2021-02-25 13:55:16.605618"	27	2.81385398333333
"S210225"	"Response_Selection"	"RIGHT"	"RIGHT"	428.509200000008	1400.0000028	""	n/a	n/a	n/a	n/a	n/a	n/a	"2021-02-25 13:55:18.014863"	"2021-02-25 13:55:18.651296"	28	2.81385398333333
"S210225"	"Response_Selection"	"LEFT"	"LEFT"	276.315199999999	1083.3333355	""	n/a	n/a	n/a	n/a	n/a	n/a	"2021-02-25 13:55:19.742921"	"2021-02-25 13:55:20.226934"	29	2.81385398333333
"S210225"	"Response_Selection"	"LEFT"	"LEFT"	326.667999999984	600.0000012	""	n/a	n/a	n/a	n/a	n/a	n/a	"2021-02-25 13:55:20.837313"	"2021-02-25 13:55:21.371380"	30	2.81385398333333
"S210225"	"Response_Selection"	"LEFT"	"LEFT"	333.615199999997	650.0000013	""	n/a	n/a	n/a	n/a	n/a	n/a	"2021-02-25 13:55:22.029667"	"2021-02-25 13:55:22.570907"	31	2.81385398333333
"S210225"	"Response_Selection"	"LEFT"	"LEFT"	303.589699999975	1016.6666687	""	n/a	n/a	n/a	n/a	n/a	n/a	"2021-02-25 13:55:23.596182"	"2021-02-25 13:55:24.107601"	32	2.81385398333333
"S210225"	"Response_Selection"	"LEFT"	"LEFT"	317.483000000038	833.333335	""	n/a	n/a	n/a	n/a	n/a	n/a	"2021-02-25 13:55:24.949887"	"2021-02-25 13:55:25.474862"	33	2.81385398333333
"S210225"	"Response_Selection"	"LEFT"	"LEFT"	297.920799999986	750.0000015	""	n/a	n/a	n/a	n/a	n/a	n/a	"2021-02-25 13:55:26.233823"	"2021-02-25 13:55:26.739534"	34	2.81385398333333
"S210225"	"Response_Selection"	"RIGHT"	"RIGHT"	218.089399999997	1133.3333356	""	n/a	n/a	n/a	n/a	n/a	n/a	"2021-02-25 13:55:27.881632"	"2021-02-25 13:55:28.307717"	35	2.81385398333333
"S210225"	"Response_Selection"	"LEFT"	"LEFT"	285.74100000003	1416.6666695	""	n/a	n/a	n/a	n/a	n/a	n/a	"2021-02-25 13:55:29.734230"	"2021-02-25 13:55:30.227263"	36	2.81385398333333
"S210225"	"Response_Selection"	"RIGHT"	"RIGHT"	295.618900000022	583.3333345	""	n/a	n/a	n/a	n/a	n/a	n/a	"2021-02-25 13:55:30.820307"	"2021-02-25 13:55:31.323586"	37	2.81385398333333
"S210225"	"Response_Selection"	"LEFT"	"LEFT"	280.731100000025	966.6666686	""	n/a	n/a	n/a	n/a	n/a	n/a	"2021-02-25 13:55:32.299095"	"2021-02-25 13:55:32.786941"	38	2.81385398333333
"S210225"	"Response_Selection"	"RIGHT"	"RIGHT"	220.734800000002	1083.3333355	""	n/a	n/a	n/a	n/a	n/a	n/a	"2021-02-25 13:55:33.878974"	"2021-02-25 13:55:34.307100"	39	2.81385398333333
"S210225"	"Response_Selection"	"LEFT"	"LEFT"	267.665799999975	1116.6666689	""	n/a	n/a	n/a	n/a	n/a	n/a	"2021-02-25 13:55:35.432521"	"2021-02-25 13:55:35.908364"	40	2.81385398333333
"S210225"	"Response_Selection"	"RIGHT"	"RIGHT"	242.70580000001	866.6666684	""	n/a	n/a	n/a	n/a	n/a	n/a	"2021-02-25 13:55:36.784656"	"2021-02-25 13:55:37.235901"	41	2.81385398333333
"S210225"	"Response_Selection"	"LEFT"	"LEFT"	249.909899999977	1133.3333356	""	n/a	n/a	n/a	n/a	n/a	n/a	"2021-02-25 13:55:38.377911"	"2021-02-25 13:55:38.835237"	42	2.81385398333333
"S210225"	"Response_Selection"	"RIGHT"	"RIGHT"	257.453100000021	1166.666669	""	n/a	n/a	n/a	n/a	n/a	n/a	"2021-02-25 13:55:40.010181"	"2021-02-25 13:55:40.474937"	43	2.81385398333333
"S210225"	"Response_Selection"	"RIGHT"	"RIGHT"	406.572299999993	1200.0000024	""	n/a	n/a	n/a	n/a	n/a	n/a	"2021-02-25 13:55:41.685347"	"2021-02-25 13:55:42.299208"	44	2.81385398333333
"S210225"	"Response_Selection"	"RIGHT"	"RIGHT"	262.055799999985	1450.0000029	""	n/a	n/a	n/a	n/a	n/a	n/a	"2021-02-25 13:55:43.757781"	"2021-02-25 13:55:44.227477"	45	2.81385398333333
"S210225"	"Response_Selection"	"RIGHT"	"RIGHT"	254.605499999968	1216.6666691	""	n/a	n/a	n/a	n/a	n/a	n/a	"2021-02-25 13:55:45.452982"	"2021-02-25 13:55:45.915710"	46	2.81385398333333
"S210225"	"Response_Selection"	"LEFT"	"LEFT"	264.929100000018	1166.666669	""	n/a	n/a	n/a	n/a	n/a	n/a	"2021-02-25 13:55:47.091039"	"2021-02-25 13:55:47.564317"	47	2.81385398333333
"S210225"	"Response_Selection"	"RIGHT"	"RIGHT"	278.6835	600.0000012	""	n/a	n/a	n/a	n/a	n/a	n/a	"2021-02-25 13:55:48.173274"	"2021-02-25 13:55:48.658864"	48	2.81385398333333
"S210225"	"Response_Selection"	"RIGHT"	"RIGHT"	278.969200000006	633.3333346	""	n/a	n/a	n/a	n/a	n/a	n/a	"2021-02-25 13:55:49.300627"	"2021-02-25 13:55:49.787747"	49	2.81385398333333
"S210225"	"Response_Selection"	"LEFT"	"LEFT"	319.527200000039	1366.6666694	""	n/a	n/a	n/a	n/a	n/a	n/a	"2021-02-25 13:55:51.164210"	"2021-02-25 13:55:51.691461"	50	2.81385398333333
"S210225"	"Response_Selection"	"RIGHT"	"RIGHT"	251.031500000011	1116.6666689	""	n/a	n/a	n/a	n/a	n/a	n/a	"2021-02-25 13:55:52.816552"	"2021-02-25 13:55:53.275041"	51	2.81385398333333
"S210225"	"Response_Selection"	"RIGHT"	"RIGHT"	422.796100000028	833.333335	""	n/a	n/a	n/a	n/a	n/a	n/a	"2021-02-25 13:55:54.116561"	"2021-02-25 13:55:54.747128"	52	2.81385398333333
"S210225"	"Response_Selection"	"LEFT"	"LEFT"	256.549500000006	783.3333349	""	n/a	n/a	n/a	n/a	n/a	n/a	"2021-02-25 13:55:55.539010"	"2021-02-25 13:55:56.003874"	53	2.81385398333333
"S210225"	"Response_Selection"	"LEFT"	"LEFT"	329.14310000001	1350.0000027	""	n/a	n/a	n/a	n/a	n/a	n/a	"2021-02-25 13:55:57.362849"	"2021-02-25 13:55:57.901407"	54	2.81385398333333
"S210225"	"Response_Selection"	"RIGHT"	"RIGHT"	271.385199999997	1350.0000027	""	n/a	n/a	n/a	n/a	n/a	n/a	"2021-02-25 13:55:59.259875"	"2021-02-25 13:55:59.739579"	55	2.81385398333333
"S210225"	"Response_Selection"	"RIGHT"	"RIGHT"	266.35170000003	1316.6666693	""	n/a	n/a	n/a	n/a	n/a	n/a	"2021-02-25 13:56:01.065285"	"2021-02-25 13:56:01.538988"	56	2.81385398333333
"S210225"	"Response_Selection"	"RIGHT"	"RIGHT"	293.502799999999	1466.6666696	""	n/a	n/a	n/a	n/a	n/a	n/a	"2021-02-25 13:56:03.013953"	"2021-02-25 13:56:03.515372"	57	2.81385398333333
"S210225"	"Response_Selection"	"LEFT"	"LEFT"	385.873300000014	550.0000011	""	n/a	n/a	n/a	n/a	n/a	n/a	"2021-02-25 13:56:04.073437"	"2021-02-25 13:56:04.666860"	58	2.81385398333333
"S210225"	"Response_Selection"	"LEFT"	"LEFT"	341.044399999987	1066.6666688	""	n/a	n/a	n/a	n/a	n/a	n/a	"2021-02-25 13:56:05.742752"	"2021-02-25 13:56:06.292522"	59	2.81385398333333
"S210225"	"Response_Selection"	"RIGHT"	"RIGHT"	272.979399999997	933.3333352	""	n/a	n/a	n/a	n/a	n/a	n/a	"2021-02-25 13:56:07.234683"	"2021-02-25 13:56:07.714933"	60	2.81385398333333
"S210225"	"Response_Selection"	"LEFT"	"LEFT"	275.952800000027	1300.0000026	""	n/a	n/a	n/a	n/a	n/a	n/a	"2021-02-25 13:56:09.023077"	"2021-02-25 13:56:09.508061"	61	2.81385398333333
"S210225"	"Response_Selection"	"RIGHT"	"RIGHT"	254.438700000037	1416.6666695	""	n/a	n/a	n/a	n/a	n/a	n/a	"2021-02-25 13:56:10.933435"	"2021-02-25 13:56:11.395542"	62	2.81385398333333
"S210225"	"Response_Selection"	"RIGHT"	"RIGHT"	390.863699999954	1016.6666687	""	n/a	n/a	n/a	n/a	n/a	n/a	"2021-02-25 13:56:12.420797"	"2021-02-25 13:56:13.019004"	63	2.81385398333333
"S210225"	"Response_Selection"	"RIGHT"	"RIGHT"	217.727099999991	1366.6666694	""	n/a	n/a	n/a	n/a	n/a	n/a	"2021-02-25 13:56:14.393911"	"2021-02-25 13:56:14.819038"	64	2.81385398333333
"S210225"	"Response_Selection"	"RIGHT"	"RIGHT"	235.177800000031	916.6666685	""	n/a	n/a	n/a	n/a	n/a	n/a	"2021-02-25 13:56:15.744591"	"2021-02-25 13:56:16.188403"	65	2.81385398333333
"S210225"	"Response_Selection"	"LEFT"	"LEFT"	324.479399999973	1033.3333354	""	n/a	n/a	n/a	n/a	n/a	n/a	"2021-02-25 13:56:17.230864"	"2021-02-25 13:56:17.762945"	66	2.81385398333333
"S210225"	"Response_Selection"	"RIGHT"	"RIGHT"	275.188600000035	533.3333344	""	n/a	n/a	n/a	n/a	n/a	n/a	"2021-02-25 13:56:18.304739"	"2021-02-25 13:56:18.787043"	67	2.81385398333333
"S210225"	"Response_Selection"	"LEFT"	"LEFT"	280.513399999961	583.3333345	""	n/a	n/a	n/a	n/a	n/a	n/a	"2021-02-25 13:56:19.379068"	"2021-02-25 13:56:19.868757"	68	2.81385398333333
"S210225"	"Response_Selection"	"RIGHT"	"RIGHT"	248.506200000008	733.3333348	""	n/a	n/a	n/a	n/a	n/a	n/a	"2021-02-25 13:56:20.611411"	"2021-02-25 13:56:21.067405"	69	2.81385398333333
"S210225"	"Response_Selection"	"LEFT"	"LEFT"	294.376999999997	800.0000016	""	n/a	n/a	n/a	n/a	n/a	n/a	"2021-02-25 13:56:21.877239"	"2021-02-25 13:56:22.380478"	70	2.81385398333333
"S210225"	"Response_Selection"	"RIGHT"	"RIGHT"	251.641000000006	650.0000013	""	n/a	n/a	n/a	n/a	n/a	n/a	"2021-02-25 13:56:23.039949"	"2021-02-25 13:56:23.499715"	71	2.81385398333333
"S210225"	"Response_Selection"	"LEFT"	"LEFT"	326.665399999968	1400.0000028	""	n/a	n/a	n/a	n/a	n/a	n/a	"2021-02-25 13:56:24.908936"	"2021-02-25 13:56:25.448489"	72	2.81385398333333
"S210225"	"Response_Selection"	"RIGHT"	"RIGHT"	296.938999999952	550.0000011	""	n/a	n/a	n/a	n/a	n/a	n/a	"2021-02-25 13:56:26.010602"	"2021-02-25 13:56:26.517228"	73	2.81385398333333
"S210225"	"Response_Selection"	"RIGHT"	"RIGHT"	276.066500000013	683.3333347	""	n/a	n/a	n/a	n/a	n/a	n/a	"2021-02-25 13:56:27.215374"	"2021-02-25 13:56:27.702092"	74	2.81385398333333
"S210225"	"Response_Selection"	"LEFT"	"LEFT"	273.106799999994	1250.0000025	""	n/a	n/a	n/a	n/a	n/a	n/a	"2021-02-25 13:56:28.962122"	"2021-02-25 13:56:29.444488"	75	2.81385398333333
"S210225"	"Response_Selection"	"LEFT"	"LEFT"	292.810200000019	1216.6666691	""	n/a	n/a	n/a	n/a	n/a	n/a	"2021-02-25 13:56:30.670791"	"2021-02-25 13:56:31.171020"	76	2.81385398333333
"S210225"	"Response_Selection"	"LEFT"	"LEFT"	298.244100000034	733.3333348	""	n/a	n/a	n/a	n/a	n/a	n/a	"2021-02-25 13:56:31.913281"	"2021-02-25 13:56:32.419444"	77	2.81385398333333
"S210225"	"Response_Selection"	"RIGHT"	"RIGHT"	235.1946	1500.000003	""	n/a	n/a	n/a	n/a	n/a	n/a	"2021-02-25 13:56:33.928205"	"2021-02-25 13:56:34.371743"	78	2.81385398333333
"S210225"	"Response_Selection"	"RIGHT"	"RIGHT"	333.038999999985	1250.0000025	""	n/a	n/a	n/a	n/a	n/a	n/a	"2021-02-25 13:56:35.630479"	"2021-02-25 13:56:36.172142"	79	2.81385398333333
"S210225"	"Response_Selection"	"RIGHT"	"RIGHT"	293.638799999997	1033.3333354	""	n/a	n/a	n/a	n/a	n/a	n/a	"2021-02-25 13:56:37.214059"	"2021-02-25 13:56:37.715670"	80	2.81385398333333
