"Participant"	"Task"	"Stimulus_Side"	"Response"	"RT"	"ITI"	"Previous_Response"	"Previous_RT"	"Stop_Signal"	"Stop_Signal_RT"	"Conflict"	"Cue_Response"	"Cue_Response_RT"	"Trial_Onset"	"Trial_End"	"Trial_Order"	"Duration"
"S200309"	"Conflict_Resolution"	"LEFT"	"LEFT"	1478.97620000003	533.3333344	""	n/a	n/a	n/a	"True"	n/a	n/a	"2020-03-09 13:31:45.893957"	"2020-03-09 13:31:47.582116"	1	6.38381556666667
"S200309"	"Conflict_Resolution"	"LEFT"	"Time_Max_Exceeded"	1500.1201	950.0000019	""	n/a	n/a	n/a	"True"	n/a	n/a	"2020-03-09 13:31:48.550995"	"2020-03-09 13:31:50.051799"	2	6.38381556666667
"S200309"	"Conflict_Resolution"	"RIGHT"	"Time_Max_Exceeded"	1500.05820000001	800.0000016	""	n/a	n/a	n/a	"True"	n/a	n/a	"2020-03-09 13:31:50.872227"	"2020-03-09 13:31:52.371579"	3	6.38381556666667
"S200309"	"Conflict_Resolution"	"LEFT"	"RIGHT"	924.328199999991	616.6666679	"LEFT"	-261.45	n/a	n/a	"True"	n/a	n/a	"2020-03-09 13:31:53.008641"	"2020-03-09 13:31:54.141324"	4	6.38381556666667
"S200309"	"Conflict_Resolution"	"RIGHT"	"Time_Max_Exceeded"	1500.08339999999	1333.333336	""	n/a	n/a	n/a	"True"	n/a	n/a	"2020-03-09 13:31:55.492459"	"2020-03-09 13:31:56.992432"	5	6.38381556666667
"S200309"	"Conflict_Resolution"	"RIGHT"	"Time_Max_Exceeded"	1500.05820000001	1366.6666694	""	n/a	n/a	n/a	"True"	n/a	n/a	"2020-03-09 13:31:58.379861"	"2020-03-09 13:31:59.879221"	6	6.38381556666667
"S200309"	"Conflict_Resolution"	"LEFT"	"Time_Max_Exceeded"	1500.06210000015	966.6666686	""	n/a	n/a	n/a	"False"	n/a	n/a	"2020-03-09 13:32:00.865817"	"2020-03-09 13:32:02.366143"	7	6.38381556666667
"S200309"	"Conflict_Resolution"	"LEFT"	"LEFT"	885.822699999835	733.3333348	""	n/a	n/a	n/a	"False"	n/a	n/a	"2020-03-09 13:32:03.118920"	"2020-03-09 13:32:04.212827"	8	6.38381556666667
"S200309"	"Conflict_Resolution"	"RIGHT"	"Time_Max_Exceeded"	1500.06619999999	700.0000014	""	n/a	n/a	n/a	"True"	n/a	n/a	"2020-03-09 13:32:04.931945"	"2020-03-09 13:32:06.432505"	9	6.38381556666667
"S200309"	"Conflict_Resolution"	"LEFT"	"LEFT"	768.197299999883	1200.0000024	""	n/a	n/a	n/a	"False"	n/a	n/a	"2020-03-09 13:32:07.652300"	"2020-03-09 13:32:08.628318"	10	6.38381556666667
"S200309"	"Conflict_Resolution"	"LEFT"	"RIGHT"	879.971699999942	566.6666678	""	n/a	n/a	n/a	"True"	n/a	n/a	"2020-03-09 13:32:09.212355"	"2020-03-09 13:32:10.300520"	11	6.38381556666667
"S200309"	"Conflict_Resolution"	"LEFT"	"LEFT"	1072.79599999993	716.6666681	""	n/a	n/a	n/a	"False"	n/a	n/a	"2020-03-09 13:32:11.036432"	"2020-03-09 13:32:12.317970"	12	6.38381556666667
"S200309"	"Conflict_Resolution"	"LEFT"	"LEFT"	457.409300000108	1066.6666688	""	n/a	n/a	n/a	"False"	n/a	n/a	"2020-03-09 13:32:13.403887"	"2020-03-09 13:32:14.068262"	13	6.38381556666667
"S200309"	"Conflict_Resolution"	"RIGHT"	"LEFT"	783.838699999933	733.3333348	""	n/a	n/a	n/a	"True"	n/a	n/a	"2020-03-09 13:32:14.820878"	"2020-03-09 13:32:15.813524"	14	6.38381556666667
"S200309"	"Conflict_Resolution"	"LEFT"	"RIGHT"	665.747499999952	1066.6666688	""	n/a	n/a	n/a	"True"	n/a	n/a	"2020-03-09 13:32:16.899434"	"2020-03-09 13:32:17.772790"	15	6.38381556666667
"S200309"	"Conflict_Resolution"	"RIGHT"	"RIGHT"	835.638700000118	1033.3333354	""	n/a	n/a	n/a	"False"	n/a	n/a	"2020-03-09 13:32:18.825607"	"2020-03-09 13:32:19.868646"	16	6.38381556666667
"S200309"	"Conflict_Resolution"	"LEFT"	"LEFT"	561.752699999943	516.6666677	""	n/a	n/a	n/a	"False"	n/a	n/a	"2020-03-09 13:32:20.402805"	"2020-03-09 13:32:21.174012"	17	6.38381556666667
"S200309"	"Conflict_Resolution"	"RIGHT"	"Time_Max_Exceeded"	1500.07809999988	683.3333347	""	n/a	n/a	n/a	"True"	n/a	n/a	"2020-03-09 13:32:21.876139"	"2020-03-09 13:32:23.376373"	18	6.38381556666667
"S200309"	"Conflict_Resolution"	"LEFT"	"RIGHT"	48.6075999999684	583.3333345	""	n/a	n/a	n/a	"True"	n/a	n/a	"2020-03-09 13:32:23.980031"	"2020-03-09 13:32:24.236376"	19	6.38381556666667
"S200309"	"Conflict_Resolution"	"LEFT"	"LEFT"	1110.59509999995	566.6666678	""	n/a	n/a	n/a	"False"	n/a	n/a	"2020-03-09 13:32:24.822800"	"2020-03-09 13:32:26.140464"	20	6.38381556666667
"S200309"	"Conflict_Resolution"	"LEFT"	"Time_Max_Exceeded"	1500.06630000007	633.3333346	""	n/a	n/a	n/a	"True"	n/a	n/a	"2020-03-09 13:32:26.793291"	"2020-03-09 13:32:28.293859"	21	6.38381556666667
"S200309"	"Conflict_Resolution"	"RIGHT"	"RIGHT"	802.258100000017	1483.3333363	"LEFT"	-1409.092	n/a	n/a	"True"	n/a	n/a	"2020-03-09 13:32:29.794717"	"2020-03-09 13:32:30.805570"	22	6.38381556666667
"S200309"	"Conflict_Resolution"	"LEFT"	"LEFT"	350.955299999896	1350.0000027	""	n/a	n/a	n/a	"False"	n/a	n/a	"2020-03-09 13:32:32.173903"	"2020-03-09 13:32:32.732749"	23	6.38381556666667
"S200309"	"Conflict_Resolution"	"RIGHT"	"LEFT"	369.806600000175	1433.3333362	""	n/a	n/a	n/a	"True"	n/a	n/a	"2020-03-09 13:32:34.186907"	"2020-03-09 13:32:34.764893"	24	6.38381556666667
"S200309"	"Conflict_Resolution"	"RIGHT"	"RIGHT"	502.454100000023	750.0000015	""	n/a	n/a	n/a	"True"	n/a	n/a	"2020-03-09 13:32:35.534793"	"2020-03-09 13:32:36.244727"	25	6.38381556666667
"S200309"	"Conflict_Resolution"	"RIGHT"	"RIGHT"	1043.4687999998	833.333335	""	n/a	n/a	n/a	"True"	n/a	n/a	"2020-03-09 13:32:37.097671"	"2020-03-09 13:32:38.348237"	26	6.38381556666667
"S200309"	"Conflict_Resolution"	"RIGHT"	"RIGHT"	606.579599999804	783.3333349	""	n/a	n/a	n/a	"False"	n/a	n/a	"2020-03-09 13:32:39.150602"	"2020-03-09 13:32:39.965199"	27	6.38381556666667
"S200309"	"Conflict_Resolution"	"LEFT"	"LEFT"	841.152299999976	1316.6666693	""	n/a	n/a	n/a	"True"	n/a	n/a	"2020-03-09 13:32:41.299843"	"2020-03-09 13:32:42.349083"	28	6.38381556666667
"S200309"	"Conflict_Resolution"	"RIGHT"	"RIGHT"	518.773600000031	750.0000015	""	n/a	n/a	n/a	"False"	n/a	n/a	"2020-03-09 13:32:43.118252"	"2020-03-09 13:32:43.844393"	29	6.38381556666667
"S200309"	"Conflict_Resolution"	"LEFT"	"LEFT"	613.822000000027	1400.0000028	""	n/a	n/a	n/a	"True"	n/a	n/a	"2020-03-09 13:32:45.262699"	"2020-03-09 13:32:46.084173"	30	6.38381556666667
"S200309"	"Conflict_Resolution"	"LEFT"	"LEFT"	524.783899999875	1216.6666691	""	n/a	n/a	n/a	"False"	n/a	n/a	"2020-03-09 13:32:47.319666"	"2020-03-09 13:32:48.053849"	31	6.38381556666667
"S200309"	"Conflict_Resolution"	"RIGHT"	"RIGHT"	370.989899999813	1416.6666695	""	n/a	n/a	n/a	"False"	n/a	n/a	"2020-03-09 13:32:49.490079"	"2020-03-09 13:32:50.068812"	32	6.38381556666667
"S200309"	"Conflict_Resolution"	"RIGHT"	"RIGHT"	498.051799999985	1466.6666696	""	n/a	n/a	n/a	"False"	n/a	n/a	"2020-03-09 13:32:51.554708"	"2020-03-09 13:32:52.260507"	33	6.38381556666667
"S200309"	"Conflict_Resolution"	"RIGHT"	"RIGHT"	652.098700000124	1216.6666691	""	n/a	n/a	n/a	"True"	n/a	n/a	"2020-03-09 13:32:53.496965"	"2020-03-09 13:32:54.356677"	34	6.38381556666667
"S200309"	"Conflict_Resolution"	"LEFT"	"LEFT"	475.97339999993	633.3333346	""	n/a	n/a	n/a	"False"	n/a	n/a	"2020-03-09 13:32:55.009292"	"2020-03-09 13:32:55.692382"	35	6.38381556666667
"S200309"	"Conflict_Resolution"	"LEFT"	"LEFT"	343.201299999919	1166.666669	""	n/a	n/a	n/a	"False"	n/a	n/a	"2020-03-09 13:32:56.878029"	"2020-03-09 13:32:57.428564"	36	6.38381556666667
"S200309"	"Conflict_Resolution"	"LEFT"	"LEFT"	303.361699999869	950.0000019	""	n/a	n/a	n/a	"False"	n/a	n/a	"2020-03-09 13:32:58.397752"	"2020-03-09 13:32:58.909006"	37	6.38381556666667
"S200309"	"Conflict_Resolution"	"LEFT"	"RIGHT"	450.186199999962	1466.6666696	""	n/a	n/a	n/a	"True"	n/a	n/a	"2020-03-09 13:33:00.394554"	"2020-03-09 13:33:01.052467"	38	6.38381556666667
"S200309"	"Conflict_Resolution"	"RIGHT"	"RIGHT"	453.861199999892	983.3333353	""	n/a	n/a	n/a	"False"	n/a	n/a	"2020-03-09 13:33:02.055191"	"2020-03-09 13:33:02.716539"	39	6.38381556666667
"S200309"	"Conflict_Resolution"	"LEFT"	"LEFT"	368.640599999935	1316.6666693	""	n/a	n/a	n/a	"False"	n/a	n/a	"2020-03-09 13:33:04.052524"	"2020-03-09 13:33:04.628596"	40	6.38381556666667
"S200309"	"Conflict_Resolution"	"RIGHT"	"RIGHT"	438.456300000098	1366.6666694	""	n/a	n/a	n/a	"False"	n/a	n/a	"2020-03-09 13:33:06.014084"	"2020-03-09 13:33:06.660464"	41	6.38381556666667
"S200309"	"Conflict_Resolution"	"RIGHT"	"RIGHT"	345.330899999908	700.0000014	""	n/a	n/a	n/a	"False"	n/a	n/a	"2020-03-09 13:33:07.379522"	"2020-03-09 13:33:07.932953"	42	6.38381556666667
"S200309"	"Conflict_Resolution"	"LEFT"	"LEFT"	383.235700000114	533.3333344	""	n/a	n/a	n/a	"False"	n/a	n/a	"2020-03-09 13:33:08.485513"	"2020-03-09 13:33:09.076944"	43	6.38381556666667
"S200309"	"Conflict_Resolution"	"RIGHT"	"RIGHT"	377.274499999885	1083.3333355	""	n/a	n/a	n/a	"False"	n/a	n/a	"2020-03-09 13:33:10.179345"	"2020-03-09 13:33:10.764821"	44	6.38381556666667
"S200309"	"Conflict_Resolution"	"LEFT"	"LEFT"	299.440200000163	1016.6666687	""	n/a	n/a	n/a	"False"	n/a	n/a	"2020-03-09 13:33:11.801046"	"2020-03-09 13:33:12.308271"	45	6.38381556666667
"S200309"	"Conflict_Resolution"	"RIGHT"	"RIGHT"	414.460200000121	1383.3333361	""	n/a	n/a	n/a	"False"	n/a	n/a	"2020-03-09 13:33:13.710499"	"2020-03-09 13:33:14.333839"	46	6.38381556666667
"S200309"	"Conflict_Resolution"	"LEFT"	"LEFT"	504.54979999995	683.3333347	""	n/a	n/a	n/a	"True"	n/a	n/a	"2020-03-09 13:33:15.036649"	"2020-03-09 13:33:15.748580"	47	6.38381556666667
"S200309"	"Conflict_Resolution"	"LEFT"	"LEFT"	780.003999999963	1216.6666691	""	n/a	n/a	n/a	"True"	n/a	n/a	"2020-03-09 13:33:16.984956"	"2020-03-09 13:33:17.972455"	48	6.38381556666667
"S200309"	"Conflict_Resolution"	"RIGHT"	"RIGHT"	553.104800000028	1100.0000022	""	n/a	n/a	n/a	"True"	n/a	n/a	"2020-03-09 13:33:19.091565"	"2020-03-09 13:33:19.852532"	49	6.38381556666667
"S200309"	"Conflict_Resolution"	"RIGHT"	"RIGHT"	370.782100000042	1433.3333362	""	n/a	n/a	n/a	"False"	n/a	n/a	"2020-03-09 13:33:21.306020"	"2020-03-09 13:33:21.884424"	50	6.38381556666667
"S200309"	"Conflict_Resolution"	"RIGHT"	"LEFT"	362.370499999997	1050.0000021	""	n/a	n/a	n/a	"True"	n/a	n/a	"2020-03-09 13:33:22.954421"	"2020-03-09 13:33:23.524925"	51	6.38381556666667
"S200309"	"Conflict_Resolution"	"LEFT"	"LEFT"	364.128500000106	1400.0000028	""	n/a	n/a	n/a	"False"	n/a	n/a	"2020-03-09 13:33:24.944307"	"2020-03-09 13:33:25.516787"	52	6.38381556666667
"S200309"	"Conflict_Resolution"	"RIGHT"	"LEFT"	386.426400000119	650.0000013	""	n/a	n/a	n/a	"True"	n/a	n/a	"2020-03-09 13:33:26.186315"	"2020-03-09 13:33:26.781742"	53	6.38381556666667
"S200309"	"Conflict_Resolution"	"RIGHT"	"RIGHT"	537.542799999983	850.0000017	"RIGHT"	-790.587	n/a	n/a	"True"	n/a	n/a	"2020-03-09 13:33:27.651046"	"2020-03-09 13:33:28.396784"	54	6.38381556666667
"S200309"	"Conflict_Resolution"	"RIGHT"	"RIGHT"	486.718500000052	1133.3333356	""	n/a	n/a	n/a	"True"	n/a	n/a	"2020-03-09 13:33:29.550546"	"2020-03-09 13:33:30.245704"	55	6.38381556666667
"S200309"	"Conflict_Resolution"	"LEFT"	"LEFT"	407.247900000129	1300.0000026	""	n/a	n/a	n/a	"False"	n/a	n/a	"2020-03-09 13:33:31.565638"	"2020-03-09 13:33:32.181727"	56	6.38381556666667
"S200309"	"Conflict_Resolution"	"LEFT"	"LEFT"	390.244200000097	783.3333349	""	n/a	n/a	n/a	"False"	n/a	n/a	"2020-03-09 13:33:32.982839"	"2020-03-09 13:33:33.580949"	57	6.38381556666667
"S200309"	"Conflict_Resolution"	"RIGHT"	"RIGHT"	509.992599999805	550.0000011	""	n/a	n/a	n/a	"True"	n/a	n/a	"2020-03-09 13:33:34.151227"	"2020-03-09 13:33:34.869915"	58	6.38381556666667
"S200309"	"Conflict_Resolution"	"RIGHT"	"RIGHT"	563.992999999982	583.3333345	""	n/a	n/a	n/a	"True"	n/a	n/a	"2020-03-09 13:33:35.473252"	"2020-03-09 13:33:36.244558"	59	6.38381556666667
"S200309"	"Conflict_Resolution"	"RIGHT"	"RIGHT"	620.019299999967	983.3333353	""	n/a	n/a	n/a	"True"	n/a	n/a	"2020-03-09 13:33:37.249242"	"2020-03-09 13:33:38.077620"	60	6.38381556666667
"S200309"	"Conflict_Resolution"	"RIGHT"	"RIGHT"	518.560499999921	1133.3333356	""	n/a	n/a	n/a	"False"	n/a	n/a	"2020-03-09 13:33:39.230343"	"2020-03-09 13:33:39.956596"	61	6.38381556666667
"S200309"	"Conflict_Resolution"	"LEFT"	"RIGHT"	360.612400000036	1350.0000027	""	n/a	n/a	n/a	"True"	n/a	n/a	"2020-03-09 13:33:41.323933"	"2020-03-09 13:33:41.893499"	62	6.38381556666667
"S200309"	"Conflict_Resolution"	"RIGHT"	"RIGHT"	559.347499999831	1416.6666695	""	n/a	n/a	n/a	"True"	n/a	n/a	"2020-03-09 13:33:43.333565"	"2020-03-09 13:33:44.100162"	63	6.38381556666667
"S200309"	"Conflict_Resolution"	"LEFT"	"LEFT"	495.093400000087	966.6666686	""	n/a	n/a	n/a	"True"	n/a	n/a	"2020-03-09 13:33:45.086058"	"2020-03-09 13:33:45.788994"	64	6.38381556666667
"S200309"	"Conflict_Resolution"	"LEFT"	"LEFT"	1004.81390000004	1200.0000024	""	n/a	n/a	n/a	"True"	n/a	n/a	"2020-03-09 13:33:47.008514"	"2020-03-09 13:33:48.221067"	65	6.38381556666667
"S200309"	"Conflict_Resolution"	"LEFT"	"LEFT"	529.168499999969	666.666668	""	n/a	n/a	n/a	"False"	n/a	n/a	"2020-03-09 13:33:48.907852"	"2020-03-09 13:33:49.645713"	66	6.38381556666667
"S200309"	"Conflict_Resolution"	"LEFT"	"LEFT"	633.619899999985	1500.000003	""	n/a	n/a	n/a	"True"	n/a	n/a	"2020-03-09 13:33:51.163013"	"2020-03-09 13:33:52.004945"	67	6.38381556666667
"S200309"	"Conflict_Resolution"	"LEFT"	"LEFT"	527.593600000046	1500.000003	""	n/a	n/a	n/a	"False"	n/a	n/a	"2020-03-09 13:33:53.525754"	"2020-03-09 13:33:54.262103"	68	6.38381556666667
"S200309"	"Conflict_Resolution"	"RIGHT"	"RIGHT"	451.397600000064	1183.3333357	""	n/a	n/a	n/a	"False"	n/a	n/a	"2020-03-09 13:33:55.465589"	"2020-03-09 13:33:56.125842"	69	6.38381556666667
"S200309"	"Conflict_Resolution"	"RIGHT"	"RIGHT"	362.029500000062	1233.3333358	""	n/a	n/a	n/a	"False"	n/a	n/a	"2020-03-09 13:33:57.378694"	"2020-03-09 13:33:57.948847"	70	6.38381556666667
"S200309"	"Conflict_Resolution"	"RIGHT"	"RIGHT"	497.621199999912	1266.6666692	""	n/a	n/a	n/a	"True"	n/a	n/a	"2020-03-09 13:33:59.235791"	"2020-03-09 13:33:59.941911"	71	6.38381556666667
"S200309"	"Conflict_Resolution"	"RIGHT"	"RIGHT"	376.054199999999	1283.3333359	""	n/a	n/a	n/a	"True"	n/a	n/a	"2020-03-09 13:34:01.244391"	"2020-03-09 13:34:01.829074"	72	6.38381556666667
"S200309"	"Conflict_Resolution"	"RIGHT"	"RIGHT"	338.242700000137	1050.0000021	""	n/a	n/a	n/a	"False"	n/a	n/a	"2020-03-09 13:34:02.898321"	"2020-03-09 13:34:03.445048"	73	6.38381556666667
"S200309"	"Conflict_Resolution"	"LEFT"	"LEFT"	453.8806999999	1366.6666694	""	n/a	n/a	n/a	"False"	n/a	n/a	"2020-03-09 13:34:04.831313"	"2020-03-09 13:34:05.492446"	74	6.38381556666667
"S200309"	"Conflict_Resolution"	"LEFT"	"LEFT"	327.603299999964	916.6666685	""	n/a	n/a	n/a	"False"	n/a	n/a	"2020-03-09 13:34:06.429100"	"2020-03-09 13:34:06.964417"	75	6.38381556666667
"S200309"	"Conflict_Resolution"	"LEFT"	"LEFT"	812.174099999993	866.6666684	""	n/a	n/a	n/a	"True"	n/a	n/a	"2020-03-09 13:34:07.848336"	"2020-03-09 13:34:08.868519"	76	6.38381556666667
"S200309"	"Conflict_Resolution"	"RIGHT"	"RIGHT"	477.999700000055	783.3333349	""	n/a	n/a	n/a	"True"	n/a	n/a	"2020-03-09 13:34:09.671391"	"2020-03-09 13:34:10.356547"	77	6.38381556666667
"S200309"	"Conflict_Resolution"	"LEFT"	"LEFT"	372.396299999991	1416.6666695	""	n/a	n/a	n/a	"False"	n/a	n/a	"2020-03-09 13:34:11.792545"	"2020-03-09 13:34:12.372998"	78	6.38381556666667
"S200309"	"Conflict_Resolution"	"LEFT"	"LEFT"	460.908500000187	1016.6666687	""	n/a	n/a	n/a	"True"	n/a	n/a	"2020-03-09 13:34:13.407375"	"2020-03-09 13:34:14.078128"	79	6.38381556666667
"S200309"	"Conflict_Resolution"	"LEFT"	"LEFT"	337.280300000202	850.0000017	""	n/a	n/a	n/a	"False"	n/a	n/a	"2020-03-09 13:34:14.947783"	"2020-03-09 13:34:15.492944"	80	6.38381556666667
"S200309"	"Conflict_Resolution"	"RIGHT"	"RIGHT"	485.061900000119	1183.3333357	""	n/a	n/a	n/a	"True"	n/a	n/a	"2020-03-09 13:34:16.695950"	"2020-03-09 13:34:17.389885"	81	6.38381556666667
"S200309"	"Conflict_Resolution"	"RIGHT"	"RIGHT"	399.407600000131	1316.6666693	""	n/a	n/a	n/a	"True"	n/a	n/a	"2020-03-09 13:34:18.725575"	"2020-03-09 13:34:19.332189"	82	6.38381556666667
"S200309"	"Conflict_Resolution"	"LEFT"	"LEFT"	363.570600000003	1266.6666692	""	n/a	n/a	n/a	"False"	n/a	n/a	"2020-03-09 13:34:20.616672"	"2020-03-09 13:34:21.188255"	83	6.38381556666667
"S200309"	"Conflict_Resolution"	"RIGHT"	"RIGHT"	709.606800000074	800.0000016	""	n/a	n/a	n/a	"False"	n/a	n/a	"2020-03-09 13:34:22.007579"	"2020-03-09 13:34:22.926054"	84	6.38381556666667
"S200309"	"Conflict_Resolution"	"LEFT"	"LEFT"	493.053099999997	1150.0000023	""	n/a	n/a	n/a	"True"	n/a	n/a	"2020-03-09 13:34:24.095679"	"2020-03-09 13:34:24.798077"	85	6.38381556666667
"S200309"	"Conflict_Resolution"	"LEFT"	"LEFT"	331.754699999919	1000.000002	""	n/a	n/a	n/a	"False"	n/a	n/a	"2020-03-09 13:34:25.816646"	"2020-03-09 13:34:26.356389"	86	6.38381556666667
"S200309"	"Conflict_Resolution"	"LEFT"	"RIGHT"	363.883299999998	816.6666683	""	n/a	n/a	n/a	"True"	n/a	n/a	"2020-03-09 13:34:27.192803"	"2020-03-09 13:34:27.764960"	87	6.38381556666667
"S200309"	"Conflict_Resolution"	"LEFT"	"LEFT"	389.835500000117	766.6666682	""	n/a	n/a	n/a	"False"	n/a	n/a	"2020-03-09 13:34:28.551436"	"2020-03-09 13:34:29.148419"	88	6.38381556666667
"S200309"	"Conflict_Resolution"	"RIGHT"	"RIGHT"	393.597600000021	1083.3333355	""	n/a	n/a	n/a	"True"	n/a	n/a	"2020-03-09 13:34:30.251675"	"2020-03-09 13:34:30.852172"	89	6.38381556666667
"S200309"	"Conflict_Resolution"	"LEFT"	"LEFT"	323.241800000005	1050.0000021	""	n/a	n/a	n/a	"False"	n/a	n/a	"2020-03-09 13:34:31.921476"	"2020-03-09 13:34:32.453747"	90	6.38381556666667
"S200309"	"Conflict_Resolution"	"RIGHT"	"RIGHT"	359.47729999998	1150.0000023	""	n/a	n/a	n/a	"False"	n/a	n/a	"2020-03-09 13:34:33.620970"	"2020-03-09 13:34:34.188679"	91	6.38381556666667
"S200309"	"Conflict_Resolution"	"LEFT"	"RIGHT"	410.08150000016	1266.6666692	""	n/a	n/a	n/a	"True"	n/a	n/a	"2020-03-09 13:34:35.475097"	"2020-03-09 13:34:36.092832"	92	6.38381556666667
"S200309"	"Conflict_Resolution"	"LEFT"	"LEFT"	439.452999999958	716.6666681	""	n/a	n/a	n/a	"True"	n/a	n/a	"2020-03-09 13:34:36.829423"	"2020-03-09 13:34:37.476632"	93	6.38381556666667
"S200309"	"Conflict_Resolution"	"RIGHT"	"RIGHT"	458.241599999837	683.3333347	""	n/a	n/a	n/a	"False"	n/a	n/a	"2020-03-09 13:34:38.179003"	"2020-03-09 13:34:38.844243"	94	6.38381556666667
"S200309"	"Conflict_Resolution"	"RIGHT"	"RIGHT"	399.879499999997	1333.333336	""	n/a	n/a	n/a	"False"	n/a	n/a	"2020-03-09 13:34:40.197565"	"2020-03-09 13:34:40.804817"	95	6.38381556666667
"S200309"	"Conflict_Resolution"	"LEFT"	"LEFT"	336.318399999982	1116.6666689	""	n/a	n/a	n/a	"False"	n/a	n/a	"2020-03-09 13:34:41.941074"	"2020-03-09 13:34:42.486125"	96	6.38381556666667
"S200309"	"Conflict_Resolution"	"LEFT"	"LEFT"	420.984600000111	1366.6666694	""	n/a	n/a	n/a	"True"	n/a	n/a	"2020-03-09 13:34:43.872124"	"2020-03-09 13:34:44.501096"	97	6.38381556666667
"S200309"	"Conflict_Resolution"	"LEFT"	"LEFT"	283.048300000019	1450.0000029	""	n/a	n/a	n/a	"False"	n/a	n/a	"2020-03-09 13:34:45.969681"	"2020-03-09 13:34:46.460619"	98	6.38381556666667
"S200309"	"Conflict_Resolution"	"LEFT"	"LEFT"	350.024200000007	583.3333345	""	n/a	n/a	n/a	"False"	n/a	n/a	"2020-03-09 13:34:47.063001"	"2020-03-09 13:34:47.620523"	99	6.38381556666667
"S200309"	"Conflict_Resolution"	"RIGHT"	"RIGHT"	378.097900000057	1483.3333363	""	n/a	n/a	n/a	"False"	n/a	n/a	"2020-03-09 13:34:49.122841"	"2020-03-09 13:34:49.708337"	100	6.38381556666667
"S200309"	"Conflict_Resolution"	"LEFT"	"LEFT"	491.567400000122	1450.0000029	""	n/a	n/a	n/a	"True"	n/a	n/a	"2020-03-09 13:34:51.177386"	"2020-03-09 13:34:51.876526"	101	6.38381556666667
"S200309"	"Conflict_Resolution"	"RIGHT"	"RIGHT"	542.321899999934	1000.000002	""	n/a	n/a	n/a	"True"	n/a	n/a	"2020-03-09 13:34:52.894850"	"2020-03-09 13:34:53.644878"	102	6.38381556666667
"S200309"	"Conflict_Resolution"	"RIGHT"	"RIGHT"	441.713899999968	1233.3333358	""	n/a	n/a	n/a	"True"	n/a	n/a	"2020-03-09 13:34:54.898600"	"2020-03-09 13:34:55.548465"	103	6.38381556666667
"S200309"	"Conflict_Resolution"	"RIGHT"	"RIGHT"	495.129700000007	1383.3333361	""	n/a	n/a	n/a	"True"	n/a	n/a	"2020-03-09 13:34:56.949747"	"2020-03-09 13:34:57.652232"	104	6.38381556666667
"S200309"	"Conflict_Resolution"	"LEFT"	"LEFT"	475.22210000011	1050.0000021	""	n/a	n/a	n/a	"True"	n/a	n/a	"2020-03-09 13:34:58.721137"	"2020-03-09 13:34:59.404433"	105	6.38381556666667
"S200309"	"Conflict_Resolution"	"RIGHT"	"RIGHT"	345.806700000139	883.3333351	""	n/a	n/a	n/a	"False"	n/a	n/a	"2020-03-09 13:35:00.306577"	"2020-03-09 13:35:00.860233"	106	6.38381556666667
"S200309"	"Conflict_Resolution"	"RIGHT"	"RIGHT"	314.551999999821	1100.0000022	""	n/a	n/a	n/a	"False"	n/a	n/a	"2020-03-09 13:35:01.978559"	"2020-03-09 13:35:02.501146"	107	6.38381556666667
"S200309"	"Conflict_Resolution"	"LEFT"	"LEFT"	472.662599999921	683.3333347	""	n/a	n/a	n/a	"False"	n/a	n/a	"2020-03-09 13:35:03.204269"	"2020-03-09 13:35:03.884529"	108	6.38381556666667
"S200309"	"Conflict_Resolution"	"LEFT"	"RIGHT"	352.975799999967	666.666668	""	n/a	n/a	n/a	"True"	n/a	n/a	"2020-03-09 13:35:04.571730"	"2020-03-09 13:35:05.132501"	109	6.38381556666667
"S200309"	"Conflict_Resolution"	"LEFT"	"LEFT"	455.727100000104	733.3333348	""	n/a	n/a	n/a	"True"	n/a	n/a	"2020-03-09 13:35:05.884683"	"2020-03-09 13:35:06.549910"	110	6.38381556666667
"S200309"	"Conflict_Resolution"	"LEFT"	"LEFT"	370.849700000008	1416.6666695	""	n/a	n/a	n/a	"True"	n/a	n/a	"2020-03-09 13:35:07.986391"	"2020-03-09 13:35:08.565155"	111	6.38381556666667
"S200309"	"Conflict_Resolution"	"RIGHT"	"RIGHT"	776.062400000001	500.000001	""	n/a	n/a	n/a	"True"	n/a	n/a	"2020-03-09 13:35:09.084351"	"2020-03-09 13:35:10.068180"	112	6.38381556666667
"S200309"	"Conflict_Resolution"	"RIGHT"	"RIGHT"	372.399599999881	1266.6666692	""	n/a	n/a	n/a	"False"	n/a	n/a	"2020-03-09 13:35:11.352534"	"2020-03-09 13:35:11.934075"	113	6.38381556666667
"S200309"	"Conflict_Resolution"	"LEFT"	"RIGHT"	345.429299999978	1250.0000025	""	n/a	n/a	n/a	"True"	n/a	n/a	"2020-03-09 13:35:13.203247"	"2020-03-09 13:35:13.756410"	114	6.38381556666667
"S200309"	"Conflict_Resolution"	"RIGHT"	"RIGHT"	767.102999999906	950.0000019	""	n/a	n/a	n/a	"True"	n/a	n/a	"2020-03-09 13:35:14.725662"	"2020-03-09 13:35:15.701008"	115	6.38381556666667
"S200309"	"Conflict_Resolution"	"LEFT"	"LEFT"	328.882900000053	1100.0000022	""	n/a	n/a	n/a	"False"	n/a	n/a	"2020-03-09 13:35:16.820148"	"2020-03-09 13:35:17.356298"	116	6.38381556666667
"S200309"	"Conflict_Resolution"	"LEFT"	"LEFT"	351.159999999936	1150.0000023	""	n/a	n/a	n/a	"False"	n/a	n/a	"2020-03-09 13:35:18.525930"	"2020-03-09 13:35:19.085045"	117	6.38381556666667
"S200309"	"Conflict_Resolution"	"RIGHT"	"RIGHT"	521.426199999951	1283.3333359	""	n/a	n/a	n/a	"False"	n/a	n/a	"2020-03-09 13:35:20.387060"	"2020-03-09 13:35:21.116939"	118	6.38381556666667
"S200309"	"Conflict_Resolution"	"RIGHT"	"RIGHT"	381.903599999987	533.3333344	""	n/a	n/a	n/a	"False"	n/a	n/a	"2020-03-09 13:35:21.670971"	"2020-03-09 13:35:22.262032"	119	6.38381556666667
"S200309"	"Conflict_Resolution"	"LEFT"	"LEFT"	491.519200000084	1000.000002	""	n/a	n/a	n/a	"True"	n/a	n/a	"2020-03-09 13:35:23.281273"	"2020-03-09 13:35:23.981948"	120	6.38381556666667
"S200309"	"Conflict_Resolution"	"RIGHT"	"RIGHT"	517.053000000033	933.3333352	""	n/a	n/a	n/a	"True"	n/a	n/a	"2020-03-09 13:35:24.935411"	"2020-03-09 13:35:25.661028"	121	6.38381556666667
"S200309"	"Conflict_Resolution"	"RIGHT"	"RIGHT"	516.486800000166	600.0000012	""	n/a	n/a	n/a	"True"	n/a	n/a	"2020-03-09 13:35:26.279979"	"2020-03-09 13:35:27.005745"	122	6.38381556666667
"S200309"	"Conflict_Resolution"	"LEFT"	"LEFT"	471.643799999811	1300.0000026	""	n/a	n/a	n/a	"True"	n/a	n/a	"2020-03-09 13:35:28.324810"	"2020-03-09 13:35:29.005092"	123	6.38381556666667
"S200309"	"Conflict_Resolution"	"RIGHT"	"RIGHT"	415.287399999897	733.3333348	""	n/a	n/a	n/a	"False"	n/a	n/a	"2020-03-09 13:35:29.757432"	"2020-03-09 13:35:30.381719"	124	6.38381556666667
"S200309"	"Conflict_Resolution"	"RIGHT"	"RIGHT"	391.406299999971	950.0000019	""	n/a	n/a	n/a	"False"	n/a	n/a	"2020-03-09 13:35:31.349500"	"2020-03-09 13:35:31.949102"	125	6.38381556666667
"S200309"	"Conflict_Resolution"	"RIGHT"	"LEFT"	512.262300000202	883.3333351	""	n/a	n/a	n/a	"True"	n/a	n/a	"2020-03-09 13:35:32.852269"	"2020-03-09 13:35:33.573628"	126	6.38381556666667
"S200309"	"Conflict_Resolution"	"RIGHT"	"RIGHT"	529.192899999998	1466.6666696	""	n/a	n/a	n/a	"True"	n/a	n/a	"2020-03-09 13:35:35.059181"	"2020-03-09 13:35:35.796916"	127	6.38381556666667
"S200309"	"Conflict_Resolution"	"LEFT"	"LEFT"	856.992499999933	900.0000018	""	n/a	n/a	n/a	"True"	n/a	n/a	"2020-03-09 13:35:36.716167"	"2020-03-09 13:35:37.780972"	128	6.38381556666667
"S200309"	"Conflict_Resolution"	"LEFT"	"LEFT"	413.70239999992	1166.666669	""	n/a	n/a	n/a	"True"	n/a	n/a	"2020-03-09 13:35:38.967401"	"2020-03-09 13:35:39.589828"	129	6.38381556666667
"S200309"	"Conflict_Resolution"	"RIGHT"	"RIGHT"	345.41820000004	900.0000018	""	n/a	n/a	n/a	"False"	n/a	n/a	"2020-03-09 13:35:40.507059"	"2020-03-09 13:35:41.060578"	130	6.38381556666667
"S200309"	"Conflict_Resolution"	"LEFT"	"LEFT"	361.582400000088	1466.6666696	""	n/a	n/a	n/a	"False"	n/a	n/a	"2020-03-09 13:35:42.547477"	"2020-03-09 13:35:43.117968"	131	6.38381556666667
"S200309"	"Conflict_Resolution"	"LEFT"	"LEFT"	416.421599999921	1100.0000022	""	n/a	n/a	n/a	"True"	n/a	n/a	"2020-03-09 13:35:44.236391"	"2020-03-09 13:35:44.860730"	132	6.38381556666667
"S200309"	"Conflict_Resolution"	"LEFT"	"LEFT"	375.594899999896	916.6666685	""	n/a	n/a	n/a	"True"	n/a	n/a	"2020-03-09 13:35:45.797292"	"2020-03-09 13:35:46.380586"	133	6.38381556666667
"S200309"	"Conflict_Resolution"	"LEFT"	"LEFT"	460.595199999943	616.6666679	""	n/a	n/a	n/a	"False"	n/a	n/a	"2020-03-09 13:35:47.015881"	"2020-03-09 13:35:47.684932"	134	6.38381556666667
"S200309"	"Conflict_Resolution"	"LEFT"	"LEFT"	331.936999999925	816.6666683	""	n/a	n/a	n/a	"False"	n/a	n/a	"2020-03-09 13:35:48.521109"	"2020-03-09 13:35:49.061682"	135	6.38381556666667
"S200309"	"Conflict_Resolution"	"LEFT"	"LEFT"	370.106200000009	1250.0000025	""	n/a	n/a	n/a	"False"	n/a	n/a	"2020-03-09 13:35:50.330564"	"2020-03-09 13:35:50.908503"	136	6.38381556666667
"S200309"	"Conflict_Resolution"	"RIGHT"	"RIGHT"	356.663499999968	1000.000002	""	n/a	n/a	n/a	"False"	n/a	n/a	"2020-03-09 13:35:51.928552"	"2020-03-09 13:35:52.493034"	137	6.38381556666667
"S200309"	"Conflict_Resolution"	"RIGHT"	"RIGHT"	488.329700000122	533.3333344	""	n/a	n/a	n/a	"True"	n/a	n/a	"2020-03-09 13:35:53.044283"	"2020-03-09 13:35:53.740198"	138	6.38381556666667
"S200309"	"Conflict_Resolution"	"RIGHT"	"RIGHT"	341.289299999971	600.0000012	""	n/a	n/a	n/a	"False"	n/a	n/a	"2020-03-09 13:35:54.359078"	"2020-03-09 13:35:54.909002"	139	6.38381556666667
"S200309"	"Conflict_Resolution"	"LEFT"	"RIGHT"	295.926999999892	1116.6666689	""	n/a	n/a	n/a	"True"	n/a	n/a	"2020-03-09 13:35:56.045127"	"2020-03-09 13:35:56.548710"	140	6.38381556666667
"S200309"	"Conflict_Resolution"	"RIGHT"	"RIGHT"	520.779300000186	900.0000018	""	n/a	n/a	n/a	"True"	n/a	n/a	"2020-03-09 13:35:57.467621"	"2020-03-09 13:35:58.196737"	141	6.38381556666667
"S200309"	"Conflict_Resolution"	"RIGHT"	"RIGHT"	405.414399999927	583.3333345	""	n/a	n/a	n/a	"False"	n/a	n/a	"2020-03-09 13:35:58.799549"	"2020-03-09 13:35:59.412174"	142	6.38381556666667
"S200309"	"Conflict_Resolution"	"RIGHT"	"RIGHT"	303.008399999953	550.0000011	""	n/a	n/a	n/a	"False"	n/a	n/a	"2020-03-09 13:35:59.981408"	"2020-03-09 13:36:00.492622"	143	6.38381556666667
"S200309"	"Conflict_Resolution"	"RIGHT"	"RIGHT"	523.499399999992	1033.3333354	""	n/a	n/a	n/a	"True"	n/a	n/a	"2020-03-09 13:36:01.544899"	"2020-03-09 13:36:02.276982"	144	6.38381556666667
"S200309"	"Conflict_Resolution"	"RIGHT"	"RIGHT"	439.80160000001	500.000001	""	n/a	n/a	n/a	"False"	n/a	n/a	"2020-03-09 13:36:02.797029"	"2020-03-09 13:36:03.444642"	145	6.38381556666667
"S200309"	"Conflict_Resolution"	"RIGHT"	"RIGHT"	287.368400000105	933.3333352	""	n/a	n/a	n/a	"False"	n/a	n/a	"2020-03-09 13:36:04.397099"	"2020-03-09 13:36:04.892899"	146	6.38381556666667
"S200309"	"Conflict_Resolution"	"RIGHT"	"RIGHT"	335.533500000111	1316.6666693	""	n/a	n/a	n/a	"False"	n/a	n/a	"2020-03-09 13:36:06.229740"	"2020-03-09 13:36:06.773090"	147	6.38381556666667
"S200309"	"Conflict_Resolution"	"RIGHT"	"RIGHT"	426.497199999858	633.3333346	""	n/a	n/a	n/a	"True"	n/a	n/a	"2020-03-09 13:36:07.426298"	"2020-03-09 13:36:08.061053"	148	6.38381556666667
"S200309"	"Conflict_Resolution"	"LEFT"	"LEFT"	418.863699999974	866.6666684	""	n/a	n/a	n/a	"False"	n/a	n/a	"2020-03-09 13:36:08.945887"	"2020-03-09 13:36:09.573810"	149	6.38381556666667
"S200309"	"Conflict_Resolution"	"LEFT"	"LEFT"	335.522999999966	900.0000018	""	n/a	n/a	n/a	"False"	n/a	n/a	"2020-03-09 13:36:10.493168"	"2020-03-09 13:36:11.036925"	150	6.38381556666667
"S200309"	"Conflict_Resolution"	"LEFT"	"LEFT"	487.722299999859	516.6666677	""	n/a	n/a	n/a	"True"	n/a	n/a	"2020-03-09 13:36:11.572869"	"2020-03-09 13:36:12.268562"	151	6.38381556666667
"S200309"	"Conflict_Resolution"	"RIGHT"	"RIGHT"	346.594299999879	650.0000013	""	n/a	n/a	n/a	"False"	n/a	n/a	"2020-03-09 13:36:12.938126"	"2020-03-09 13:36:13.493158"	152	6.38381556666667
"S200309"	"Conflict_Resolution"	"RIGHT"	"RIGHT"	323.687500000005	1216.6666691	""	n/a	n/a	n/a	"False"	n/a	n/a	"2020-03-09 13:36:14.729064"	"2020-03-09 13:36:15.260213"	153	6.38381556666667
"S200309"	"Conflict_Resolution"	"LEFT"	"LEFT"	614.436800000021	766.6666682	""	n/a	n/a	n/a	"True"	n/a	n/a	"2020-03-09 13:36:16.046095"	"2020-03-09 13:36:16.868212"	154	6.38381556666667
"S200309"	"Conflict_Resolution"	"RIGHT"	"RIGHT"	461.360799999966	833.333335	""	n/a	n/a	n/a	"False"	n/a	n/a	"2020-03-09 13:36:17.719205"	"2020-03-09 13:36:18.388600"	155	6.38381556666667
"S200309"	"Conflict_Resolution"	"RIGHT"	"RIGHT"	315.08789999998	850.0000017	""	n/a	n/a	n/a	"False"	n/a	n/a	"2020-03-09 13:36:19.257946"	"2020-03-09 13:36:19.781773"	156	6.38381556666667
"S200309"	"Conflict_Resolution"	"LEFT"	"LEFT"	357.743000000028	783.3333349	""	n/a	n/a	n/a	"True"	n/a	n/a	"2020-03-09 13:36:20.582905"	"2020-03-09 13:36:21.148989"	157	6.38381556666667
"S200309"	"Conflict_Resolution"	"RIGHT"	"RIGHT"	332.125400000223	633.3333346	""	n/a	n/a	n/a	"False"	n/a	n/a	"2020-03-09 13:36:21.800082"	"2020-03-09 13:36:22.340238"	158	6.38381556666667
"S200309"	"Conflict_Resolution"	"LEFT"	"RIGHT"	315.512500000068	850.0000017	""	n/a	n/a	n/a	"True"	n/a	n/a	"2020-03-09 13:36:23.209512"	"2020-03-09 13:36:23.733099"	159	6.38381556666667
"S200309"	"Conflict_Resolution"	"RIGHT"	"RIGHT"	542.609000000084	1150.0000023	""	n/a	n/a	n/a	"True"	n/a	n/a	"2020-03-09 13:36:24.901750"	"2020-03-09 13:36:25.652889"	160	6.38381556666667
"S200309"	"Processing_Speed"	"RIGHT"	"DOWN"	1134.69570000001	666.666668	n/a	n/a	n/a	n/a	n/a	n/a	n/a	"2020-03-09 13:20:36.647128"	"2020-03-09 13:20:38.000005"	1	2.08635573333333
"S200309"	"Processing_Speed"	"RIGHT"	"DOWN"	314.078599999959	1466.6666696	n/a	n/a	n/a	n/a	n/a	n/a	n/a	"2020-03-09 13:20:39.475689"	"2020-03-09 13:20:39.996486"	2	2.08635573333333
"S200309"	"Processing_Speed"	"LEFT"	"DOWN"	256.917999999985	1366.6666694	n/a	n/a	n/a	n/a	n/a	n/a	n/a	"2020-03-09 13:20:41.372653"	"2020-03-09 13:20:41.836407"	3	2.08635573333333
"S200309"	"Processing_Speed"	"LEFT"	"DOWN"	301.321500000029	1083.3333355	n/a	n/a	n/a	n/a	n/a	n/a	n/a	"2020-03-09 13:20:42.928046"	"2020-03-09 13:20:43.436564"	4	2.08635573333333
"S200309"	"Processing_Speed"	"LEFT"	"DOWN"	252.438100000006	1300.0000026	n/a	n/a	n/a	n/a	n/a	n/a	n/a	"2020-03-09 13:20:44.744883"	"2020-03-09 13:20:45.205945"	5	2.08635573333333
"S200309"	"Processing_Speed"	"RIGHT"	"DOWN"	319.084800000041	600.0000012	n/a	n/a	n/a	n/a	n/a	n/a	n/a	"2020-03-09 13:20:45.814386"	"2020-03-09 13:20:46.341161"	6	2.08635573333333
"S200309"	"Processing_Speed"	"RIGHT"	"DOWN"	336.29940000003	566.6666678	n/a	n/a	n/a	n/a	n/a	n/a	n/a	"2020-03-09 13:20:46.917617"	"2020-03-09 13:20:47.461259"	7	2.08635573333333
"S200309"	"Processing_Speed"	"LEFT"	"DOWN"	252.322700000036	883.3333351	n/a	n/a	n/a	n/a	n/a	n/a	n/a	"2020-03-09 13:20:48.353036"	"2020-03-09 13:20:48.813217"	8	2.08635573333333
"S200309"	"Processing_Speed"	"LEFT"	"DOWN"	262.496300000009	633.3333346	n/a	n/a	n/a	n/a	n/a	n/a	n/a	"2020-03-09 13:20:49.455200"	"2020-03-09 13:20:49.925810"	9	2.08635573333333
"S200309"	"Processing_Speed"	"RIGHT"	"DOWN"	231.762899999978	983.3333353	n/a	n/a	n/a	n/a	n/a	n/a	n/a	"2020-03-09 13:20:50.917382"	"2020-03-09 13:20:51.357926"	10	2.08635573333333
"S200309"	"Processing_Speed"	"RIGHT"	"DOWN"	322.592899999961	500.000001	n/a	n/a	n/a	n/a	n/a	n/a	n/a	"2020-03-09 13:20:51.867141"	"2020-03-09 13:20:52.397717"	11	2.08635573333333
"S200309"	"Processing_Speed"	"LEFT"	"DOWN"	227.042399999959	700.0000014	n/a	n/a	n/a	n/a	n/a	n/a	n/a	"2020-03-09 13:20:53.106692"	"2020-03-09 13:20:53.542080"	12	2.08635573333333
"S200309"	"Processing_Speed"	"LEFT"	"DOWN"	238.609499999995	783.3333349	n/a	n/a	n/a	n/a	n/a	n/a	n/a	"2020-03-09 13:20:54.335113"	"2020-03-09 13:20:54.781975"	13	2.08635573333333
"S200309"	"Processing_Speed"	"LEFT"	"DOWN"	261.986200000024	1016.6666687	n/a	n/a	n/a	n/a	n/a	n/a	n/a	"2020-03-09 13:20:55.807266"	"2020-03-09 13:20:56.276651"	14	2.08635573333333
"S200309"	"Processing_Speed"	"RIGHT"	"DOWN"	292.703300000028	883.3333351	n/a	n/a	n/a	n/a	n/a	n/a	n/a	"2020-03-09 13:20:57.169004"	"2020-03-09 13:20:57.669434"	15	2.08635573333333
"S200309"	"Processing_Speed"	"RIGHT"	"DOWN"	242.844600000012	1116.6666689	n/a	n/a	n/a	n/a	n/a	n/a	n/a	"2020-03-09 13:20:58.794305"	"2020-03-09 13:20:59.245352"	16	2.08635573333333
"S200309"	"Processing_Speed"	"LEFT"	"DOWN"	230.618899999968	816.6666683	n/a	n/a	n/a	n/a	n/a	n/a	n/a	"2020-03-09 13:21:00.071180"	"2020-03-09 13:21:00.508474"	17	2.08635573333333
"S200309"	"Processing_Speed"	"LEFT"	"DOWN"	276.377700000012	1500.000003	n/a	n/a	n/a	n/a	n/a	n/a	n/a	"2020-03-09 13:21:02.016909"	"2020-03-09 13:21:02.500623"	18	2.08635573333333
"S200309"	"Processing_Speed"	"LEFT"	"DOWN"	314.649400000008	533.3333344	n/a	n/a	n/a	n/a	n/a	n/a	n/a	"2020-03-09 13:21:03.042787"	"2020-03-09 13:21:03.564767"	19	2.08635573333333
"S200309"	"Processing_Speed"	"LEFT"	"DOWN"	327.598599999988	1216.6666691	n/a	n/a	n/a	n/a	n/a	n/a	n/a	"2020-03-09 13:21:04.789822"	"2020-03-09 13:21:05.325634"	20	2.08635573333333
"S200309"	"Processing_Speed"	"LEFT"	"DOWN"	258.489499999996	1116.6666689	n/a	n/a	n/a	n/a	n/a	n/a	n/a	"2020-03-09 13:21:06.451166"	"2020-03-09 13:21:06.917428"	21	2.08635573333333
"S200309"	"Processing_Speed"	"RIGHT"	"DOWN"	289.140700000019	1366.6666694	n/a	n/a	n/a	n/a	n/a	n/a	n/a	"2020-03-09 13:21:08.292639"	"2020-03-09 13:21:08.788421"	22	2.08635573333333
"S200309"	"Processing_Speed"	"RIGHT"	"DOWN"	239.887699999997	1216.6666691	n/a	n/a	n/a	n/a	n/a	n/a	n/a	"2020-03-09 13:21:10.013389"	"2020-03-09 13:21:10.461321"	23	2.08635573333333
"S200309"	"Processing_Speed"	"RIGHT"	"DOWN"	296.130600000026	1150.0000023	n/a	n/a	n/a	n/a	n/a	n/a	n/a	"2020-03-09 13:21:11.621567"	"2020-03-09 13:21:12.125865"	24	2.08635573333333
"S200309"	"Processing_Speed"	"LEFT"	"DOWN"	296.793199999968	950.0000019	n/a	n/a	n/a	n/a	n/a	n/a	n/a	"2020-03-09 13:21:13.084427"	"2020-03-09 13:21:13.588616"	25	2.08635573333333
"S200309"	"Processing_Speed"	"RIGHT"	"DOWN"	235.576200000025	916.6666685	n/a	n/a	n/a	n/a	n/a	n/a	n/a	"2020-03-09 13:21:14.513729"	"2020-03-09 13:21:14.956581"	26	2.08635573333333
"S200309"	"Processing_Speed"	"RIGHT"	"DOWN"	245.411799999999	1266.6666692	n/a	n/a	n/a	n/a	n/a	n/a	n/a	"2020-03-09 13:21:16.232009"	"2020-03-09 13:21:16.685873"	27	2.08635573333333
"S200309"	"Processing_Speed"	"RIGHT"	"DOWN"	153.759799999989	1333.333336	n/a	n/a	n/a	n/a	n/a	n/a	n/a	"2020-03-09 13:21:18.027667"	"2020-03-09 13:21:18.389491"	28	2.08635573333333
"S200309"	"Processing_Speed"	"LEFT"	"DOWN"	133.788700000025	1433.3333362	n/a	n/a	n/a	n/a	n/a	n/a	n/a	"2020-03-09 13:21:19.831459"	"2020-03-09 13:21:20.172812"	29	2.08635573333333
"S200309"	"Processing_Speed"	"RIGHT"	"DOWN"	276.137899999981	1300.0000026	n/a	n/a	n/a	n/a	n/a	n/a	n/a	"2020-03-09 13:21:21.481289"	"2020-03-09 13:21:21.966037"	30	2.08635573333333
"S200309"	"Processing_Speed"	"RIGHT"	"DOWN"	288.767199999995	950.0000019	n/a	n/a	n/a	n/a	n/a	n/a	n/a	"2020-03-09 13:21:22.924720"	"2020-03-09 13:21:23.420489"	31	2.08635573333333
"S200309"	"Processing_Speed"	"LEFT"	"DOWN"	299.124500000005	733.3333348	n/a	n/a	n/a	n/a	n/a	n/a	n/a	"2020-03-09 13:21:24.162092"	"2020-03-09 13:21:24.668481"	32	2.08635573333333
"S200309"	"Processing_Speed"	"RIGHT"	"DOWN"	263.743199999965	816.6666683	n/a	n/a	n/a	n/a	n/a	n/a	n/a	"2020-03-09 13:21:25.494048"	"2020-03-09 13:21:25.965782"	33	2.08635573333333
"S200309"	"Processing_Speed"	"RIGHT"	"DOWN"	267.69139999999	1083.3333355	n/a	n/a	n/a	n/a	n/a	n/a	n/a	"2020-03-09 13:21:27.058116"	"2020-03-09 13:21:27.533839"	34	2.08635573333333
"S200309"	"Processing_Speed"	"RIGHT"	"DOWN"	296.744100000012	733.3333348	n/a	n/a	n/a	n/a	n/a	n/a	n/a	"2020-03-09 13:21:28.277061"	"2020-03-09 13:21:28.780448"	35	2.08635573333333
"S200309"	"Processing_Speed"	"RIGHT"	"DOWN"	252.433900000028	1500.000003	n/a	n/a	n/a	n/a	n/a	n/a	n/a	"2020-03-09 13:21:30.289172"	"2020-03-09 13:21:30.749946"	36	2.08635573333333
"S200309"	"Processing_Speed"	"LEFT"	"DOWN"	265.004199999964	1150.0000023	n/a	n/a	n/a	n/a	n/a	n/a	n/a	"2020-03-09 13:21:31.908651"	"2020-03-09 13:21:32.381235"	37	2.08635573333333
"S200309"	"Processing_Speed"	"LEFT"	"DOWN"	331.342399999983	500.000001	n/a	n/a	n/a	n/a	n/a	n/a	n/a	"2020-03-09 13:21:32.889861"	"2020-03-09 13:21:33.428568"	38	2.08635573333333
"S200309"	"Processing_Speed"	"RIGHT"	"DOWN"	264.192400000013	1400.0000028	n/a	n/a	n/a	n/a	n/a	n/a	n/a	"2020-03-09 13:21:34.837047"	"2020-03-09 13:21:35.308449"	39	2.08635573333333
"S200309"	"Processing_Speed"	"RIGHT"	"DOWN"	244.282100000021	700.0000014	n/a	n/a	n/a	n/a	n/a	n/a	n/a	"2020-03-09 13:21:36.016646"	"2020-03-09 13:21:36.468559"	40	2.08635573333333
"S200309"	"Processing_Speed"	"RIGHT"	"DOWN"	280.430299999978	783.3333349	n/a	n/a	n/a	n/a	n/a	n/a	n/a	"2020-03-09 13:21:37.261114"	"2020-03-09 13:21:37.749525"	41	2.08635573333333
"S200309"	"Processing_Speed"	"LEFT"	"DOWN"	261.007600000028	1466.6666696	n/a	n/a	n/a	n/a	n/a	n/a	n/a	"2020-03-09 13:21:39.224413"	"2020-03-09 13:21:39.693993"	42	2.08635573333333
"S200309"	"Processing_Speed"	"RIGHT"	"DOWN"	239.626799999996	1183.3333357	n/a	n/a	n/a	n/a	n/a	n/a	n/a	"2020-03-09 13:21:40.886029"	"2020-03-09 13:21:41.333230"	43	2.08635573333333
"S200309"	"Processing_Speed"	"RIGHT"	"DOWN"	294.772899999998	1016.6666687	n/a	n/a	n/a	n/a	n/a	n/a	n/a	"2020-03-09 13:21:42.358188"	"2020-03-09 13:21:42.860673"	44	2.08635573333333
"S200309"	"Processing_Speed"	"LEFT"	"DOWN"	236.297899999954	666.666668	n/a	n/a	n/a	n/a	n/a	n/a	n/a	"2020-03-09 13:21:43.536852"	"2020-03-09 13:21:43.981056"	45	2.08635573333333
"S200309"	"Processing_Speed"	"LEFT"	"DOWN"	261.077600000021	1266.6666692	n/a	n/a	n/a	n/a	n/a	n/a	n/a	"2020-03-09 13:21:45.256150"	"2020-03-09 13:21:45.725958"	46	2.08635573333333
"S200309"	"Processing_Speed"	"LEFT"	"DOWN"	278.694800000039	600.0000012	n/a	n/a	n/a	n/a	n/a	n/a	n/a	"2020-03-09 13:21:46.334988"	"2020-03-09 13:21:46.821689"	47	2.08635573333333
"S200309"	"Processing_Speed"	"LEFT"	"DOWN"	271.827599999995	1183.3333357	n/a	n/a	n/a	n/a	n/a	n/a	n/a	"2020-03-09 13:21:48.013510"	"2020-03-09 13:21:48.493209"	48	2.08635573333333
"S200309"	"Processing_Speed"	"RIGHT"	"DOWN"	266.295400000047	533.3333344	n/a	n/a	n/a	n/a	n/a	n/a	n/a	"2020-03-09 13:21:49.035454"	"2020-03-09 13:21:49.509825"	49	2.08635573333333
"S200309"	"Processing_Speed"	"LEFT"	"DOWN"	261.250799999971	850.0000017	n/a	n/a	n/a	n/a	n/a	n/a	n/a	"2020-03-09 13:21:50.367927"	"2020-03-09 13:21:50.837358"	50	2.08635573333333
"S200309"	"Processing_Speed"	"LEFT"	"DOWN"	437.179299999968	1050.0000021	n/a	n/a	n/a	n/a	n/a	n/a	n/a	"2020-03-09 13:21:51.895661"	"2020-03-09 13:21:52.542601"	51	2.08635573333333
"S200309"	"Processing_Speed"	"RIGHT"	"DOWN"	219.64840000004	1050.0000021	n/a	n/a	n/a	n/a	n/a	n/a	n/a	"2020-03-09 13:21:53.601963"	"2020-03-09 13:21:54.028424"	52	2.08635573333333
"S200309"	"Processing_Speed"	"LEFT"	"DOWN"	216.429800000014	1400.0000028	n/a	n/a	n/a	n/a	n/a	n/a	n/a	"2020-03-09 13:21:55.436734"	"2020-03-09 13:21:55.861822"	53	2.08635573333333
"S200309"	"Processing_Speed"	"LEFT"	"DOWN"	263.768599999992	566.6666678	n/a	n/a	n/a	n/a	n/a	n/a	n/a	"2020-03-09 13:21:56.437851"	"2020-03-09 13:21:56.909589"	54	2.08635573333333
"S200309"	"Processing_Speed"	"LEFT"	"DOWN"	272.059200000001	983.3333353	n/a	n/a	n/a	n/a	n/a	n/a	n/a	"2020-03-09 13:21:57.901733"	"2020-03-09 13:21:58.380440"	55	2.08635573333333
"S200309"	"Processing_Speed"	"RIGHT"	"DOWN"	262.695399999984	850.0000017	n/a	n/a	n/a	n/a	n/a	n/a	n/a	"2020-03-09 13:21:59.238940"	"2020-03-09 13:21:59.710143"	56	2.08635573333333
"S200309"	"Processing_Speed"	"RIGHT"	"DOWN"	270.213399999989	1433.3333362	n/a	n/a	n/a	n/a	n/a	n/a	n/a	"2020-03-09 13:22:01.152356"	"2020-03-09 13:22:01.630079"	57	2.08635573333333
"S200309"	"Processing_Speed"	"LEFT"	"DOWN"	257.399899999996	1333.333336	n/a	n/a	n/a	n/a	n/a	n/a	n/a	"2020-03-09 13:22:02.972448"	"2020-03-09 13:22:03.437184"	58	2.08635573333333
"S200309"	"Processing_Speed"	"LEFT"	"DOWN"	275.058699999931	916.6666685	n/a	n/a	n/a	n/a	n/a	n/a	n/a	"2020-03-09 13:22:04.361933"	"2020-03-09 13:22:04.844317"	59	2.08635573333333
"S200309"	"Processing_Speed"	"RIGHT"	"DOWN"	231.009500000027	633.3333346	n/a	n/a	n/a	n/a	n/a	n/a	n/a	"2020-03-09 13:22:05.486591"	"2020-03-09 13:22:05.925574"	60	2.08635573333333
"S200309"	"Response_Inhibition"	"LEFT"	"LEFT"	445.243600500026	666.666668	n/a	n/a	n/a	n/a	n/a	n/a	n/a	"2020-03-09 13:25:33.180303"	"2020-03-09 13:25:33.837436"	1	5.12622006666667
"S200309"	"Response_Inhibition"	"LEFT"	"LEFT"	306.329600000026	900.0000018	n/a	n/a	n/a	n/a	n/a	n/a	n/a	"2020-03-09 13:25:34.747031"	"2020-03-09 13:25:35.261413"	2	5.12622006666667
"S200309"	"Response_Inhibition"	"RIGHT"	"RIGHT"	274.291733699977	633.3333346	n/a	n/a	n/a	n/a	n/a	n/a	n/a	"2020-03-09 13:25:35.904177"	"2020-03-09 13:25:36.389876"	3	5.12622006666667
"S200309"	"Response_Inhibition"	"LEFT"	"LEFT"	355.190167100019	1000.000002	n/a	n/a	n/a	n/a	n/a	n/a	n/a	"2020-03-09 13:25:37.398604"	"2020-03-09 13:25:37.965679"	4	5.12622006666667
"S200309"	"Response_Inhibition"	"LEFT"	"LEFT"	322.711400000003	1300.0000026	n/a	n/a	n/a	n/a	n/a	n/a	n/a	"2020-03-09 13:25:39.274457"	"2020-03-09 13:25:39.805768"	5	5.12622006666667
"S200309"	"Response_Inhibition"	"LEFT"	"LEFT"	314.176699999962	1116.6666689	n/a	n/a	n/a	n/a	n/a	n/a	n/a	"2020-03-09 13:25:40.931498"	"2020-03-09 13:25:41.453100"	6	5.12622006666667
"S200309"	"Response_Inhibition"	"RIGHT"	"Time_Max_Exceeded"	1500.05223350009	600.0000012	n/a	n/a	n/a	n/a	n/a	n/a	n/a	"2020-03-09 13:25:42.061710"	"2020-03-09 13:25:43.565663"	7	5.12622006666667
"S200309"	"Response_Inhibition"	"RIGHT"	"RIGHT"	514.003099999968	500.000001	n/a	n/a	n/a	n/a	n/a	n/a	n/a	"2020-03-09 13:25:44.075025"	"2020-03-09 13:25:44.797828"	8	5.12622006666667
"S200309"	"Response_Inhibition"	"RIGHT"	"RIGHT"	286.352299999976	616.6666679	n/a	n/a	n/a	n/a	n/a	n/a	n/a	"2020-03-09 13:25:45.422866"	"2020-03-09 13:25:45.916581"	9	5.12622006666667
"S200309"	"Response_Inhibition"	"LEFT"	"LEFT"	307.961999999975	1500.000003	n/a	n/a	n/a	n/a	n/a	n/a	n/a	"2020-03-09 13:25:47.425587"	"2020-03-09 13:25:47.941985"	10	5.12622006666667
"S200309"	"Response_Inhibition"	"RIGHT"	"RIGHT"	274.465899999996	1500.000003	n/a	n/a	n/a	n/a	n/a	n/a	n/a	"2020-03-09 13:25:49.450919"	"2020-03-09 13:25:49.933505"	11	5.12622006666667
"S200309"	"Response_Inhibition"	"RIGHT"	"RIGHT"	267.90189999997	1466.6666696	n/a	n/a	n/a	n/a	n/a	n/a	n/a	"2020-03-09 13:25:51.409437"	"2020-03-09 13:25:51.885741"	12	5.12622006666667
"S200309"	"Response_Inhibition"	"LEFT"	"LEFT"	373.475799999937	1033.3333354	n/a	n/a	n/a	n/a	n/a	n/a	n/a	"2020-03-09 13:25:52.927183"	"2020-03-09 13:25:53.508414"	13	5.12622006666667
"S200309"	"Response_Inhibition"	"RIGHT"	"RIGHT"	272.760700200026	700.0000014	n/a	n/a	n/a	n/a	n/a	n/a	n/a	"2020-03-09 13:25:54.217509"	"2020-03-09 13:25:54.701826"	14	5.12622006666667
"S200309"	"Response_Inhibition"	"LEFT"	"LEFT"	286.607700399945	716.6666681	n/a	n/a	n/a	n/a	n/a	n/a	n/a	"2020-03-09 13:25:55.426904"	"2020-03-09 13:25:55.926156"	15	5.12622006666667
"S200309"	"Response_Inhibition"	"LEFT"	"LEFT"	466.51959999997	1466.6666696	n/a	n/a	n/a	n/a	n/a	n/a	n/a	"2020-03-09 13:25:57.402620"	"2020-03-09 13:25:58.077814"	16	5.12622006666667
"S200309"	"Response_Inhibition"	"LEFT"	"LEFT"	305.581566800054	1050.0000021	n/a	n/a	n/a	n/a	n/a	n/a	n/a	"2020-03-09 13:25:59.136689"	"2020-03-09 13:25:59.652313"	17	5.12622006666667
"S200309"	"Response_Inhibition"	"RIGHT"	"RIGHT"	566.265599999952	850.0000017	n/a	n/a	n/a	n/a	n/a	n/a	n/a	"2020-03-09 13:26:00.510744"	"2020-03-09 13:26:01.285684"	18	5.12622006666667
"S200309"	"Response_Inhibition"	"LEFT"	"Time_Max_Exceeded"	1500.06856669999	550.0000011	n/a	n/a	n/a	n/a	n/a	n/a	n/a	"2020-03-09 13:26:01.844196"	"2020-03-09 13:26:03.348071"	19	5.12622006666667
"S200309"	"Response_Inhibition"	"RIGHT"	"RIGHT"	284.327599999983	900.0000018	n/a	n/a	n/a	n/a	n/a	n/a	n/a	"2020-03-09 13:26:04.257212"	"2020-03-09 13:26:04.750001"	20	5.12622006666667
"S200309"	"Response_Inhibition"	"LEFT"	"LEFT"	437.568899999974	1233.3333358	n/a	n/a	n/a	n/a	n/a	n/a	n/a	"2020-03-09 13:26:05.992024"	"2020-03-09 13:26:06.637578"	21	5.12622006666667
"S200309"	"Response_Inhibition"	"LEFT"	"LEFT"	358.737099999985	1400.0000028	n/a	n/a	n/a	n/a	n/a	n/a	n/a	"2020-03-09 13:26:08.046217"	"2020-03-09 13:26:08.614782"	22	5.12622006666667
"S200309"	"Response_Inhibition"	"LEFT"	"LEFT"	302.047367099973	1133.3333356	n/a	n/a	n/a	n/a	n/a	n/a	n/a	"2020-03-09 13:26:09.756821"	"2020-03-09 13:26:10.269181"	23	5.12622006666667
"S200309"	"Response_Inhibition"	"LEFT"	"LEFT"	420.798433599963	1183.3333357	n/a	n/a	n/a	n/a	n/a	n/a	n/a	"2020-03-09 13:26:11.461418"	"2020-03-09 13:26:12.094118"	24	5.12622006666667
"S200309"	"Response_Inhibition"	"RIGHT"	"RIGHT"	541.156799999953	1233.3333358	n/a	n/a	n/a	n/a	n/a	n/a	n/a	"2020-03-09 13:26:13.336280"	"2020-03-09 13:26:14.085876"	25	5.12622006666667
"S200309"	"Response_Inhibition"	"RIGHT"	"RIGHT"	291.757599999983	866.6666684	n/a	n/a	n/a	n/a	n/a	n/a	n/a	"2020-03-09 13:26:14.961367"	"2020-03-09 13:26:15.462042"	26	5.12622006666667
"S200309"	"Response_Inhibition"	"RIGHT"	"RIGHT"	308.560800000009	1050.0000021	n/a	n/a	n/a	n/a	n/a	n/a	n/a	"2020-03-09 13:26:16.521069"	"2020-03-09 13:26:17.036163"	27	5.12622006666667
"S200309"	"Response_Inhibition"	"RIGHT"	"RIGHT"	317.373299999986	1066.6666688	n/a	n/a	n/a	n/a	n/a	n/a	n/a	"2020-03-09 13:26:18.111489"	"2020-03-09 13:26:18.637265"	28	5.12622006666667
"S200309"	"Response_Inhibition"	"LEFT"	"Time_Max_Exceeded"	1500.07870030004	583.3333345	n/a	n/a	n/a	n/a	n/a	n/a	n/a	"2020-03-09 13:26:19.228745"	"2020-03-09 13:26:20.732526"	29	5.12622006666667
"S200309"	"Response_Inhibition"	"LEFT"	"LEFT"	467.432799999983	1100.0000022	n/a	n/a	n/a	n/a	n/a	n/a	n/a	"2020-03-09 13:26:21.842081"	"2020-03-09 13:26:22.516496"	30	5.12622006666667
"S200309"	"Response_Inhibition"	"RIGHT"	"RIGHT"	328.223600300024	516.6666677	n/a	n/a	n/a	n/a	n/a	n/a	n/a	"2020-03-09 13:26:23.042092"	"2020-03-09 13:26:23.581674"	31	5.12622006666667
"S200309"	"Response_Inhibition"	"RIGHT"	"RIGHT"	497.076099999958	750.0000015	n/a	n/a	n/a	n/a	n/a	n/a	n/a	"2020-03-09 13:26:24.340547"	"2020-03-09 13:26:25.044210"	32	5.12622006666667
"S200309"	"Response_Inhibition"	"RIGHT"	"RIGHT"	375.757867199966	1333.333336	n/a	n/a	n/a	n/a	n/a	n/a	n/a	"2020-03-09 13:26:26.385923"	"2020-03-09 13:26:26.972319"	33	5.12622006666667
"S200309"	"Response_Inhibition"	"LEFT"	"LEFT"	304.512867099945	1316.6666693	n/a	n/a	n/a	n/a	n/a	n/a	n/a	"2020-03-09 13:26:28.297457"	"2020-03-09 13:26:28.812439"	34	5.12622006666667
"S200309"	"Response_Inhibition"	"LEFT"	"LEFT"	458.968000000027	533.3333344	n/a	n/a	n/a	n/a	n/a	n/a	n/a	"2020-03-09 13:26:29.354579"	"2020-03-09 13:26:30.020410"	35	5.12622006666667
"S200309"	"Response_Inhibition"	"LEFT"	"Time_Max_Exceeded"	1500.05976690003	1016.6666687	n/a	n/a	n/a	n/a	n/a	n/a	n/a	"2020-03-09 13:26:31.045340"	"2020-03-09 13:26:32.548858"	36	5.12622006666667
"S200309"	"Response_Inhibition"	"LEFT"	"LEFT"	360.565300000076	1366.6666694	n/a	n/a	n/a	n/a	n/a	n/a	n/a	"2020-03-09 13:26:33.924625"	"2020-03-09 13:26:34.492444"	37	5.12622006666667
"S200309"	"Response_Inhibition"	"LEFT"	"LEFT"	303.566799999999	1416.6666695	n/a	n/a	n/a	n/a	n/a	n/a	n/a	"2020-03-09 13:26:35.917261"	"2020-03-09 13:26:36.429565"	38	5.12622006666667
"S200309"	"Response_Inhibition"	"RIGHT"	"RIGHT"	415.356233699947	1116.6666689	n/a	n/a	n/a	n/a	n/a	n/a	n/a	"2020-03-09 13:26:37.554752"	"2020-03-09 13:26:38.181866"	39	5.12622006666667
"S200309"	"Response_Inhibition"	"LEFT"	"LEFT"	499.538200000075	866.6666684	n/a	n/a	n/a	n/a	n/a	n/a	n/a	"2020-03-09 13:26:39.057250"	"2020-03-09 13:26:39.765355"	40	5.12622006666667
"S200309"	"Response_Inhibition"	"LEFT"	"LEFT"	422.703999999953	1216.6666691	n/a	n/a	n/a	n/a	n/a	n/a	n/a	"2020-03-09 13:26:40.990309"	"2020-03-09 13:26:41.621782"	41	5.12622006666667
"S200309"	"Response_Inhibition"	"RIGHT"	"RIGHT"	507.845900000007	666.666668	n/a	n/a	n/a	n/a	n/a	n/a	n/a	"2020-03-09 13:26:42.297591"	"2020-03-09 13:26:43.012204"	42	5.12622006666667
"S200309"	"Response_Inhibition"	"RIGHT"	"RIGHT"	539.7064	1316.6666693	n/a	n/a	n/a	n/a	n/a	n/a	n/a	"2020-03-09 13:26:44.337685"	"2020-03-09 13:26:45.084506"	43	5.12622006666667
"S200309"	"Response_Inhibition"	"LEFT"	"LEFT"	389.751499999988	850.0000017	n/a	n/a	n/a	n/a	n/a	n/a	n/a	"2020-03-09 13:26:45.943431"	"2020-03-09 13:26:46.541218"	44	5.12622006666667
"S200309"	"Response_Inhibition"	"LEFT"	"LEFT"	290.066266799993	1433.3333362	n/a	n/a	n/a	n/a	n/a	n/a	n/a	"2020-03-09 13:26:47.984069"	"2020-03-09 13:26:48.485911"	45	5.12622006666667
"S200309"	"Response_Inhibition"	"LEFT"	"LEFT"	315.194399999996	1266.6666692	n/a	n/a	n/a	n/a	n/a	n/a	n/a	"2020-03-09 13:26:49.762463"	"2020-03-09 13:26:50.285879"	46	5.12622006666667
"S200309"	"Response_Inhibition"	"LEFT"	"LEFT"	408.001799999965	766.6666682	n/a	n/a	n/a	n/a	n/a	n/a	n/a	"2020-03-09 13:26:51.060786"	"2020-03-09 13:26:51.677355"	47	5.12622006666667
"S200309"	"Response_Inhibition"	"LEFT"	"LEFT"	333.545000000072	633.3333346	n/a	n/a	n/a	n/a	n/a	n/a	n/a	"2020-03-09 13:26:52.319839"	"2020-03-09 13:26:52.861887"	48	5.12622006666667
"S200309"	"Response_Inhibition"	"RIGHT"	"RIGHT"	497.061099999996	733.3333348	n/a	n/a	n/a	n/a	n/a	n/a	n/a	"2020-03-09 13:26:53.604073"	"2020-03-09 13:26:54.309370"	49	5.12622006666667
"S200309"	"Response_Inhibition"	"LEFT"	"LEFT"	297.249099999931	1150.0000023	n/a	n/a	n/a	n/a	n/a	n/a	n/a	"2020-03-09 13:26:55.467741"	"2020-03-09 13:26:55.972378"	50	5.12622006666667
"S200309"	"Response_Inhibition"	"LEFT"	"LEFT"	289.624466800017	883.3333351	n/a	n/a	n/a	n/a	n/a	n/a	n/a	"2020-03-09 13:26:56.864271"	"2020-03-09 13:26:57.365341"	51	5.12622006666667
"S200309"	"Response_Inhibition"	"RIGHT"	"RIGHT"	440.505900000062	1166.666669	n/a	n/a	n/a	n/a	n/a	n/a	n/a	"2020-03-09 13:26:58.540273"	"2020-03-09 13:26:59.189313"	52	5.12622006666667
"S200309"	"Response_Inhibition"	"RIGHT"	"RIGHT"	311.144400000103	1200.0000024	n/a	n/a	n/a	n/a	n/a	n/a	n/a	"2020-03-09 13:27:00.398411"	"2020-03-09 13:27:00.917638"	53	5.12622006666667
"S200309"	"Response_Inhibition"	"LEFT"	"LEFT"	355.499699999996	1066.6666688	n/a	n/a	n/a	n/a	n/a	n/a	n/a	"2020-03-09 13:27:01.993367"	"2020-03-09 13:27:02.557202"	54	5.12622006666667
"S200309"	"Response_Inhibition"	"LEFT"	"LEFT"	297.167200000104	950.0000019	n/a	n/a	n/a	n/a	n/a	n/a	n/a	"2020-03-09 13:27:03.515872"	"2020-03-09 13:27:04.021145"	55	5.12622006666667
"S200309"	"Response_Inhibition"	"RIGHT"	"RIGHT"	289.836300400002	1216.6666691	n/a	n/a	n/a	n/a	n/a	n/a	n/a	"2020-03-09 13:27:05.248507"	"2020-03-09 13:27:05.749823"	56	5.12622006666667
"S200309"	"Response_Inhibition"	"LEFT"	"LEFT"	369.208200000003	933.3333352	n/a	n/a	n/a	n/a	n/a	n/a	n/a	"2020-03-09 13:27:06.691780"	"2020-03-09 13:27:07.268246"	57	5.12622006666667
"S200309"	"Response_Inhibition"	"RIGHT"	"RIGHT"	405.990699999961	1050.0000021	n/a	n/a	n/a	n/a	n/a	n/a	n/a	"2020-03-09 13:27:08.327414"	"2020-03-09 13:27:08.941978"	58	5.12622006666667
"S200309"	"Response_Inhibition"	"LEFT"	"LEFT"	301.829399999974	616.6666679	n/a	n/a	n/a	n/a	n/a	n/a	n/a	"2020-03-09 13:27:09.567091"	"2020-03-09 13:27:10.077735"	59	5.12622006666667
"S200309"	"Response_Inhibition"	"RIGHT"	"RIGHT"	318.880199999967	1400.0000028	n/a	n/a	n/a	n/a	n/a	n/a	n/a	"2020-03-09 13:27:11.486108"	"2020-03-09 13:27:12.013909"	60	5.12622006666667
"S200309"	"Response_Inhibition"	"RIGHT"	"RIGHT"	334.304599999996	583.3333345	n/a	n/a	n/a	n/a	n/a	n/a	n/a	"2020-03-09 13:27:12.607054"	"2020-03-09 13:27:13.149427"	61	5.12622006666667
"S200309"	"Response_Inhibition"	"LEFT"	"LEFT"	307.182300000022	1100.0000022	n/a	n/a	n/a	n/a	n/a	n/a	n/a	"2020-03-09 13:27:14.258371"	"2020-03-09 13:27:14.773153"	62	5.12622006666667
"S200309"	"Response_Inhibition"	"RIGHT"	"RIGHT"	273.461300000008	1150.0000023	n/a	n/a	n/a	n/a	n/a	n/a	n/a	"2020-03-09 13:27:15.931474"	"2020-03-09 13:27:16.413817"	63	5.12622006666667
"S200309"	"Response_Inhibition"	"LEFT"	"LEFT"	286.912099999995	1000.000002	n/a	n/a	n/a	n/a	n/a	n/a	n/a	"2020-03-09 13:27:17.422326"	"2020-03-09 13:27:17.918058"	64	5.12622006666667
"S200309"	"Response_Inhibition"	"LEFT"	"LEFT"	343.637599999965	1166.666669	n/a	n/a	n/a	n/a	n/a	n/a	n/a	"2020-03-09 13:27:19.093710"	"2020-03-09 13:27:19.645910"	65	5.12622006666667
"S200309"	"Response_Inhibition"	"RIGHT"	"Time_Max_Exceeded"	1500.05393340003	683.3333347	n/a	n/a	n/a	n/a	n/a	n/a	n/a	"2020-03-09 13:27:20.338057"	"2020-03-09 13:27:21.840999"	66	5.12622006666667
"S200309"	"Response_Inhibition"	"RIGHT"	"RIGHT"	307.982200199947	900.0000018	n/a	n/a	n/a	n/a	n/a	n/a	n/a	"2020-03-09 13:27:22.750402"	"2020-03-09 13:27:23.268996"	67	5.12622006666667
"S200309"	"Response_Inhibition"	"RIGHT"	"RIGHT"	444.689100000005	1433.3333362	n/a	n/a	n/a	n/a	n/a	n/a	n/a	"2020-03-09 13:27:24.711965"	"2020-03-09 13:27:25.364229"	68	5.12622006666667
"S200309"	"Response_Inhibition"	"LEFT"	"Time_Max_Exceeded"	1500.05443340009	950.0000019	n/a	n/a	n/a	n/a	n/a	n/a	n/a	"2020-03-09 13:27:26.322302"	"2020-03-09 13:27:27.826477"	69	5.12622006666667
"S200309"	"Response_Inhibition"	"LEFT"	"LEFT"	435.906299999942	733.3333348	n/a	n/a	n/a	n/a	n/a	n/a	n/a	"2020-03-09 13:27:28.569478"	"2020-03-09 13:27:29.212409"	70	5.12622006666667
"S200309"	"Response_Inhibition"	"RIGHT"	"RIGHT"	416.678400000023	1383.3333361	n/a	n/a	n/a	n/a	n/a	n/a	n/a	"2020-03-09 13:27:30.604963"	"2020-03-09 13:27:31.228196"	71	5.12622006666667
"S200309"	"Response_Inhibition"	"RIGHT"	"RIGHT"	304.395400000089	950.0000019	n/a	n/a	n/a	n/a	n/a	n/a	n/a	"2020-03-09 13:27:32.188711"	"2020-03-09 13:27:32.700426"	72	5.12622006666667
"S200309"	"Response_Inhibition"	"LEFT"	"LEFT"	459.471600000029	916.6666685	n/a	n/a	n/a	n/a	n/a	n/a	n/a	"2020-03-09 13:27:33.625690"	"2020-03-09 13:27:34.293756"	73	5.12622006666667
"S200309"	"Response_Inhibition"	"RIGHT"	"RIGHT"	321.558900399968	850.0000017	n/a	n/a	n/a	n/a	n/a	n/a	n/a	"2020-03-09 13:27:35.152709"	"2020-03-09 13:27:35.685283"	74	5.12622006666667
"S200309"	"Response_Inhibition"	"LEFT"	"LEFT"	355.264000200011	816.6666683	n/a	n/a	n/a	n/a	n/a	n/a	n/a	"2020-03-09 13:27:36.510872"	"2020-03-09 13:27:37.077793"	75	5.12622006666667
"S200309"	"Response_Inhibition"	"LEFT"	"LEFT"	445.824700000003	833.333335	n/a	n/a	n/a	n/a	n/a	n/a	n/a	"2020-03-09 13:27:37.919638"	"2020-03-09 13:27:38.573307"	76	5.12622006666667
"S200309"	"Response_Inhibition"	"LEFT"	"LEFT"	349.394800000027	1050.0000021	n/a	n/a	n/a	n/a	n/a	n/a	n/a	"2020-03-09 13:27:39.631775"	"2020-03-09 13:27:40.189977"	77	5.12622006666667
"S200309"	"Response_Inhibition"	"LEFT"	"Time_Max_Exceeded"	1500.05473359996	500.000001	n/a	n/a	n/a	n/a	n/a	n/a	n/a	"2020-03-09 13:27:40.699493"	"2020-03-09 13:27:42.202898"	78	5.12622006666667
"S200309"	"Response_Inhibition"	"RIGHT"	"Time_Max_Exceeded"	1500.05026670002	1266.6666692	n/a	n/a	n/a	n/a	n/a	n/a	n/a	"2020-03-09 13:27:43.478908"	"2020-03-09 13:27:44.982434"	79	5.12622006666667
"S200309"	"Response_Inhibition"	"RIGHT"	"RIGHT"	457.939499999952	1100.0000022	n/a	n/a	n/a	n/a	n/a	n/a	n/a	"2020-03-09 13:27:46.091085"	"2020-03-09 13:27:46.758092"	80	5.12622006666667
"S200309"	"Response_Inhibition"	"LEFT"	"LEFT"	330.905199999961	683.3333347	n/a	n/a	n/a	n/a	n/a	n/a	n/a	"2020-03-09 13:27:47.450245"	"2020-03-09 13:27:47.988735"	81	5.12622006666667
"S200309"	"Response_Inhibition"	"RIGHT"	"RIGHT"	308.547600299906	783.3333349	n/a	n/a	n/a	n/a	n/a	n/a	n/a	"2020-03-09 13:27:48.781332"	"2020-03-09 13:27:49.301044"	82	5.12622006666667
"S200309"	"Response_Inhibition"	"RIGHT"	"RIGHT"	630.094600000007	633.3333346	n/a	n/a	n/a	n/a	n/a	n/a	n/a	"2020-03-09 13:27:49.942731"	"2020-03-09 13:27:50.782103"	83	5.12622006666667
"S200309"	"Response_Inhibition"	"RIGHT"	"RIGHT"	414.476600000057	1000.000002	n/a	n/a	n/a	n/a	n/a	n/a	n/a	"2020-03-09 13:27:51.790430"	"2020-03-09 13:27:52.413164"	84	5.12622006666667
"S200309"	"Response_Inhibition"	"RIGHT"	"RIGHT"	278.145733400001	1150.0000023	n/a	n/a	n/a	n/a	n/a	n/a	n/a	"2020-03-09 13:27:53.571459"	"2020-03-09 13:27:54.062150"	85	5.12622006666667
"S200309"	"Response_Inhibition"	"LEFT"	"LEFT"	550.700199999937	583.3333345	n/a	n/a	n/a	n/a	n/a	n/a	n/a	"2020-03-09 13:27:54.654774"	"2020-03-09 13:27:55.414686"	86	5.12622006666667
"S200309"	"Response_Inhibition"	"RIGHT"	"RIGHT"	543.55170000008	550.0000011	n/a	n/a	n/a	n/a	n/a	n/a	n/a	"2020-03-09 13:27:55.973181"	"2020-03-09 13:27:56.726634"	87	5.12622006666667
"S200309"	"Response_Inhibition"	"LEFT"	"LEFT"	270.694499999991	783.3333349	n/a	n/a	n/a	n/a	n/a	n/a	n/a	"2020-03-09 13:27:57.518080"	"2020-03-09 13:27:58.000178"	88	5.12622006666667
"S200309"	"Response_Inhibition"	"RIGHT"	"RIGHT"	327.807099999973	883.3333351	n/a	n/a	n/a	n/a	n/a	n/a	n/a	"2020-03-09 13:27:58.893448"	"2020-03-09 13:27:59.430550"	89	5.12622006666667
"S200309"	"Response_Inhibition"	"RIGHT"	"Time_Max_Exceeded"	1500.05123349998	833.333335	n/a	n/a	n/a	n/a	n/a	n/a	n/a	"2020-03-09 13:28:00.274672"	"2020-03-09 13:28:01.777452"	90	5.12622006666667
"S200309"	"Response_Inhibition"	"LEFT"	"LEFT"	371.274500000027	966.6666686	n/a	n/a	n/a	n/a	n/a	n/a	n/a	"2020-03-09 13:28:02.753772"	"2020-03-09 13:28:03.332695"	91	5.12622006666667
"S200309"	"Response_Inhibition"	"RIGHT"	"RIGHT"	491.252599999939	1466.6666696	n/a	n/a	n/a	n/a	n/a	n/a	n/a	"2020-03-09 13:28:04.810150"	"2020-03-09 13:28:05.508216"	92	5.12622006666667
"S200309"	"Response_Inhibition"	"LEFT"	"LEFT"	281.450799999902	1150.0000023	n/a	n/a	n/a	n/a	n/a	n/a	n/a	"2020-03-09 13:28:06.667833"	"2020-03-09 13:28:07.157117"	93	5.12622006666667
"S200309"	"Response_Inhibition"	"RIGHT"	"RIGHT"	344.382500000052	566.6666678	n/a	n/a	n/a	n/a	n/a	n/a	n/a	"2020-03-09 13:28:07.732893"	"2020-03-09 13:28:08.284417"	94	5.12622006666667
"S200309"	"Response_Inhibition"	"RIGHT"	"RIGHT"	328.902299999982	583.3333345	n/a	n/a	n/a	n/a	n/a	n/a	n/a	"2020-03-09 13:28:08.876496"	"2020-03-09 13:28:09.414136"	95	5.12622006666667
"S200309"	"Response_Inhibition"	"LEFT"	"Time_Max_Exceeded"	1500.06040000005	633.3333346	n/a	n/a	n/a	n/a	n/a	n/a	n/a	"2020-03-09 13:28:10.055992"	"2020-03-09 13:28:11.556792"	96	5.12622006666667
"S200309"	"Response_Inhibition"	"RIGHT"	"RIGHT"	348.314599999981	1283.3333359	n/a	n/a	n/a	n/a	n/a	n/a	n/a	"2020-03-09 13:28:12.849095"	"2020-03-09 13:28:13.404942"	97	5.12622006666667
"S200309"	"Response_Inhibition"	"RIGHT"	"RIGHT"	278.337066900048	933.3333352	n/a	n/a	n/a	n/a	n/a	n/a	n/a	"2020-03-09 13:28:14.347007"	"2020-03-09 13:28:14.837741"	98	5.12622006666667
"S200309"	"Response_Inhibition"	"LEFT"	"LEFT"	310.23689999995	1216.6666691	n/a	n/a	n/a	n/a	n/a	n/a	n/a	"2020-03-09 13:28:16.062828"	"2020-03-09 13:28:16.580736"	99	5.12622006666667
"S200309"	"Response_Inhibition"	"RIGHT"	"RIGHT"	299.6841335001	1416.6666695	n/a	n/a	n/a	n/a	n/a	n/a	n/a	"2020-03-09 13:28:18.006198"	"2020-03-09 13:28:18.517139"	100	5.12622006666667
"S200309"	"Response_Inhibition"	"LEFT"	"LEFT"	415.760200000022	783.3333349	n/a	n/a	n/a	n/a	n/a	n/a	n/a	"2020-03-09 13:28:19.309567"	"2020-03-09 13:28:19.932782"	101	5.12622006666667
"S200309"	"Response_Inhibition"	"RIGHT"	"RIGHT"	511.518799999976	1183.3333357	n/a	n/a	n/a	n/a	n/a	n/a	n/a	"2020-03-09 13:28:21.125470"	"2020-03-09 13:28:21.844574"	102	5.12622006666667
"S200309"	"Response_Inhibition"	"LEFT"	"LEFT"	420.331699999906	1266.6666692	n/a	n/a	n/a	n/a	n/a	n/a	n/a	"2020-03-09 13:28:23.120836"	"2020-03-09 13:28:23.751910"	103	5.12622006666667
"S200309"	"Response_Inhibition"	"RIGHT"	"RIGHT"	332.235833800008	533.3333344	n/a	n/a	n/a	n/a	n/a	n/a	n/a	"2020-03-09 13:28:24.293442"	"2020-03-09 13:28:24.837653"	104	5.12622006666667
"S200309"	"Response_Inhibition"	"LEFT"	"LEFT"	431.988000000047	750.0000015	n/a	n/a	n/a	n/a	n/a	n/a	n/a	"2020-03-09 13:28:25.596872"	"2020-03-09 13:28:26.236436"	105	5.12622006666667
"S200309"	"Response_Inhibition"	"RIGHT"	"RIGHT"	307.613699999933	683.3333347	n/a	n/a	n/a	n/a	n/a	n/a	n/a	"2020-03-09 13:28:26.929515"	"2020-03-09 13:28:27.446132"	106	5.12622006666667
"S200309"	"Response_Inhibition"	"LEFT"	"LEFT"	267.937899999993	850.0000017	n/a	n/a	n/a	n/a	n/a	n/a	n/a	"2020-03-09 13:28:28.304879"	"2020-03-09 13:28:28.781906"	107	5.12622006666667
"S200309"	"Response_Inhibition"	"LEFT"	"LEFT"	353.617099999951	1316.6666693	n/a	n/a	n/a	n/a	n/a	n/a	n/a	"2020-03-09 13:28:30.107569"	"2020-03-09 13:28:30.669633"	108	5.12622006666667
"S200309"	"Response_Inhibition"	"LEFT"	"Time_Max_Exceeded"	1500.04813339998	1250.0000025	n/a	n/a	n/a	n/a	n/a	n/a	n/a	"2020-03-09 13:28:31.928678"	"2020-03-09 13:28:33.432183"	109	5.12622006666667
"S200309"	"Response_Inhibition"	"RIGHT"	"RIGHT"	375.763367200009	1016.6666687	n/a	n/a	n/a	n/a	n/a	n/a	n/a	"2020-03-09 13:28:34.458370"	"2020-03-09 13:28:35.045447"	110	5.12622006666667
"S200309"	"Response_Inhibition"	"LEFT"	"LEFT"	399.839333800027	900.0000018	n/a	n/a	n/a	n/a	n/a	n/a	n/a	"2020-03-09 13:28:35.954006"	"2020-03-09 13:28:36.564381"	111	5.12622006666667
"S200309"	"Response_Inhibition"	"RIGHT"	"RIGHT"	531.165999999985	916.6666685	n/a	n/a	n/a	n/a	n/a	n/a	n/a	"2020-03-09 13:28:37.489701"	"2020-03-09 13:28:38.229152"	112	5.12622006666667
"S200309"	"Response_Inhibition"	"LEFT"	"LEFT"	345.55279999995	700.0000014	n/a	n/a	n/a	n/a	n/a	n/a	n/a	"2020-03-09 13:28:38.939949"	"2020-03-09 13:28:39.493697"	113	5.12622006666667
"S200309"	"Response_Inhibition"	"RIGHT"	"RIGHT"	284.082166999993	1366.6666694	n/a	n/a	n/a	n/a	n/a	n/a	n/a	"2020-03-09 13:28:40.870278"	"2020-03-09 13:28:41.364518"	114	5.12622006666667
"S200309"	"Response_Inhibition"	"RIGHT"	"Time_Max_Exceeded"	1500.08176690009	1450.0000029	n/a	n/a	n/a	n/a	n/a	n/a	n/a	"2020-03-09 13:28:42.822560"	"2020-03-09 13:28:44.326099"	115	5.12622006666667
"S200309"	"Response_Inhibition"	"RIGHT"	"RIGHT"	419.642199999998	650.0000013	n/a	n/a	n/a	n/a	n/a	n/a	n/a	"2020-03-09 13:28:44.985225"	"2020-03-09 13:28:45.612541"	116	5.12622006666667
"S200309"	"Response_Inhibition"	"RIGHT"	"RIGHT"	407.312499999989	1416.6666695	n/a	n/a	n/a	n/a	n/a	n/a	n/a	"2020-03-09 13:28:47.037839"	"2020-03-09 13:28:47.653791"	117	5.12622006666667
"S200309"	"Response_Inhibition"	"RIGHT"	"RIGHT"	290.617400000087	1300.0000026	n/a	n/a	n/a	n/a	n/a	n/a	n/a	"2020-03-09 13:28:48.962487"	"2020-03-09 13:28:49.460291"	118	5.12622006666667
"S200309"	"Response_Inhibition"	"RIGHT"	"RIGHT"	342.120133799962	966.6666686	n/a	n/a	n/a	n/a	n/a	n/a	n/a	"2020-03-09 13:28:50.435331"	"2020-03-09 13:28:50.989380"	119	5.12622006666667
"S200309"	"Response_Inhibition"	"LEFT"	"LEFT"	350.567400000045	1416.6666695	n/a	n/a	n/a	n/a	n/a	n/a	n/a	"2020-03-09 13:28:52.414392"	"2020-03-09 13:28:52.972574"	120	5.12622006666667
"S200309"	"Response_Inhibition"	"LEFT"	"LEFT"	303.132100499971	533.3333344	n/a	n/a	n/a	n/a	n/a	n/a	n/a	"2020-03-09 13:28:53.514766"	"2020-03-09 13:28:54.028973"	121	5.12622006666667
"S200309"	"Response_Inhibition"	"RIGHT"	"RIGHT"	381.093300000089	1250.0000025	n/a	n/a	n/a	n/a	n/a	n/a	n/a	"2020-03-09 13:28:55.287764"	"2020-03-09 13:28:55.877440"	122	5.12622006666667
"S200309"	"Response_Inhibition"	"RIGHT"	"RIGHT"	286.109699999997	1000.000002	n/a	n/a	n/a	n/a	n/a	n/a	n/a	"2020-03-09 13:28:56.887232"	"2020-03-09 13:28:57.381619"	123	5.12622006666667
"S200309"	"Response_Inhibition"	"RIGHT"	"RIGHT"	304.526099999975	950.0000019	n/a	n/a	n/a	n/a	n/a	n/a	n/a	"2020-03-09 13:28:58.340725"	"2020-03-09 13:28:58.853344"	124	5.12622006666667
"S200309"	"Response_Inhibition"	"RIGHT"	"RIGHT"	297.30660000007	1133.3333356	n/a	n/a	n/a	n/a	n/a	n/a	n/a	"2020-03-09 13:28:59.995197"	"2020-03-09 13:29:00.500507"	125	5.12622006666667
"S200309"	"Response_Inhibition"	"LEFT"	"LEFT"	417.366900000047	566.6666678	n/a	n/a	n/a	n/a	n/a	n/a	n/a	"2020-03-09 13:29:01.075395"	"2020-03-09 13:29:01.701764"	126	5.12622006666667
"S200309"	"Response_Inhibition"	"RIGHT"	"RIGHT"	309.878000000026	800.0000016	n/a	n/a	n/a	n/a	n/a	n/a	n/a	"2020-03-09 13:29:02.511452"	"2020-03-09 13:29:03.029074"	127	5.12622006666667
"S200309"	"Response_Inhibition"	"RIGHT"	"RIGHT"	296.320400000013	983.3333353	n/a	n/a	n/a	n/a	n/a	n/a	n/a	"2020-03-09 13:29:04.021009"	"2020-03-09 13:29:04.524559"	128	5.12622006666667
"S200309"	"Response_Inhibition"	"LEFT"	"LEFT"	421.714099999917	1450.0000029	n/a	n/a	n/a	n/a	n/a	n/a	n/a	"2020-03-09 13:29:05.983530"	"2020-03-09 13:29:06.613155"	129	5.12622006666667
"S200309"	"Response_Inhibition"	"RIGHT"	"Time_Max_Exceeded"	1500.05580009997	1216.6666691	n/a	n/a	n/a	n/a	n/a	n/a	n/a	"2020-03-09 13:29:07.838714"	"2020-03-09 13:29:09.341951"	130	5.12622006666667
"S200309"	"Response_Inhibition"	"LEFT"	"RIGHT"	287.093033699955	1083.3333355	n/a	n/a	n/a	n/a	n/a	n/a	n/a	"2020-03-09 13:29:10.434457"	"2020-03-09 13:29:10.932685"	131	5.12622006666667
"S200309"	"Response_Inhibition"	"LEFT"	"LEFT"	511.840699999993	1200.0000024	n/a	n/a	n/a	n/a	n/a	n/a	n/a	"2020-03-09 13:29:12.140778"	"2020-03-09 13:29:12.860548"	132	5.12622006666667
"S200309"	"Response_Inhibition"	"LEFT"	"LEFT"	353.514666999941	1283.3333359	n/a	n/a	n/a	n/a	n/a	n/a	n/a	"2020-03-09 13:29:14.152246"	"2020-03-09 13:29:14.716341"	133	5.12622006666667
"S200309"	"Response_Inhibition"	"RIGHT"	"RIGHT"	503.756700000054	816.6666683	n/a	n/a	n/a	n/a	n/a	n/a	n/a	"2020-03-09 13:29:15.541747"	"2020-03-09 13:29:16.253865"	134	5.12622006666667
"S200309"	"Response_Inhibition"	"RIGHT"	"Time_Max_Exceeded"	1500.06306670006	1083.3333355	n/a	n/a	n/a	n/a	n/a	n/a	n/a	"2020-03-09 13:29:17.345996"	"2020-03-09 13:29:18.849996"	135	5.12622006666667
"S200309"	"Response_Inhibition"	"LEFT"	"LEFT"	406.504199999972	683.3333347	n/a	n/a	n/a	n/a	n/a	n/a	n/a	"2020-03-09 13:29:19.542721"	"2020-03-09 13:29:20.156320"	136	5.12622006666667
"S200309"	"Response_Inhibition"	"RIGHT"	"RIGHT"	306.257100000039	1350.0000027	n/a	n/a	n/a	n/a	n/a	n/a	n/a	"2020-03-09 13:29:21.515242"	"2020-03-09 13:29:22.029873"	137	5.12622006666667
"S200309"	"Response_Inhibition"	"RIGHT"	"RIGHT"	425.291099999981	533.3333344	n/a	n/a	n/a	n/a	n/a	n/a	n/a	"2020-03-09 13:29:22.571738"	"2020-03-09 13:29:23.206144"	138	5.12622006666667
"S200309"	"Response_Inhibition"	"LEFT"	"LEFT"	353.908999999931	516.6666677	n/a	n/a	n/a	n/a	n/a	n/a	n/a	"2020-03-09 13:29:23.731635"	"2020-03-09 13:29:24.293745"	139	5.12622006666667
"S200309"	"Response_Inhibition"	"RIGHT"	"RIGHT"	304.010000000062	1366.6666694	n/a	n/a	n/a	n/a	n/a	n/a	n/a	"2020-03-09 13:29:25.669326"	"2020-03-09 13:29:26.180549"	140	5.12622006666667
"S200309"	"Response_Inhibition"	"RIGHT"	"RIGHT"	296.665699999949	783.3333349	n/a	n/a	n/a	n/a	n/a	n/a	n/a	"2020-03-09 13:29:26.972780"	"2020-03-09 13:29:27.476335"	141	5.12622006666667
"S200309"	"Response_Inhibition"	"RIGHT"	"RIGHT"	291.367100000002	716.6666681	n/a	n/a	n/a	n/a	n/a	n/a	n/a	"2020-03-09 13:29:28.201512"	"2020-03-09 13:29:28.700319"	142	5.12622006666667
"S200309"	"Response_Inhibition"	"LEFT"	"LEFT"	341.542799999957	650.0000013	n/a	n/a	n/a	n/a	n/a	n/a	n/a	"2020-03-09 13:29:29.359747"	"2020-03-09 13:29:29.908865"	143	5.12622006666667
"S200309"	"Response_Inhibition"	"LEFT"	"LEFT"	303.355500099998	733.3333348	n/a	n/a	n/a	n/a	n/a	n/a	n/a	"2020-03-09 13:29:30.650873"	"2020-03-09 13:29:31.165677"	144	5.12622006666667
"S200309"	"Response_Inhibition"	"LEFT"	"LEFT"	416.587599999957	1350.0000027	n/a	n/a	n/a	n/a	n/a	n/a	n/a	"2020-03-09 13:29:32.524176"	"2020-03-09 13:29:33.148540"	145	5.12622006666667
"S200309"	"Response_Inhibition"	"RIGHT"	"RIGHT"	260.757299999909	1483.3333363	n/a	n/a	n/a	n/a	n/a	n/a	n/a	"2020-03-09 13:29:34.640294"	"2020-03-09 13:29:35.109640"	146	5.12622006666667
"S200309"	"Response_Inhibition"	"RIGHT"	"RIGHT"	303.311399999984	766.6666682	n/a	n/a	n/a	n/a	n/a	n/a	n/a	"2020-03-09 13:29:35.885589"	"2020-03-09 13:29:36.396658"	147	5.12622006666667
"S200309"	"Response_Inhibition"	"LEFT"	"Time_Max_Exceeded"	1500.04830009993	1383.3333361	n/a	n/a	n/a	n/a	n/a	n/a	n/a	"2020-03-09 13:29:37.788758"	"2020-03-09 13:29:39.292249"	148	5.12622006666667
"S200309"	"Response_Inhibition"	"LEFT"	"LEFT"	325.7323338	1366.6666694	n/a	n/a	n/a	n/a	n/a	n/a	n/a	"2020-03-09 13:29:40.668051"	"2020-03-09 13:29:41.206868"	149	5.12622006666667
"S200309"	"Response_Inhibition"	"LEFT"	"LEFT"	456.346900000085	1333.333336	n/a	n/a	n/a	n/a	n/a	n/a	n/a	"2020-03-09 13:29:42.548585"	"2020-03-09 13:29:43.212902"	150	5.12622006666667
"S200309"	"Response_Inhibition"	"LEFT"	"LEFT"	351.683699999967	600.0000012	n/a	n/a	n/a	n/a	n/a	n/a	n/a	"2020-03-09 13:29:43.821196"	"2020-03-09 13:29:44.381706"	151	5.12622006666667
"S200309"	"Response_Inhibition"	"LEFT"	"LEFT"	375.084400000105	983.3333353	n/a	n/a	n/a	n/a	n/a	n/a	n/a	"2020-03-09 13:29:45.373562"	"2020-03-09 13:29:45.957999"	152	5.12622006666667
"S200309"	"Response_Inhibition"	"RIGHT"	"RIGHT"	335.125733600045	1316.6666693	n/a	n/a	n/a	n/a	n/a	n/a	n/a	"2020-03-09 13:29:47.282845"	"2020-03-09 13:29:47.829403"	153	5.12622006666667
"S200309"	"Response_Inhibition"	"RIGHT"	"RIGHT"	314.669800000047	1100.0000022	n/a	n/a	n/a	n/a	n/a	n/a	n/a	"2020-03-09 13:29:48.938374"	"2020-03-09 13:29:49.461971"	154	5.12622006666667
"S200309"	"Response_Inhibition"	"LEFT"	"LEFT"	295.647800499983	1466.6666696	n/a	n/a	n/a	n/a	n/a	n/a	n/a	"2020-03-09 13:29:50.938425"	"2020-03-09 13:29:51.446058"	155	5.12622006666667
"S200309"	"Response_Inhibition"	"RIGHT"	"Time_Max_Exceeded"	1500.05926700002	733.3333348	n/a	n/a	n/a	n/a	n/a	n/a	n/a	"2020-03-09 13:29:52.188466"	"2020-03-09 13:29:53.691480"	156	5.12622006666667
"S200309"	"Response_Inhibition"	"LEFT"	"Time_Max_Exceeded"	1500.05346700008	800.0000016	n/a	n/a	n/a	n/a	n/a	n/a	n/a	"2020-03-09 13:29:54.500957"	"2020-03-09 13:29:56.004411"	157	5.12622006666667
"S200309"	"Response_Inhibition"	"RIGHT"	"Time_Max_Exceeded"	1500.05860020008	1033.3333354	n/a	n/a	n/a	n/a	n/a	n/a	n/a	"2020-03-09 13:29:57.046635"	"2020-03-09 13:29:58.550149"	158	5.12622006666667
"S200309"	"Response_Inhibition"	"RIGHT"	"RIGHT"	442.589699999985	1266.6666692	n/a	n/a	n/a	n/a	n/a	n/a	n/a	"2020-03-09 13:29:59.826478"	"2020-03-09 13:30:00.478065"	159	5.12622006666667
"S200309"	"Response_Inhibition"	"LEFT"	"LEFT"	363.067800000067	1483.3333363	n/a	n/a	n/a	n/a	n/a	n/a	n/a	"2020-03-09 13:30:01.970291"	"2020-03-09 13:30:02.541207"	160	5.12622006666667
"S200309"	"Response_Selection"	"RIGHT"	"RIGHT"	448.299499999962	550.0000011	n/a	n/a	n/a	n/a	n/a	n/a	n/a	"2020-03-09 13:22:55.884797"	"2020-03-09 13:22:56.541897"	1	2.78471126666667
"S200309"	"Response_Selection"	"RIGHT"	"RIGHT"	292.085199999974	866.6666684	n/a	n/a	n/a	n/a	n/a	n/a	n/a	"2020-03-09 13:22:57.417252"	"2020-03-09 13:22:57.918140"	2	2.78471126666667
"S200309"	"Response_Selection"	"RIGHT"	"RIGHT"	266.975699999989	700.0000014	n/a	n/a	n/a	n/a	n/a	n/a	n/a	"2020-03-09 13:22:58.626228"	"2020-03-09 13:22:59.102008"	3	2.78471126666667
"S200309"	"Response_Selection"	"RIGHT"	"RIGHT"	284.13599999999	1266.6666692	n/a	n/a	n/a	n/a	n/a	n/a	n/a	"2020-03-09 13:23:00.377221"	"2020-03-09 13:23:00.868806"	4	2.78471126666667
"S200309"	"Response_Selection"	"LEFT"	"LEFT"	258.268899999962	1350.0000027	n/a	n/a	n/a	n/a	n/a	n/a	n/a	"2020-03-09 13:23:02.227206"	"2020-03-09 13:23:02.693402"	5	2.78471126666667
"S200309"	"Response_Selection"	"RIGHT"	"RIGHT"	252.858500000002	1466.6666696	n/a	n/a	n/a	n/a	n/a	n/a	n/a	"2020-03-09 13:23:04.168622"	"2020-03-09 13:23:04.630153"	6	2.78471126666667
"S200309"	"Response_Selection"	"RIGHT"	"RIGHT"	251.610700000015	1083.3333355	n/a	n/a	n/a	n/a	n/a	n/a	n/a	"2020-03-09 13:23:05.721607"	"2020-03-09 13:23:06.182069"	7	2.78471126666667
"S200309"	"Response_Selection"	"LEFT"	"LEFT"	260.882999999922	1033.3333354	n/a	n/a	n/a	n/a	n/a	n/a	n/a	"2020-03-09 13:23:07.224070"	"2020-03-09 13:23:07.694046"	8	2.78471126666667
"S200309"	"Response_Selection"	"RIGHT"	"RIGHT"	240.841899999964	750.0000015	n/a	n/a	n/a	n/a	n/a	n/a	n/a	"2020-03-09 13:23:08.452224"	"2020-03-09 13:23:08.902527"	9	2.78471126666667
"S200309"	"Response_Selection"	"LEFT"	"LEFT"	246.289499999989	800.0000016	n/a	n/a	n/a	n/a	n/a	n/a	n/a	"2020-03-09 13:23:09.711375"	"2020-03-09 13:23:10.164906"	10	2.78471126666667
"S200309"	"Response_Selection"	"LEFT"	"LEFT"	252.828799999975	1083.3333355	n/a	n/a	n/a	n/a	n/a	n/a	n/a	"2020-03-09 13:23:11.256555"	"2020-03-09 13:23:11.717915"	11	2.78471126666667
"S200309"	"Response_Selection"	"LEFT"	"LEFT"	256.728100000032	750.0000015	n/a	n/a	n/a	n/a	n/a	n/a	n/a	"2020-03-09 13:23:12.476657"	"2020-03-09 13:23:12.941256"	12	2.78471126666667
"S200309"	"Response_Selection"	"RIGHT"	"RIGHT"	255.874100000028	783.3333349	n/a	n/a	n/a	n/a	n/a	n/a	n/a	"2020-03-09 13:23:13.733716"	"2020-03-09 13:23:14.197050"	13	2.78471126666667
"S200309"	"Response_Selection"	"LEFT"	"LEFT"	217.70939999999	550.0000011	n/a	n/a	n/a	n/a	n/a	n/a	n/a	"2020-03-09 13:23:14.755216"	"2020-03-09 13:23:15.182055"	14	2.78471126666667
"S200309"	"Response_Selection"	"LEFT"	"LEFT"	297.704000000067	500.000001	n/a	n/a	n/a	n/a	n/a	n/a	n/a	"2020-03-09 13:23:15.691594"	"2020-03-09 13:23:16.197916"	15	2.78471126666667
"S200309"	"Response_Selection"	"LEFT"	"LEFT"	288.272599999914	1366.6666694	n/a	n/a	n/a	n/a	n/a	n/a	n/a	"2020-03-09 13:23:17.572951"	"2020-03-09 13:23:18.069776"	16	2.78471126666667
"S200309"	"Response_Selection"	"LEFT"	"LEFT"	267.238300000031	883.3333351	n/a	n/a	n/a	n/a	n/a	n/a	n/a	"2020-03-09 13:23:18.961990"	"2020-03-09 13:23:19.438526"	17	2.78471126666667
"S200309"	"Response_Selection"	"RIGHT"	"RIGHT"	248.868199999947	933.3333352	n/a	n/a	n/a	n/a	n/a	n/a	n/a	"2020-03-09 13:23:20.380210"	"2020-03-09 13:23:20.836929"	18	2.78471126666667
"S200309"	"Response_Selection"	"RIGHT"	"RIGHT"	256.14680000001	966.6666686	n/a	n/a	n/a	n/a	n/a	n/a	n/a	"2020-03-09 13:23:21.813590"	"2020-03-09 13:23:22.276365"	19	2.78471126666667
"S200309"	"Response_Selection"	"LEFT"	"LEFT"	261.582900000008	866.6666684	n/a	n/a	n/a	n/a	n/a	n/a	n/a	"2020-03-09 13:23:23.151819"	"2020-03-09 13:23:23.620985"	20	2.78471126666667
"S200309"	"Response_Selection"	"RIGHT"	"RIGHT"	246.040300000004	1033.3333354	n/a	n/a	n/a	n/a	n/a	n/a	n/a	"2020-03-09 13:23:24.663436"	"2020-03-09 13:23:25.116221"	21	2.78471126666667
"S200309"	"Response_Selection"	"RIGHT"	"RIGHT"	274.929300000053	916.6666685	n/a	n/a	n/a	n/a	n/a	n/a	n/a	"2020-03-09 13:23:26.042796"	"2020-03-09 13:23:26.525281"	22	2.78471126666667
"S200309"	"Response_Selection"	"LEFT"	"LEFT"	319.447299999979	600.0000012	n/a	n/a	n/a	n/a	n/a	n/a	n/a	"2020-03-09 13:23:27.133861"	"2020-03-09 13:23:27.660472"	23	2.78471126666667
"S200309"	"Response_Selection"	"LEFT"	"LEFT"	281.779300000039	783.3333349	n/a	n/a	n/a	n/a	n/a	n/a	n/a	"2020-03-09 13:23:28.452565"	"2020-03-09 13:23:28.941826"	24	2.78471126666667
"S200309"	"Response_Selection"	"RIGHT"	"RIGHT"	298.292800000013	1116.6666689	n/a	n/a	n/a	n/a	n/a	n/a	n/a	"2020-03-09 13:23:30.066667"	"2020-03-09 13:23:30.572335"	25	2.78471126666667
"S200309"	"Response_Selection"	"LEFT"	"LEFT"	267.07429999999	533.3333344	n/a	n/a	n/a	n/a	n/a	n/a	n/a	"2020-03-09 13:23:31.114521"	"2020-03-09 13:23:31.589889"	26	2.78471126666667
"S200309"	"Response_Selection"	"LEFT"	"LEFT"	250.531000000024	683.3333347	n/a	n/a	n/a	n/a	n/a	n/a	n/a	"2020-03-09 13:23:32.283040"	"2020-03-09 13:23:32.740476"	27	2.78471126666667
"S200309"	"Response_Selection"	"RIGHT"	"RIGHT"	248.173700000052	800.0000016	n/a	n/a	n/a	n/a	n/a	n/a	n/a	"2020-03-09 13:23:33.549000"	"2020-03-09 13:23:34.005223"	28	2.78471126666667
"S200309"	"Response_Selection"	"LEFT"	"LEFT"	298.682399999961	1316.6666693	n/a	n/a	n/a	n/a	n/a	n/a	n/a	"2020-03-09 13:23:35.330762"	"2020-03-09 13:23:35.836392"	29	2.78471126666667
"S200309"	"Response_Selection"	"RIGHT"	"RIGHT"	271.902299999965	1416.6666695	n/a	n/a	n/a	n/a	n/a	n/a	n/a	"2020-03-09 13:23:37.261566"	"2020-03-09 13:23:37.740295"	30	2.78471126666667
"S200309"	"Response_Selection"	"RIGHT"	"RIGHT"	268.034000000057	1300.0000026	n/a	n/a	n/a	n/a	n/a	n/a	n/a	"2020-03-09 13:23:39.049061"	"2020-03-09 13:23:39.525643"	31	2.78471126666667
"S200309"	"Response_Selection"	"RIGHT"	"RIGHT"	263.209500000016	1400.0000028	n/a	n/a	n/a	n/a	n/a	n/a	n/a	"2020-03-09 13:23:40.933846"	"2020-03-09 13:23:41.405444"	32	2.78471126666667
"S200309"	"Response_Selection"	"RIGHT"	"RIGHT"	222.689100000025	1216.6666691	n/a	n/a	n/a	n/a	n/a	n/a	n/a	"2020-03-09 13:23:42.630303"	"2020-03-09 13:23:43.061786"	33	2.78471126666667
"S200309"	"Response_Selection"	"LEFT"	"LEFT"	354.241400000092	700.0000014	n/a	n/a	n/a	n/a	n/a	n/a	n/a	"2020-03-09 13:23:43.771472"	"2020-03-09 13:23:44.333920"	34	2.78471126666667
"S200309"	"Response_Selection"	"LEFT"	"LEFT"	297.07899999994	1133.3333356	n/a	n/a	n/a	n/a	n/a	n/a	n/a	"2020-03-09 13:23:45.476580"	"2020-03-09 13:23:45.980229"	35	2.78471126666667
"S200309"	"Response_Selection"	"LEFT"	"LEFT"	270.572399999992	1450.0000029	n/a	n/a	n/a	n/a	n/a	n/a	n/a	"2020-03-09 13:23:47.438548"	"2020-03-09 13:23:47.919781"	36	2.78471126666667
"S200309"	"Response_Selection"	"LEFT"	"LEFT"	260.881299999937	1200.0000024	n/a	n/a	n/a	n/a	n/a	n/a	n/a	"2020-03-09 13:23:49.128811"	"2020-03-09 13:23:49.596517"	37	2.78471126666667
"S200309"	"Response_Selection"	"RIGHT"	"RIGHT"	262.024300000007	1450.0000029	n/a	n/a	n/a	n/a	n/a	n/a	n/a	"2020-03-09 13:23:51.055655"	"2020-03-09 13:23:51.524468"	38	2.78471126666667
"S200309"	"Response_Selection"	"RIGHT"	"RIGHT"	311.020099999951	633.3333346	n/a	n/a	n/a	n/a	n/a	n/a	n/a	"2020-03-09 13:23:52.166382"	"2020-03-09 13:23:52.685698"	39	2.78471126666667
"S200309"	"Response_Selection"	"LEFT"	"LEFT"	382.819199999972	1400.0000028	n/a	n/a	n/a	n/a	n/a	n/a	n/a	"2020-03-09 13:23:54.094339"	"2020-03-09 13:23:54.684369"	40	2.78471126666667
"S200309"	"Response_Selection"	"LEFT"	"LEFT"	227.402099999949	916.6666685	n/a	n/a	n/a	n/a	n/a	n/a	n/a	"2020-03-09 13:23:55.610134"	"2020-03-09 13:23:56.045976"	41	2.78471126666667
"S200309"	"Response_Selection"	"RIGHT"	"RIGHT"	284.786499999996	650.0000013	n/a	n/a	n/a	n/a	n/a	n/a	n/a	"2020-03-09 13:23:56.704269"	"2020-03-09 13:23:57.196568"	42	2.78471126666667
"S200309"	"Response_Selection"	"RIGHT"	"RIGHT"	263.738999999987	1016.6666687	n/a	n/a	n/a	n/a	n/a	n/a	n/a	"2020-03-09 13:23:58.221489"	"2020-03-09 13:23:58.692312"	43	2.78471126666667
"S200309"	"Response_Selection"	"RIGHT"	"RIGHT"	291.010999999912	533.3333344	n/a	n/a	n/a	n/a	n/a	n/a	n/a	"2020-03-09 13:23:59.233940"	"2020-03-09 13:23:59.732612"	44	2.78471126666667
"S200309"	"Response_Selection"	"LEFT"	"LEFT"	268.303699999933	1300.0000026	n/a	n/a	n/a	n/a	n/a	n/a	n/a	"2020-03-09 13:24:01.041366"	"2020-03-09 13:24:01.518095"	45	2.78471126666667
"S200309"	"Response_Selection"	"RIGHT"	"RIGHT"	260.682299999985	1250.0000025	n/a	n/a	n/a	n/a	n/a	n/a	n/a	"2020-03-09 13:24:02.776726"	"2020-03-09 13:24:03.244469"	46	2.78471126666667
"S200309"	"Response_Selection"	"LEFT"	"LEFT"	305.326499999978	966.6666686	n/a	n/a	n/a	n/a	n/a	n/a	n/a	"2020-03-09 13:24:04.220158"	"2020-03-09 13:24:04.733889"	47	2.78471126666667
"S200309"	"Response_Selection"	"RIGHT"	"RIGHT"	359.210200000007	1366.6666694	n/a	n/a	n/a	n/a	n/a	n/a	n/a	"2020-03-09 13:24:06.109864"	"2020-03-09 13:24:06.678099"	48	2.78471126666667
"S200309"	"Response_Selection"	"RIGHT"	"RIGHT"	249.403299999926	1316.6666693	n/a	n/a	n/a	n/a	n/a	n/a	n/a	"2020-03-09 13:24:08.004237"	"2020-03-09 13:24:08.461150"	49	2.78471126666667
"S200309"	"Response_Selection"	"RIGHT"	"RIGHT"	296.501800000101	1166.666669	n/a	n/a	n/a	n/a	n/a	n/a	n/a	"2020-03-09 13:24:09.637165"	"2020-03-09 13:24:10.140398"	50	2.78471126666667
"S200309"	"Response_Selection"	"LEFT"	"LEFT"	264.841199999978	983.3333353	n/a	n/a	n/a	n/a	n/a	n/a	n/a	"2020-03-09 13:24:11.132471"	"2020-03-09 13:24:11.604847"	51	2.78471126666667
"S200309"	"Response_Selection"	"LEFT"	"LEFT"	247.435200000041	1016.6666687	n/a	n/a	n/a	n/a	n/a	n/a	n/a	"2020-03-09 13:24:12.630187"	"2020-03-09 13:24:13.084615"	52	2.78471126666667
"S200309"	"Response_Selection"	"RIGHT"	"RIGHT"	268.614000000071	883.3333351	n/a	n/a	n/a	n/a	n/a	n/a	n/a	"2020-03-09 13:24:13.976824"	"2020-03-09 13:24:14.452505"	53	2.78471126666667
"S200309"	"Response_Selection"	"RIGHT"	"RIGHT"	375.718299999903	1200.0000024	n/a	n/a	n/a	n/a	n/a	n/a	n/a	"2020-03-09 13:24:15.661987"	"2020-03-09 13:24:16.245999"	54	2.78471126666667
"S200309"	"Response_Selection"	"LEFT"	"LEFT"	257.427800000073	933.3333352	n/a	n/a	n/a	n/a	n/a	n/a	n/a	"2020-03-09 13:24:17.187431"	"2020-03-09 13:24:17.652191"	55	2.78471126666667
"S200309"	"Response_Selection"	"RIGHT"	"RIGHT"	266.579299999989	1350.0000027	n/a	n/a	n/a	n/a	n/a	n/a	n/a	"2020-03-09 13:24:19.011099"	"2020-03-09 13:24:19.485390"	56	2.78471126666667
"S200309"	"Response_Selection"	"LEFT"	"LEFT"	252.47139999999	1266.6666692	n/a	n/a	n/a	n/a	n/a	n/a	n/a	"2020-03-09 13:24:20.760750"	"2020-03-09 13:24:21.221205"	57	2.78471126666667
"S200309"	"Response_Selection"	"RIGHT"	"RIGHT"	275.528200000053	500.000001	n/a	n/a	n/a	n/a	n/a	n/a	n/a	"2020-03-09 13:24:21.729660"	"2020-03-09 13:24:22.212380"	58	2.78471126666667
"S200309"	"Response_Selection"	"LEFT"	"LEFT"	258.25640000005	733.3333348	n/a	n/a	n/a	n/a	n/a	n/a	n/a	"2020-03-09 13:24:22.955129"	"2020-03-09 13:24:23.420503"	59	2.78471126666667
"S200309"	"Response_Selection"	"RIGHT"	"LEFT"	249.140299999908	983.3333353	n/a	n/a	n/a	n/a	n/a	n/a	n/a	"2020-03-09 13:24:24.412594"	"2020-03-09 13:24:24.869832"	60	2.78471126666667
"S200309"	"Response_Selection"	"RIGHT"	"RIGHT"	241.430200000082	733.3333348	n/a	n/a	n/a	n/a	n/a	n/a	n/a	"2020-03-09 13:24:25.612301"	"2020-03-09 13:24:26.062096"	61	2.78471126666667
"S200309"	"Response_Selection"	"LEFT"	"LEFT"	251.863500000013	650.0000013	n/a	n/a	n/a	n/a	n/a	n/a	n/a	"2020-03-09 13:24:26.721169"	"2020-03-09 13:24:27.181947"	62	2.78471126666667
"S200309"	"Response_Selection"	"LEFT"	"LEFT"	277.24210000008	833.333335	n/a	n/a	n/a	n/a	n/a	n/a	n/a	"2020-03-09 13:24:28.024003"	"2020-03-09 13:24:28.508881"	63	2.78471126666667
"S200309"	"Response_Selection"	"LEFT"	"LEFT"	269.723899999917	1250.0000025	n/a	n/a	n/a	n/a	n/a	n/a	n/a	"2020-03-09 13:24:29.767175"	"2020-03-09 13:24:30.246048"	64	2.78471126666667
"S200309"	"Response_Selection"	"RIGHT"	"RIGHT"	291.298299999994	683.3333347	n/a	n/a	n/a	n/a	n/a	n/a	n/a	"2020-03-09 13:24:30.938266"	"2020-03-09 13:24:31.436466"	65	2.78471126666667
"S200309"	"Response_Selection"	"RIGHT"	"RIGHT"	290.82470000003	1133.3333356	n/a	n/a	n/a	n/a	n/a	n/a	n/a	"2020-03-09 13:24:32.578208"	"2020-03-09 13:24:33.076581"	66	2.78471126666667
"S200309"	"Response_Selection"	"LEFT"	"LEFT"	384.998699999983	583.3333345	n/a	n/a	n/a	n/a	n/a	n/a	n/a	"2020-03-09 13:24:33.668245"	"2020-03-09 13:24:34.262083"	67	2.78471126666667
"S200309"	"Response_Selection"	"LEFT"	"LEFT"	309.328100000016	1416.6666695	n/a	n/a	n/a	n/a	n/a	n/a	n/a	"2020-03-09 13:24:35.687593"	"2020-03-09 13:24:36.206028"	68	2.78471126666667
"S200309"	"Response_Selection"	"RIGHT"	"RIGHT"	244.083499999988	1066.6666688	n/a	n/a	n/a	n/a	n/a	n/a	n/a	"2020-03-09 13:24:37.281023"	"2020-03-09 13:24:37.733995"	69	2.78471126666667
"S200309"	"Response_Selection"	"LEFT"	"LEFT"	301.133499999992	633.3333346	n/a	n/a	n/a	n/a	n/a	n/a	n/a	"2020-03-09 13:24:38.375936"	"2020-03-09 13:24:38.885058"	70	2.78471126666667
"S200309"	"Response_Selection"	"LEFT"	"LEFT"	275.277200000005	1116.6666689	n/a	n/a	n/a	n/a	n/a	n/a	n/a	"2020-03-09 13:24:40.010242"	"2020-03-09 13:24:40.494030"	71	2.78471126666667
"S200309"	"Response_Selection"	"RIGHT"	"RIGHT"	318.4708	600.0000012	n/a	n/a	n/a	n/a	n/a	n/a	n/a	"2020-03-09 13:24:41.102780"	"2020-03-09 13:24:41.628440"	72	2.78471126666667
"S200309"	"Response_Selection"	"LEFT"	"LEFT"	277.471199999923	1466.6666696	n/a	n/a	n/a	n/a	n/a	n/a	n/a	"2020-03-09 13:24:43.104048"	"2020-03-09 13:24:43.590035"	73	2.78471126666667
"S200309"	"Response_Selection"	"RIGHT"	"RIGHT"	303.382599999964	583.3333345	n/a	n/a	n/a	n/a	n/a	n/a	n/a	"2020-03-09 13:24:44.181665"	"2020-03-09 13:24:44.693084"	74	2.78471126666667
"S200309"	"Response_Selection"	"RIGHT"	"RIGHT"	259.532799999988	1500.000003	n/a	n/a	n/a	n/a	n/a	n/a	n/a	"2020-03-09 13:24:46.201794"	"2020-03-09 13:24:46.668854"	75	2.78471126666667
"S200309"	"Response_Selection"	"RIGHT"	"RIGHT"	310.748499999931	833.333335	n/a	n/a	n/a	n/a	n/a	n/a	n/a	"2020-03-09 13:24:47.510700"	"2020-03-09 13:24:48.030017"	76	2.78471126666667
"S200309"	"Response_Selection"	"LEFT"	"LEFT"	269.580000000019	1216.6666691	n/a	n/a	n/a	n/a	n/a	n/a	n/a	"2020-03-09 13:24:49.255430"	"2020-03-09 13:24:49.732203"	77	2.78471126666667
"S200309"	"Response_Selection"	"LEFT"	"LEFT"	268.307100000015	1500.000003	n/a	n/a	n/a	n/a	n/a	n/a	n/a	"2020-03-09 13:24:51.240596"	"2020-03-09 13:24:51.716326"	78	2.78471126666667
"S200309"	"Response_Selection"	"LEFT"	"LEFT"	266.057400000022	1166.666669	n/a	n/a	n/a	n/a	n/a	n/a	n/a	"2020-03-09 13:24:52.891619"	"2020-03-09 13:24:53.365917"	79	2.78471126666667
"S200309"	"Response_Selection"	"LEFT"	"LEFT"	251.809800000046	1066.6666688	n/a	n/a	n/a	n/a	n/a	n/a	n/a	"2020-03-09 13:24:54.441831"	"2020-03-09 13:24:54.901208"	80	2.78471126666667
