index	Trial_Type	Participant_ID	Trial_Probability	Question_Position_Prediction_Correct	Question_Position_Prediction_Agent	Question_Position_Comparison_Self	Question_Position_Comparison_Irrelevant	Trial_Stake	Trial_Stake_Jitter	Trial_Type_Jitter	Trial_Result_Jitter	Balance_Update_Jitter	Question_Comparison_Condition	Question_Comparison_Type	Question_Comparison_Question	Question_Comparison_Label	Question_Comparison_Item	Question_Comparison_Proportion_Yes	Question_Factual_Condition	Question_Factual_Item	Question_Factual_Question	Question_Factual_Label	Question_Factual_Proportion_DontKnow	Question_Factual_Type	Answer_Prediction_Agent	Answer_Prediction_Agent_RT	Answer_Prediction_Correct	Answer_Prediction_Correct_RT	Answer_Irrelevant	Answer_Irrelevant_RT	Answer_Self	Answer_Self_RT	Trial_Balance	Trial_Balance_Effect	Trial_Condition	Trial_ProbableSide	Prediction_Choice	Prediction_Result	Prediction_RT	Trial_Order	Trial_Datetime
30	Self	S200309	0.6666666666666666	2	1	2	1	0.4	1066.6666688	1500.000003	1933.3333372	2216.6666711000003	Minor	Good_deeds	2	You have sorted your trash into recycling bin	C1_14	0.0	Easy	I1_5	5	The Moon orbits around the Earth	0.888888888888889	No	RIGHT	667.0535000000655	RIGHT	352.9162999999471	RIGHT	1335.1093999999648	RIGHT	1334.3419000000267	10.4	0.4	Probable_Truth	LEFT	LEFT	2	557.841499999995	0	2020-03-09 14:00:42.010870
101	Computer	S200309	0.5	1	2	2	1	0.8	1000.000002	1350.0000027	2066.6666708	2500.000005	Minor	Good_deeds	45	You have stopped using plastics completely	C2_13	0.0	Hard	I2_46	24	Nanyang Technological University is in Australia	0.833333333333333	No	LEFT	335.14930000001186	LEFT	940.0647999999592	LEFT	1148.715100000004	LEFT	2112.4624000000267	10.4	0.8	Probable_Lie	LEFT	LEFT	6	983.1781361683892	1	2020-03-09 14:01:07.018309
4	Self	S200309	0.5	1	2	2	1	0.5	1500.000003	1283.3333359	2500.000005	2350.0000047	Minor	Good_deeds	48	You have violated a traffic law	C2_45	0.0	Hard	I2_55	2	Mexico's National Day is September 16	0.0	Yes	RIGHT	310.9869999999546	LEFT	628.1007999999701	RIGHT	1924.072199999955	LEFT	976.6588999999612	9.9	0.5	Probable_Lie	LEFT	LEFT	5	1128.243399999974	2	2020-03-09 14:01:32.194896
33	Self	S200309	0.8333333333333334	1	2	1	2	0.7	1500.000003	1150.0000023	1650.0000033	1783.3333369	Minor	Wrong_doings	25	You have engaged in money laundering	C2_40	1.0	Easy	I2_41	29	Summer is hotter than winter	1.0	Yes	RIGHT	320.2761000000009	RIGHT	519.6836000000076	RIGHT	1079.695899999933	LEFT	1074.3826000000354	10.6	0.7	Probable_Truth	LEFT	LEFT	1	741.4880000000039	3	2020-03-09 14:01:54.585012
8	Self	S200309	0.5	2	1	1	2	0.7	1350.0000027	1500.000003	1783.3333369	1783.3333369	Minor	Wrong_doings	33	You have let a homeless man into your house	C2_53	0.9	Hard	I2_48	3	Beer is an alcoholic drink	1.0	Yes	RIGHT	472.8177000000642	RIGHT	448.1464000000415	RIGHT	1103.6604999999329	LEFT	1777.8558999999632	11.3	0.7	Probable_Truth	RIGHT	RIGHT	6	646.4666999999054	4	2020-03-09 14:02:18.025007
88	Self	S200309	0.8333333333333334	2	1	1	2	0.1	1500.000003	1283.3333359	2066.6666708	1933.3333372	Minor	Wrong_doings	3	You have given way to the handicapped	C1_36	0.95	Hard	I1_35	23	Kangaroos live in Africa	0.666666666666667	Yes	RIGHT	749.7411000000511	LEFT	864.3283999999767	RIGHT	1087.7882999999429	RIGHT	1085.0484999999708	11.2	0.1	Probable_Lie	RIGHT	RIGHT	1	682.2644999999739	5	2020-03-09 14:02:41.849818
65	Self	S200309	0.6666666666666666	1	2	1	2	0.2	1000.000002	1150.0000023	1783.3333369	2500.000005	Minor	Wrong_doings	11	You have claimed doing things that you never did	C2_9	0.95	Hard	I2_56	56	There is typically 0.6 grams of mercury in glass thermometer	0.0	No	RIGHT	319.2444000000023	LEFT	544.4762999999284	RIGHT	2615.70740000002	LEFT	1700.4320999999436	11.0	0.2	Probable_Lie	RIGHT	RIGHT	2	932.372999999984	6	2020-03-09 14:03:06.970894
134	Computer	S200309	0.8333333333333334	1	2	2	1	0.3	1066.6666688	1150.0000023	2500.000005	2350.0000047	Minor	Good_deeds	16	You have participated in a scamming business	C2_25	0.85	Easy	I1_45	28	Christmas Day is in March	1.0	No	LEFT	687.5797000000148	LEFT	932.1115000000192	LEFT	1305.6199999999762	LEFT	1126.701300000036	11.0	0.3	Probable_Lie	RIGHT	LEFT	5	648.1883553410704	7	2020-03-09 14:03:31.313694
73	Self	S200309	0.6666666666666666	2	1	1	2	0.5	1283.3333359	1500.000003	2216.6666711000003	2066.6666708	Minor	Good_deeds	23	You have made counterfeit money	C2_31	0.1	Hard	I2_34	37	Pyramid of Giza is 468 feet tall	0.833333333333333	Yes	RIGHT	1345.4147999999575	RIGHT	535.9624000000167	LEFT	928.3334000000424	LEFT	942.1672999999372	11.5	0.5	Probable_Truth	RIGHT	RIGHT	4	931.774500000074	8	2020-03-09 14:03:55.634123
130	Computer	S200309	0.8333333333333334	1	2	1	2	0.5	1433.3333362	1350.0000027	2066.6666708	2216.6666711000003	Minor	Good_deeds	58	You have made someone cry	C2_10	0.95	Hard	I1_28	43	Cleopatra was born in Greece	0.722222222222222	Yes	LEFT	288.4629000000132	LEFT	918.1897000000844	RIGHT	1366.9724999999744	LEFT	801.1218000000326	11.5	0.5	Probable_Lie	RIGHT	LEFT	4	727.8079667002887	9	2020-03-09 14:04:19.379653
85	Self	S200309	0.8333333333333334	1	2	2	1	0.8	1350.0000027	1500.000003	2500.000005	1500.000003	Major	Good_deeds	7	You have lied to your parents	C2_7	0.0	Hard	I1_44	13	French is Singapore's official language	0.0	Yes	RIGHT	336.58390000005056	LEFT	933.0391999999392	LEFT	883.5854000000154	LEFT	895.5816999999797	10.7	0.8	Probable_Lie	RIGHT	RIGHT	1	724.7520000000804	10	2020-03-09 14:04:42.577837
41	Self	S200309	0.8333333333333334	2	1	1	2	0.7	1150.0000023	1350.0000027	1783.3333369	2216.6666711000003	Minor	Good_deeds	30	You have been arrested	C2_30	0.0	Easy	I1_57	25	A triangle has three sides	0.0555555555555556	Yes	RIGHT	1105.3243000000066	LEFT	390.9353000000237	RIGHT	817.1890999999505	LEFT	696.6380000000072	10.0	0.7	Probable_Lie	RIGHT	RIGHT	1	475.962099999947	11	2020-03-09 14:05:05.137872
66	Self	S200309	0.6666666666666666	1	2	1	2	0.8	1066.6666688	1433.3333362	2066.6666708	1500.000003	Minor	Wrong_doings	17	You have sheltered others from disasters	C1_47	0.15	Hard	I1_33	42	Acoustic Kitty refers to cat with implants	0.888888888888889	No	RIGHT	296.99940000000424	RIGHT	667.5804000000198	LEFT	2063.3255999999847	RIGHT	1253.194399999984	10.8	0.8	Probable_Truth	LEFT	LEFT	1	755.6905000000143	12	2020-03-09 14:05:28.817420
95	Self	S200309	0.8333333333333334	2	1	2	1	0.4	1150.0000023	1000.000002	1933.3333372	2500.000005	Major	Wrong_doings	38	You have used heroin	C2_27	1.0	Hard	I2_16	47	Earth's atmosphere extends up to 10,000km into space	0.0555555555555556	Yes	RIGHT	436.8793999999525	RIGHT	214.86800000002404	RIGHT	1135.1356000000123	LEFT	871.8308999999635	11.2	0.4	Probable_Truth	RIGHT	RIGHT	5	643.811899999946	13	2020-03-09 14:05:51.273834
67	Self	S200309	0.6666666666666666	1	2	1	2	0.1	1350.0000027	1500.000003	2500.000005	2066.6666708	Minor	Good_deeds	4	You have been convicted in court	C2_17	0.9	Easy	I2_42	33	The Earth is round	0.0	Yes	RIGHT	256.2357000000475	RIGHT	500.3004999999803	RIGHT	632.4536999999282	LEFT	920.0579999999264	11.3	0.1	Probable_Truth	LEFT	LEFT	2	631.2062000000651	14	2020-03-09 14:06:14.201203
72	Self	S200309	0.6666666666666666	2	1	1	2	0.8	1433.3333362	1066.6666688	1500.000003	1933.3333372	Major	Wrong_doings	22	You have volunteered every week for many years	C2_57	0.9	Easy	I1_12	22	Some owl species hunt fish	0.0	No	LEFT	765.012200000001	LEFT	1105.2700000000186	RIGHT	1560.4776999999783	RIGHT	1364.2985999999837	11.3	0.8	Probable_Lie	LEFT	LEFT	6	652.0389000000932	15	2020-03-09 14:06:38.153313
47	Self	S200309	0.8333333333333334	2	1	2	1	0.5	1283.3333359	1000.000002	2500.000005	1933.3333372	Major	Wrong_doings	6	You have helped others to pick up their belongings	C1_6	0.5	Easy	I2_25	17	Feijoa is a type of grape	0.833333333333333	No	RIGHT	789.1498000000183	RIGHT	263.0254000000605	LEFT	1249.7556999999233	RIGHT	750.8220000000847	11.8	0.5	Probable_Truth	RIGHT	RIGHT	2	963.5950000000548	16	2020-03-09 14:07:01.465921
43	Self	S200309	0.8333333333333334	2	1	1	2	0.2	1066.6666688	1150.0000023	2350.0000047	2500.000005	Minor	Wrong_doings	58	You have provided shelter for stray animals	C1_51	1.0	Easy	I2_45	45	The human's inner ear is larger than a pencil eraser	0.666666666666667	No	RIGHT	395.4735999999457	RIGHT	247.06090000006495	LEFT	1350.6840999999667	RIGHT	1044.6124000000054	12.0	0.2	Probable_Truth	LEFT	LEFT	1	627.6668999998947	17	2020-03-09 14:07:24.777135
125	Computer	S200309	0.6666666666666666	2	1	2	1	0.2	1433.3333362	1066.6666688	2350.0000047	1650.0000033	Major	Wrong_doings	17	You have downloaded pirated movies	C1_34	0.85	Hard	I1_27	11	There are 9 rings in the Olympic flag	0.888888888888889	Yes	LEFT	832.1948000000248	RIGHT	423.8153999999668	LEFT	1247.837699999991	LEFT	1295.804299999986	12.0	0.2	Probable_Truth	LEFT	LEFT	2	634.7372302570825	18	2020-03-09 14:07:48.281882
20	Self	S200309	0.6666666666666666	1	2	2	1	0.1	1283.3333359	1433.3333362	2500.000005	2350.0000047	Major	Wrong_doings	5	You have drunk alcohol when you were underage	C1_31	0.0	Easy	I2_28	1	Algeria is Africa's second largest country	0.0	No	RIGHT	224.2894000000888	RIGHT	517.1553999999787	LEFT	1235.7210000000125	LEFT	1198.9175999999588	12.1	0.1	Probable_Truth	RIGHT	RIGHT	4	1446.661800000015	19	2020-03-09 14:08:13.041558
17	Self	S200309	0.6666666666666666	1	2	1	2	0.7	1000.000002	1350.0000027	1783.3333369	2500.000005	Major	Good_deeds	28	You have donated a pay cheque to charity	C1_5	0.8	Easy	I2_51	40	A caterpillar has more muscle than a human	0.0	Yes	RIGHT	408.7254999999459	RIGHT	473.5817999999199	LEFT	1511.140800000021	RIGHT	1164.7272000000155	12.8	0.7	Probable_Lie	LEFT	LEFT	4	683.0557000000681	20	2020-03-09 14:08:36.489391
127	Computer	S200309	0.6666666666666666	2	1	2	1	0.5	1150.0000023	1000.000002	1783.3333369	1500.000003	Major	Good_deeds	34	You have followed instructions	C2_52	0.55	Easy	I2_11	4	Carnivore refers to meat-eater	0.0555555555555556	Yes	LEFT	914.3278999999892	LEFT	392.01219999995374	RIGHT	1678.816599999891	RIGHT	815.5417000000398	12.8	0.5	Probable_Lie	RIGHT	RIGHT	2	879.4467185523042	21	2020-03-09 14:08:59.178283
57	Self	S200309	0.5	2	1	1	2	0.6	1433.3333362	1433.3333362	1783.3333369	1933.3333372	Minor	Wrong_doings	40	You have engaged in arson	C2_6	0.95	Easy	I1_11	54	Cheese is an Asian staple	0.944444444444444	No	RIGHT	316.22379999998884	RIGHT	269.7845000000143	LEFT	1016.0137000000304	LEFT	941.6111000000456	13.4	0.6	Probable_Truth	LEFT	LEFT	2	1008.7484000000586	22	2020-03-09 14:09:21.889198
60	Self	S200309	0.5	2	1	2	1	0.3	1066.6666688	1350.0000027	1500.000003	1500.000003	Minor	Wrong_doings	11	You have bought cocaine	C1_3	0.65	Hard	I1_19	31	A square has 3 corners	0.0	No	LEFT	739.748899999995	LEFT	726.8824000000222	LEFT	1534.578300000021	LEFT	696.4606000001368	13.4	0.3	Probable_Lie	LEFT	LEFT	6	740.3314000000591	23	2020-03-09 14:09:44.321124
135	Computer	S200309	0.8333333333333334	1	2	2	1	0.6	1150.0000023	1066.6666688	1783.3333369	1783.3333369	Major	Good_deeds	40	You have queued to enter the MRT train	C2_60	1.0	Easy	I2_43	41	It takes 112 years to build the Pisa Tower	0.0555555555555556	Yes	LEFT	318.8982000001488	RIGHT	1333.8991000000533	LEFT	1218.3138000000326	RIGHT	799.2010999998911	13.4	0.6	Probable_Truth	RIGHT	LEFT	1	962.7898202986236	24	2020-03-09 14:10:07.313829
64	Self	S200309	0.6666666666666666	1	2	1	2	0.3	1150.0000023	1283.3333359	1500.000003	1933.3333372	Major	Good_deeds	38	You have shown your appreciation to your teachers	C1_11	0.55	Easy	I1_38	8	Chickens lay eggs	0.777777777777778	Yes	RIGHT	304.2669000001297	RIGHT	284.94049999994786	RIGHT	664.5178000001124	RIGHT	1009.9535000001651	13.7	0.3	Probable_Truth	LEFT	LEFT	2	519.8804999999993	25	2020-03-09 14:10:28.537544
122	Computer	S200309	0.6666666666666666	2	1	1	2	0.6	1500.000003	1433.3333362	2216.6666711000003	1933.3333372	Minor	Wrong_doings	14	You have assisted in a crime	C2_47	0.0	Hard	I1_46	1	"Statue of Liberty is 151 feet tall"	0.111111111111111	No	LEFT	602.9864000001908	LEFT	231.6373000001022	LEFT	975.4100000000108	LEFT	789.4836000000396	13.7	0.6	Probable_Lie	LEFT	LEFT	6	884.6210973570935	26	2020-03-09 14:10:51.673429
104	Computer	S200309	0.5	2	1	1	2	0.7	1283.3333359	1283.3333359	2500.000005	2350.0000047	Minor	Wrong_doings	33	You have let a homeless man into your house	C2_53	0.9	Hard	I2_48	3	Beer is an alcoholic drink	1.0	Yes	LEFT	572.5956000001133	LEFT	327.9463000001215	RIGHT	888.207199999897	LEFT	1171.5127999998458	13.7	0.7	Probable_Lie	RIGHT	RIGHT	3	869.214352064927	27	2020-03-09 14:11:15.489066
28	Self	S200309	0.6666666666666666	2	1	2	1	0.2	1150.0000023	1283.3333359	1500.000003	2350.0000047	Major	Wrong_doings	60	You have bribed someone to improve a grade	C1_60	0.45	Easy	I2_4	46	There are 10 continents in the World	0.888888888888889	No	LEFT	1067.7909999999429	LEFT	616.4693000000625	LEFT	1162.3552999999447	LEFT	847.6053000001684	13.7	0.2	Probable_Lie	RIGHT	RIGHT	1	750.9902000001603	28	2020-03-09 14:11:38.792535
2	Self	S200309	0.5	1	2	1	2	0.7	1283.3333359	1150.0000023	2216.6666711000003	1933.3333372	Major	Good_deeds	13	You have confessed to your mistake	C1_48	0.0	Hard	I1_58	3	Mozambique is the world's poorest country	0.833333333333333	No	RIGHT	287.7664000000095	RIGHT	327.7237999998306	RIGHT	1518.6330999999882	RIGHT	823.4762999998111	14.4	0.7	Probable_Truth	LEFT	RIGHT	4	957.7855	29	2020-03-09 14:12:01.867684
27	Self	S200309	0.6666666666666666	2	1	1	2	0.8	1283.3333359	1433.3333362	2500.000005	1500.000003	Minor	Good_deeds	18	You have gossiped about your best friend	C2_18	0.95	Easy	I1_48	60	There are 6 million animal species on Earth	0.0555555555555556	Yes	LEFT	292.1010000000024	LEFT	470.8737000000838	LEFT	1151.3698999999633	LEFT	874.8563999999988	14.4	0.8	Probable_Lie	RIGHT	RIGHT	1	616.7319000001044	30	2020-03-09 14:12:24.568992
44	Self	S200309	0.8333333333333334	2	1	2	1	0.8	1500.000003	1283.3333359	2066.6666708	2350.0000047	Major	Good_deeds	29	You have started a hotline for victims of bully	C1_42	0.0	Hard	I1_41	30	Vegetarians can eat vegetable products	0.0	Yes	RIGHT	565.9433000000718	RIGHT	329.3097000000671	RIGHT	1530.844399999978	LEFT	1727.599300000065	15.2	0.8	Probable_Truth	LEFT	LEFT	1	416.7361000002074	31	2020-03-09 14:12:48.913892
6	Self	S200309	0.5	1	2	2	1	0.3	1066.6666688	1433.3333362	2350.0000047	1500.000003	Minor	Good_deeds	33	You have said thank you when you have received help	C1_49	0.75	Easy	I1_42	46	Beef comes from cows	1.0	No	LEFT	439.7002000000612	LEFT	474.8713999999836	RIGHT	860.3213000001233	RIGHT	823.8491999998132	15.2	0.3	Probable_Lie	RIGHT	LEFT	5	634.4904000000042	32	2020-03-09 14:13:11.073473
143	Computer	S200309	0.8333333333333334	2	1	2	1	0.1	1000.000002	1500.000003	1783.3333369	2350.0000047	Major	Wrong_doings	6	You have helped others to pick up their belongings	C1_6	0.5	Easy	I2_25	17	Feijoa is a type of grape	0.833333333333333	No	LEFT	313.7460000000374	LEFT	232.63809999980367	LEFT	786.5252999999939	RIGHT	663.5119999998551	15.2	0.1	Probable_Lie	LEFT	RIGHT	1	594.1400382177823	33	2020-03-09 14:13:32.873660
26	Self	S200309	0.6666666666666666	2	1	1	2	0.6	1500.000003	1350.0000027	2216.6666711000003	1783.3333369	Minor	Wrong_doings	14	You have assisted in a crime	C2_47	0.0	Hard	I1_46	1	"Statue of Liberty is 151 feet tall"	0.111111111111111	No	LEFT	367.1417000000474	LEFT	472.0248999999512	LEFT	823.3597999999347	LEFT	570.5765999998675	15.2	0.6	Probable_Lie	RIGHT	RIGHT	2	613.871200000176	34	2020-03-09 14:13:55.144686
92	Self	S200309	0.8333333333333334	2	1	2	1	0.7	1433.3333362	1066.6666688	2216.6666711000003	1783.3333369	Minor	Good_deeds	59	You have told someone's secret to others	C1_59	0.2	Easy	I2_44	21	There are 20 bones in the human skull	0.0	No	RIGHT	838.9371999999184	RIGHT	351.9922000000406	LEFT	1139.250899999979	LEFT	1223.3273000001643	15.9	0.7	Probable_Truth	RIGHT	RIGHT	4	661.1725000000206	35	2020-03-09 14:14:18.432726
39	Self	S200309	0.8333333333333334	1	2	2	1	0.5	1216.6666691	1433.3333362	2216.6666711000003	2066.6666708	Major	Good_deeds	40	You have queued to enter the MRT train	C2_60	1.0	Easy	I2_43	41	It takes 112 years to build the Pisa Tower	0.0555555555555556	Yes	RIGHT	449.07069999999294	RIGHT	432.35359999994216	LEFT	1101.998500000036	RIGHT	655.2650999999514	16.4	0.5	Probable_Truth	RIGHT	RIGHT	5	570.6897000000026	36	2020-03-09 14:14:41.153877
53	Self	S200309	0.5	1	2	2	1	0.4	1216.6666691	1216.6666691	1783.3333369	1783.3333369	Minor	Good_deeds	26	You have blackmailed others for money	C2_43	1.0	Hard	I1_14	54	China is a part of Asia	0.777777777777778	No	RIGHT	319.7239000000991	RIGHT	369.81520000017554	RIGHT	817.6590000000488	LEFT	686.5253000000848	16.799999999999997	0.4	Probable_Truth	LEFT	LEFT	2	618.0916000000707	37	2020-03-09 14:15:02.544998
76	Self	S200309	0.6666666666666666	2	1	2	1	0.2	1066.6666688	1150.0000023	1933.3333372	1500.000003	Minor	Good_deeds	31	You have engaged in drink-driving	C2_23	0.05	Easy	I1_52	6	It is 20th Century now	0.0	Yes	RIGHT	282.7462000000196	RIGHT	432.6117999999042	RIGHT	621.6750999999476	LEFT	2304.8756999999114	16.999999999999996	0.2	Probable_Truth	LEFT	LEFT	2	564.6057999999812	38	2020-03-09 14:15:24.977852
123	Computer	S200309	0.6666666666666666	2	1	1	2	0.4	1216.6666691	1500.000003	2066.6666708	2216.6666711000003	Minor	Good_deeds	18	You have gossiped about your best friend	C2_18	0.95	Easy	I1_48	60	There are 6 million animal species on Earth	0.0555555555555556	Yes	LEFT	751.1930999999095	RIGHT	472.1982000000935	LEFT	823.7504000001081	LEFT	696.4046000000508	16.999999999999996	0.4	Probable_Lie	LEFT	LEFT	4	648.5240331537175	39	2020-03-09 14:15:47.945608
35	Self	S200309	0.8333333333333334	1	2	1	2	0.3	1000.000002	1283.3333359	2066.6666708	1650.0000033	Major	Wrong_doings	60	You have volunteered for a disaster-related humanitarian mission	C1_27	0.05	Hard	I2_58	23	R. Amundsen discovered the South Pole	0.888888888888889	Yes	RIGHT	257.86779999998544	RIGHT	445.891999999958	LEFT	1727.0313999999871	RIGHT	1590.8783999998377	17.299999999999997	0.3	Probable_Truth	RIGHT	RIGHT	5	824.3735999999444	40	2020-03-09 14:16:11.369299
36	Self	S200309	0.8333333333333334	1	2	2	1	0.4	1350.0000027	1500.000003	2500.000005	2500.000005	Minor	Good_deeds	27	You have offered a listening ear to a friend	C1_58	0.25	Hard	I1_29	45	Arabi is the oldest surviving breed of horse	0.0555555555555556	No	RIGHT	296.0258000000522	RIGHT	325.4193999998733	RIGHT	2277.512300000126	RIGHT	904.7143000000232	17.699999999999996	0.4	Probable_Truth	LEFT	LEFT	1	901.7104000001837	41	2020-03-09 14:16:36.497697
12	Self	S200309	0.5	2	1	2	1	0.1	1216.6666691	1283.3333359	1650.0000033	1933.3333372	Minor	Wrong_doings	28	You have switched off appliances when not in use	C1_7	0.45	Easy	I1_31	31	It is snowing outside now	0.888888888888889	No	RIGHT	335.4004000000259	RIGHT	280.42949999985467	LEFT	1174.5660999999927	RIGHT	1088.6274000001777	17.799999999999997	0.1	Probable_Truth	RIGHT	LEFT	1	778.7453999999343	42	2020-03-09 14:16:58.809801
98	Computer	S200309	0.5	1	2	1	2	0.5	1066.6666688	1216.6666691	1500.000003	2066.6666708	Major	Good_deeds	13	You have confessed to your mistake	C1_48	0.0	Hard	I1_58	3	Mozambique is the world's poorest country	0.833333333333333	No	LEFT	505.5181000000175	RIGHT	310.6905000001916	RIGHT	1055.7925000000523	RIGHT	872.413399999914	17.799999999999997	0.5	Probable_Truth	LEFT	LEFT	2	513.6568792903347	43	2020-03-09 14:17:20.489182
121	Computer	S200309	0.6666666666666666	2	1	1	2	0.3	1283.3333359	1150.0000023	1500.000003	2350.0000047	Minor	Good_deeds	47	You have been restricting your electricity consumption	C2_2	0.1	Hard	I2_1	48	Astatine is the rarest element in the Earth's crust	0.888888888888889	No	LEFT	399.3391000001338	LEFT	200.4547999999886	RIGHT	1135.0714000000153	RIGHT	1444.512899999836	17.799999999999997	0.3	Probable_Lie	RIGHT	RIGHT	1	773.2969385959195	44	2020-03-09 14:17:43.288232
131	Computer	S200309	0.8333333333333334	1	2	1	2	0.7	1350.0000027	1433.3333362	2350.0000047	1650.0000033	Major	Wrong_doings	60	You have volunteered for a disaster-related humanitarian mission	C1_27	0.05	Hard	I2_58	23	R. Amundsen discovered the South Pole	0.888888888888889	Yes	RIGHT	471.1021999999048	RIGHT	1071.3141999999607	RIGHT	1038.0987999999434	RIGHT	976.229099999955	18.5	0.7	Probable_Lie	RIGHT	LEFT	6	589.0107631514111	45	2020-03-09 14:18:06.784331
99	Computer	S200309	0.5	1	2	1	2	0.1	1350.0000027	1000.000002	1783.3333369	1500.000003	Major	Wrong_doings	13	You have kidnapped someone	C1_13	1.0	Easy	I2_2	15	Penguin can fly with their wings	0.0	Yes	LEFT	223.0498000001262	LEFT	804.088899999897	LEFT	926.8136999999116	LEFT	1158.4462000000713	18.5	0.1	Probable_Truth	LEFT	LEFT	2	661.3771849218656	46	2020-03-09 14:18:28.768638
45	Self	S200309	0.8333333333333334	2	1	2	1	0.1	1000.000002	1433.3333362	1500.000003	1783.3333369	Major	Good_deeds	51	You have taken responsibility for your actions	C2_16	0.7	Easy	I1_17	21	Mageirocophobia is a fear of deathly disease	0.0	Yes	RIGHT	276.99699999993754	RIGHT	231.29569999991872	LEFT	2069.043200000124	RIGHT	918.5580999999274	18.6	0.1	Probable_Truth	LEFT	LEFT	1	1085.2809999998954	47	2020-03-09 14:18:51.641215
77	Self	S200309	0.6666666666666666	2	1	2	1	0.1	1500.000003	1216.6666691	2350.0000047	2350.0000047	Minor	Good_deeds	57	You have watched an M18 movie when you were underage	C2_14	0.65	Hard	I2_22	24	December is the last month of the year	0.944444444444444	Yes	RIGHT	458.9857000000848	RIGHT	303.8633999999547	RIGHT	969.1569000001437	LEFT	863.0155000000741	18.7	0.1	Probable_Truth	LEFT	RIGHT	3	272.77380000009543	48	2020-03-09 14:20:37.832737
100	Computer	S200309	0.5	1	2	2	1	0.7	1283.3333359	1066.6666688	2350.0000047	1650.0000033	Minor	Good_deeds	48	You have violated a traffic law	C2_45	0.0	Hard	I2_55	2	Mexico's National Day is September 16	0.0	Yes	RIGHT	72.56299999994553	RIGHT	353.98810000015146	RIGHT	1294.6853999999348	LEFT	583.21490000003	19.4	0.7	Probable_Truth	RIGHT	LEFT	2	836.302404830195	49	2020-03-09 14:20:59.897722
56	Self	S200309	0.5	2	1	1	2	0.5	1283.3333359	1150.0000023	2350.0000047	2500.000005	Major	Wrong_doings	6	You have adopted a zero-waste lifestyle	C2_48	0.05	Easy	I2_31	11	The hardest bone in human body is the jawbone	0.833333333333333	Yes	RIGHT	610.6938999998874	RIGHT	192.9446999999982	RIGHT	1342.9430999999568	RIGHT	933.511499999895	19.9	0.5	Probable_Truth	LEFT	LEFT	2	627.3433999999725	50	2020-03-09 14:21:23.465669
81	Self	S200309	0.8333333333333334	1	2	1	2	0.4	1283.3333359	1216.6666691	2216.6666711000003	2066.6666708	Minor	Good_deeds	43	You have risked your life to save another person's life	C1_43	0.05	Hard	I2_5	13	The hyoid bone is the only jointless bone	0.888888888888889	No	RIGHT	304.98529999999846	RIGHT	797.9877999998735	LEFT	1472.607299999936	LEFT	1515.8106000001226	20.3	0.4	Probable_Lie	LEFT	LEFT	3	613.2955000000493	51	2020-03-09 14:21:47.528477
142	Computer	S200309	0.8333333333333334	2	1	2	1	0.4	1283.3333359	1433.3333362	1650.0000033	1933.3333372	Minor	Wrong_doings	42	You have cursed at your loved ones	C2_58	0.2	Hard	I2_21	41	It sometimes snows in Singapore	0.0555555555555556	Yes	LEFT	876.1501000001317	LEFT	263.7077999997928	LEFT	1124.3374999999105	LEFT	1008.1370999998852	20.3	0.4	Probable_Lie	RIGHT	LEFT	4	622.136569014294	52	2020-03-09 14:22:10.288358
90	Self	S200309	0.8333333333333334	2	1	1	2	0.2	1216.6666691	1350.0000027	1650.0000033	1650.0000033	Major	Wrong_doings	42	You have deceived a loved one	C2_42	0.0	Easy	I2_18	40	Last day of the year is 30th December	0.666666666666667	Yes	RIGHT	285.4753999999957	RIGHT	255.30729999991308	LEFT	1511.34970000021	LEFT	937.1057000000746	20.5	0.2	Probable_Truth	RIGHT	RIGHT	6	703.7713999998232	53	2020-03-09 14:22:32.424038
118	Computer	S200309	0.6666666666666666	1	2	2	1	0.4	1283.3333359	1150.0000023	1933.3333372	2350.0000047	Major	Wrong_doings	59	You have been donating all your excess food to a food bank	C1_28	1.0	Easy	I2_27	27	Animals are living things	0.0	Yes	RIGHT	232.5048000000152	RIGHT	349.9317000000701	RIGHT	1717.5072	LEFT	1336.3323999999466	20.899999999999995	0.4	Probable_Lie	RIGHT	LEFT	5	561.265182033085	54	2020-03-09 14:22:55.912692
34	Self	S200309	0.8333333333333334	1	2	1	2	0.1	1150.0000023	1066.6666688	1783.3333369	1500.000003	Minor	Good_deeds	58	You have made someone cry	C2_10	0.95	Hard	I1_28	43	Cleopatra was born in Greece	0.722222222222222	Yes	RIGHT	303.90620000002855	RIGHT	361.326599999984	RIGHT	823.9165999998477	LEFT	771.9184000000041	21.0	0.1	Probable_Truth	LEFT	LEFT	1	946.043900000177	55	2020-03-09 14:23:17.200535
103	Computer	S200309	0.5	1	2	2	1	0.2	1500.000003	1283.3333359	2500.000005	1933.3333372	Major	Wrong_doings	20	You have coveted things that belong to others	C2_20	0.05	Hard	I1_24	55	Statute of Liberty is in New York	0.0555555555555556	Yes	RIGHT	272.60279999995873	RIGHT	1244.3193999999949	RIGHT	1516.4255999998204	LEFT	1102.8500999998414	21.2	0.2	Probable_Truth	RIGHT	LEFT	3	502.32765558350735	56	2020-03-09 14:23:41.624262
132	Computer	S200309	0.8333333333333334	1	2	2	1	0.8	1283.3333359	1000.000002	1650.0000033	1500.000003	Minor	Good_deeds	27	You have offered a listening ear to a friend	C1_58	0.25	Hard	I1_29	45	Arabi is the oldest surviving breed of horse	0.0555555555555556	No	LEFT	231.6929999999502	LEFT	656.0523999999077	RIGHT	1157.9871000001276	LEFT	734.966600000007	21.2	0.8	Probable_Lie	LEFT	RIGHT	1	793.5406836383779	57	2020-03-09 14:24:03.208524
59	Self	S200309	0.5	2	1	1	2	0.7	1350.0000027	1500.000003	1933.3333372	1650.0000033	Major	Good_deeds	36	You have said sorry when you were rude	C1_40	0.85	Hard	I2_54	12	Dutch is the 6th Europe's most widely spoken language	0.0	No	RIGHT	1002.782600000046	RIGHT	432.7564000000166	RIGHT	1263.7847000000877	RIGHT	1135.9813000001395	21.899999999999995	0.7	Probable_Truth	LEFT	LEFT	3	996.0838000001786	58	2020-03-09 14:24:27.049212
136	Computer	S200309	0.8333333333333334	2	1	1	2	0.2	1066.6666688	1000.000002	2500.000005	2216.6666711000003	Major	Wrong_doings	50	You have fabricated facts about yourself	C2_50	0.95	Hard	I2_30	25	Airbags in cars are filled with sodium azide	0.777777777777778	No	LEFT	476.41790000011497	LEFT	240.44609999987188	LEFT	1600.94869999989	LEFT	1072.8493000001436	21.899999999999995	0.2	Probable_Truth	RIGHT	RIGHT	3	502.264679072762	59	2020-03-09 14:24:50.297874
75	Self	S200309	0.6666666666666666	2	1	1	2	0.4	1000.000002	1000.000002	2066.6666708	2216.6666711000003	Major	Wrong_doings	39	You have helped with household chores	C1_39	1.0	Easy	I2_24	34	The Seine river is 50 feet above sea level	0.944444444444444	Yes	RIGHT	340.09350000019367	RIGHT	224.43680000014865	RIGHT	1222.6013000001783	RIGHT	822.6960000001782	22.299999999999997	0.4	Probable_Truth	LEFT	LEFT	1	810.6660000000829	60	2020-03-09 14:25:12.585078
11	Self	S200309	0.5	2	1	1	2	0.2	1066.6666688	1216.6666691	1500.000003	2350.0000047	Major	Good_deeds	53	You have helped a friend in need	C1_35	0.0	Hard	I2_49	38	Slavery was abolished in Cuba in 1886	0.0	Yes	RIGHT	764.2369000000144	LEFT	575.7148000000143	RIGHT	1599.6613000002071	RIGHT	781.0244000002058	22.099999999999994	0.2	Probable_Lie	LEFT	LEFT	6	777.458900000056	61	2020-03-09 14:25:35.792731
138	Computer	S200309	0.8333333333333334	2	1	1	2	0.5	1150.0000023	1066.6666688	1500.000003	1500.000003	Minor	Good_deeds	16	You have organized a violent protest	C1_29	0.0	Hard	I1_25	57	Singapore is a poor country	0.944444444444444	No	LEFT	584.6716000000924	LEFT	713.1748000001608	RIGHT	975.580500000433	LEFT	1692.3241999998029	22.099999999999994	0.5	Probable_Truth	LEFT	RIGHT	4	548.1268484637401	62	2020-03-09 14:25:58.097285
69	Self	S200309	0.6666666666666666	1	2	2	1	0.6	1500.000003	1216.6666691	2216.6666711000003	2350.0000047	Major	Good_deeds	47	You have sign up to sponsor a needy child	C1_4	0.05	Easy	I2_8	8	The first Olympic Games was held in the 5th century B.C	0.833333333333333	No	RIGHT	473.3678000002328	RIGHT	359.2447999999422	RIGHT	2153.169600000183	RIGHT	998.1873000001542	22.7	0.6	Probable_Truth	LEFT	LEFT	1	904.6401999999034	63	2020-03-09 14:26:22.847977
137	Computer	S200309	0.8333333333333334	2	1	1	2	0.8	1500.000003	1150.0000023	1933.3333372	2500.000005	Minor	Good_deeds	30	You have been arrested	C2_30	0.0	Easy	I1_57	25	A triangle has three sides	0.0555555555555556	Yes	LEFT	228.83330000013305	LEFT	249.31299999980183	RIGHT	919.7081000002072	LEFT	850.5589000001237	22.7	0.8	Probable_Lie	RIGHT	RIGHT	1	562.6588871500353	64	2020-03-09 14:26:45.321101
37	Self	S200309	0.8333333333333334	1	2	2	1	0.8	1283.3333359	1000.000002	1500.000003	2350.0000047	Major	Wrong_doings	57	You have a non-judgmental attitude towards everyone	C1_57	0.0	Easy	I1_39	39	Brazil is in South America	0.0	No	LEFT	559.8854999998366	LEFT	468.5715000000528	RIGHT	1441.6309999996884	RIGHT	1175.7576999998491	22.7	0.8	Probable_Lie	RIGHT	RIGHT	1	1215.63980000019	65	2020-03-09 14:27:08.896667
86	Self	S200309	0.8333333333333334	1	2	2	1	0.2	1150.0000023	1000.000002	1783.3333369	1933.3333372	Major	Wrong_doings	20	You have intentionally let others cut in line	C2_54	1.0	Easy	I2_17	5	A dog has four legs	0.0	No	RIGHT	430.7828000000882	LEFT	666.9224999996004	RIGHT	931.7086000000928	RIGHT	1805.9329999996407	22.5	0.2	Probable_Lie	RIGHT	RIGHT	1	972.2823999995852	66	2020-03-09 14:27:32.152038
40	Self	S200309	0.8333333333333334	2	1	1	2	0.6	1433.3333362	1500.000003	1933.3333372	1650.0000033	Major	Wrong_doings	50	You have fabricated facts about yourself	C2_50	0.95	Hard	I2_30	25	Airbags in cars are filled with sodium azide	0.777777777777778	No	RIGHT	292.0466000000488	RIGHT	344.6073999998589	LEFT	1776.5213000002404	LEFT	934.8104999999124	23.1	0.6	Probable_Truth	RIGHT	RIGHT	3	880.5631000000176	67	2020-03-09 14:27:55.472062
51	Self	S200309	0.5	1	2	1	2	0.5	1150.0000023	1500.000003	2350.0000047	1500.000003	Minor	Wrong_doings	37	You have donated blood every 6 months for many years	C2_26	0.0	Easy	I2_52	14	Afghan Hound is the first cloned cat	0.0	Yes	RIGHT	727.5813999999627	LEFT	779.8707000001741	RIGHT	1512.5333999999384	RIGHT	1475.0914000001103	22.6	0.5	Probable_Lie	RIGHT	RIGHT	2	770.7926999996744	68	2020-03-09 14:28:19.817136
49	Self	S200309	0.5	1	2	1	2	0.6	1000.000002	1000.000002	1500.000003	2350.0000047	Minor	Good_deeds	45	You have held the elevator doors for others	C1_37	0.05	Hard	I2_50	59	South East Asia is currently free from polio	0.777777777777778	No	RIGHT	240.204900000208	RIGHT	261.6603999999825	RIGHT	1480.275999999776	RIGHT	786.4948000001277	23.2	0.6	Probable_Truth	RIGHT	RIGHT	5	606.6455999998652	69	2020-03-09 14:28:41.616828
79	Self	S200309	0.6666666666666666	2	1	2	1	0.3	1350.0000027	1283.3333359	1650.0000033	2500.000005	Major	Wrong_doings	14	You have stopped using products tested on animals	C1_50	1.0	Easy	I1_37	6	Fishes can swim in water	0.0	No	RIGHT	775.7611000001816	RIGHT	361.0767999998643	RIGHT	742.0876999999564	RIGHT	1951.2727999999695	23.5	0.3	Probable_Lie	RIGHT	RIGHT	2	1254.034099999899	70	2020-03-09 14:29:06.056464
25	Self	S200309	0.6666666666666666	2	1	1	2	0.5	1433.3333362	1000.000002	1783.3333369	1933.3333372	Minor	Good_deeds	47	You have been restricting your electricity consumption	C2_2	0.1	Hard	I2_1	48	Astatine is the rarest element in the Earth's crust	0.888888888888889	No	RIGHT	288.9228999997613	RIGHT	367.0239000002766	RIGHT	1263.3116000001792	RIGHT	1019.6826000001238	24.0	0.5	Probable_Truth	LEFT	LEFT	1	605.8704000001853	71	2020-03-09 14:29:28.328507
9	Self	S200309	0.5	2	1	1	2	0.6	1000.000002	1000.000002	2500.000005	2500.000005	Major	Good_deeds	12	You have failed to keep promises	C1_12	0.05	Easy	I2_36	36	Fibers in oranges can be used to make fabric	0.0	No	RIGHT	340.86859999979424	RIGHT	225.3816000002189	RIGHT	1894.424799999797	LEFT	1422.7225999998154	24.6	0.6	Probable_Truth	LEFT	LEFT	3	1125.8930999997574	72	2020-03-09 14:29:52.912249
50	Self	S200309	0.5	1	2	1	2	0.3	1350.0000027	1433.3333362	2500.000005	1933.3333372	Major	Wrong_doings	30	You have bought cigarettes for a minor	C1_45	0.1	Easy	I1_36	36	The current century is 21st	0.833333333333333	No	RIGHT	447.9823000001488	RIGHT	390.2131999998346	RIGHT	1103.5540999996556	LEFT	964.805100000376	24.9	0.3	Probable_Lie	RIGHT	RIGHT	2	599.3665000000874	73	2020-03-09 14:30:16.208826
78	Self	S200309	0.6666666666666666	2	1	2	1	0.7	1216.6666691	1433.3333362	1783.3333369	1783.3333369	Major	Good_deeds	23	You have faked an illness	C1_23	0.0	Hard	I1_6	12	Singapore has four seasons	0.0	No	LEFT	907.1210000001884	LEFT	704.4642999999269	LEFT	1435.0832999998602	LEFT	1576.188000000002	24.9	0.7	Probable_Lie	LEFT	LEFT	6	729.5908000000964	74	2020-03-09 14:30:40.352041
5	Self	S200309	0.5	1	2	2	1	0.4	1350.0000027	1350.0000027	1500.000003	2216.6666711000003	Minor	Good_deeds	45	You have stopped using plastics completely	C2_13	0.0	Hard	I2_46	24	Nanyang Technological University is in Australia	0.833333333333333	No	RIGHT	263.5365000001002	RIGHT	315.56060000002617	LEFT	1040.5884000001606	LEFT	1487.4418999997945	25.3	0.4	Probable_Truth	RIGHT	LEFT	3	898.9444000003459	75	2020-03-09 14:31:03.352527
83	Self	S200309	0.8333333333333334	1	2	1	2	0.3	1000.000002	1150.0000023	1933.3333372	2350.0000047	Major	Wrong_doings	1	You have taken part in violent demonstration	C1_44	0.85	Easy	I1_10	35	Lehman Brothers went bankrupt on 20th September	0.0	Yes	RIGHT	544.5320999997421	LEFT	1017.8913999998258	RIGHT	1855.8139000001572	LEFT	1299.0285999999287	25.0	0.3	Probable_Lie	RIGHT	RIGHT	1	1260.6203000000278	76	2020-03-09 14:31:28.344917
23	Self	S200309	0.6666666666666666	1	2	2	1	0.8	1500.000003	1283.3333359	2216.6666711000003	1650.0000033	Minor	Wrong_doings	19	You have borrowed things and never returned	C1_53	0.0	Hard	I1_4	4	Today is Sunday	0.722222222222222	No	RIGHT	304.00520000011966	RIGHT	336.1915999998928	LEFT	1481.8825000002107	LEFT	1136.5882000000056	25.8	0.8	Probable_Truth	LEFT	LEFT	1	942.4563000002308	77	2020-03-09 14:31:51.768058
61	Self	S200309	0.5	2	1	2	1	0.2	1000.000002	1283.3333359	2500.000005	1783.3333369	Major	Good_deeds	3	You have cursed at others	C2_11	0.0	Hard	I1_60	60	Teddy Roosevelt was the youngest US President	0.111111111111111	Yes	RIGHT	925.5904999999984	LEFT	304.1113999997833	LEFT	1627.7349000001775	LEFT	1342.613099999653	25.6	0.2	Probable_Lie	LEFT	RIGHT	2	945.7498000001578	78	2020-03-09 14:32:16.056635
82	Self	S200309	0.8333333333333334	1	2	1	2	0.5	1433.3333362	1066.6666688	2350.0000047	1783.3333369	Minor	Good_deeds	54	You have illegally stayed in a country	C2_1	0.05	Hard	I1_13	44	Polish is 20th most spoken language in the World	0.888888888888889	Yes	RIGHT	303.93350000031205	RIGHT	298.4658999998828	LEFT	1679.1361999999026	LEFT	1115.3034000003572	26.1	0.5	Probable_Truth	LEFT	LEFT	1	833.3569999999781	79	2020-03-09 14:32:39.496711
105	Computer	S200309	0.5	2	1	1	2	0.4	1066.6666688	1000.000002	1933.3333372	2500.000005	Major	Good_deeds	12	You have failed to keep promises	C1_12	0.05	Easy	I2_36	36	Fibers in oranges can be used to make fabric	0.0	No	LEFT	796.562300000005	LEFT	575.8430000000772	RIGHT	1365.6941999997798	LEFT	846.3944000000083	26.1	0.4	Probable_Lie	RIGHT	RIGHT	1	551.7693606639764	80	2020-03-09 14:33:02.704326
16	Self	S200309	0.6666666666666666	1	2	1	2	0.4	1066.6666688	1500.000003	2350.0000047	1933.3333372	Minor	Good_deeds	46	You have kept your promises	C2_29	0.0	Hard	I1_43	39	It takes 500 days to travel from Earth to Mars	0.944444444444444	No	RIGHT	272.7020000002085	RIGHT	323.6206999999922	LEFT	2372.8916000000027	RIGHT	941.5241000001516	26.5	0.4	Probable_Truth	RIGHT	RIGHT	4	891.341999999895	81	2020-03-09 14:33:26.936704
140	Computer	S200309	0.8333333333333334	2	1	2	1	0.7	1216.6666691	1216.6666691	2216.6666711000003	2066.6666708	Major	Good_deeds	29	You have started a hotline for victims of bully	C1_42	0.0	Hard	I1_41	30	Vegetarians can eat vegetable products	0.0	Yes	LEFT	345.22930000002816	LEFT	233.61030000023675	RIGHT	869.3303999998534	LEFT	1487.716300000102	26.5	0.7	Probable_Lie	RIGHT	LEFT	4	972.5031806648404	82	2020-03-09 14:33:50.127978
63	Self	S200309	0.5	2	1	2	1	0.4	1500.000003	1000.000002	1650.0000033	2216.6666711000003	Minor	Good_deeds	48	You have cheated on a test	C1_46	0.0	Easy	I1_32	26	The first Grammy awards was held in 1959	0.0	No	RIGHT	1015.1729000003796	RIGHT	176.54189999984737	RIGHT	1166.9173000000228	LEFT	776.165900000251	26.9	0.4	Probable_Truth	LEFT	LEFT	2	1021.011400000134	83	2020-03-09 14:34:13.232181
15	Self	S200309	0.5	2	1	2	1	0.5	1150.0000023	1433.3333362	2216.6666711000003	1500.000003	Minor	Good_deeds	24	You have pretended to be busy to avoid a social situation	C2_28	1.0	Hard	I1_2	53	There are 7 days in a week	0.611111111111111	No	RIGHT	239.56259999977192	RIGHT	263.8968000001114	RIGHT	862.9369000000224	LEFT	1799.307299999782	27.4	0.5	Probable_Truth	RIGHT	LEFT	2	685.2802000003066	84	2020-03-09 14:34:35.960672
114	Computer	S200309	0.6666666666666666	1	2	1	2	0.8	1216.6666691	1350.0000027	1650.0000033	1650.0000033	Minor	Wrong_doings	31	You have been sued	C2_59	0.2	Hard	I1_40	28	Singapore is in Africa	0.0	Yes	LEFT	176.2549999998555	RIGHT	318.5757000001104	LEFT	976.346399999784	LEFT	1614.6903999997448	27.4	0.8	Probable_Truth	LEFT	LEFT	1	621.038416659582	85	2020-03-09 14:34:58.104492
3	Self	S200309	0.5	1	2	1	2	0.2	1000.000002	1216.6666691	1650.0000033	1783.3333369	Major	Wrong_doings	13	You have kidnapped someone	C1_13	1.0	Easy	I2_2	15	Penguin can fly with their wings	0.0	Yes	LEFT	240.62709999998333	LEFT	367.651499999738	LEFT	742.6531000000978	LEFT	688.7532999999166	27.4	0.2	Probable_Lie	LEFT	LEFT	4	888.8513000001694	86	2020-03-09 14:35:19.264263
80	Self	S200309	0.8333333333333334	1	2	1	2	0.6	1500.000003	1283.3333359	1500.000003	1650.0000033	Minor	Wrong_doings	44	You have rescued others from a catastrophe	C2_34	0.65	Easy	I1_50	17	February has 30 days	0.0	No	RIGHT	255.45009999996185	RIGHT	356.51240000015605	LEFT	1663.8217999998233	RIGHT	1246.0614999999962	28.0	0.6	Probable_Truth	LEFT	LEFT	1	1115.5573999999433	87	2020-03-09 14:35:42.416020
128	Computer	S200309	0.8333333333333334	1	2	1	2	0.1	1216.6666691	1500.000003	1500.000003	2066.6666708	Major	Wrong_doings	10	You have eaten something in the MRT train	C1_16	0.0	Hard	I2_23	58	North Korea is more developed than South Korea	0.0	No	LEFT	32.5726000000941	LEFT	312.78619999966395	LEFT	1127.779300000384	LEFT	1187.92220000023	28.0	0.1	Probable_Lie	RIGHT	RIGHT	1	619.8466588073019	88	2020-03-09 14:36:04.552071
93	Self	S200309	0.8333333333333334	2	1	2	1	0.8	1350.0000027	1500.000003	1783.3333369	2216.6666711000003	Major	Good_deeds	36	You have engaged in underage smoking	C1_9	0.8	Hard	I1_47	35	Bears have the biggest eyes among mammals	0.166666666666667	No	RIGHT	338.983300000109	RIGHT	159.51489999997648	LEFT	1485.3210999999646	LEFT	879.532399999789	28.8	0.8	Probable_Lie	LEFT	LEFT	2	1186.4034000000174	89	2020-03-09 14:36:28.032171
55	Self	S200309	0.5	1	2	2	1	0.7	1500.000003	1283.3333359	2216.6666711000003	1650.0000033	Major	Wrong_doings	24	You have given directions to a lost tourist	C1_24	0.7	Hard	I2_33	50	Septicemia is a lung infection condition	0.944444444444444	Yes	RIGHT	48.26520000005985	RIGHT	272.7861999997004	LEFT	1406.9211000000903	RIGHT	1176.0598999999274	29.5	0.7	Probable_Truth	RIGHT	LEFT	2	700.73739999998	90	2020-03-09 14:36:50.863069
48	Self	S200309	0.5	1	2	1	2	0.1	1433.3333362	1066.6666688	2066.6666708	2500.000005	Major	Good_deeds	43	You have watched a pirated movie	C1_30	0.95	Easy	I1_54	26	Marijuana is legal in Singapore	0.0	Yes	RIGHT	577.3175999997875	LEFT	253.46040000022185	RIGHT	975.9448999998313	LEFT	805.8457000001908	29.4	0.1	Probable_Lie	LEFT	RIGHT	3	495.9943999997449	91	2020-03-09 14:37:13.615967
94	Self	S200309	0.8333333333333334	2	1	2	1	0.3	1066.6666688	1150.0000023	2500.000005	2066.6666708	Major	Good_deeds	9	You have started a movement to support a cause	C1_1	0.65	Easy	I2_40	44	Most plants emit oxygen in the day	0.0555555555555556	No	RIGHT	204.8984000002747	RIGHT	216.9927999998436	LEFT	1677.9575000000475	RIGHT	1045.4735000002984	29.7	0.3	Probable_Truth	RIGHT	RIGHT	6	583.6657999998351	92	2020-03-09 14:37:36.704302
62	Self	S200309	0.5	2	1	2	1	0.1	1216.6666691	1066.6666688	2216.6666711000003	2066.6666708	Major	Wrong_doings	8	You have started an NGO using your savings	C2_36	0.0	Easy	I2_12	32	The Eiffel Tower is in Paris	0.611111111111111	Yes	LEFT	247.67070000007152	LEFT	544.5466999999553	LEFT	1757.7180000002954	RIGHT	1592.0998000001418	29.7	0.1	Probable_Lie	LEFT	LEFT	4	564.4133000000693	93	2020-03-09 14:38:00.552326
141	Computer	S200309	0.8333333333333334	2	1	2	1	0.6	1433.3333362	1283.3333359	2350.0000047	1783.3333369	Major	Good_deeds	51	You have taken responsibility for your actions	C2_16	0.7	Easy	I1_17	21	Mageirocophobia is a fear of deathly disease	0.0	Yes	LEFT	628.6846000002697	LEFT	416.6528000000653	RIGHT	1683.7142999997925	RIGHT	902.8542999999444	29.7	0.6	Probable_Lie	RIGHT	LEFT	3	650.7306897858714	94	2020-03-09 14:38:24.256637
87	Self	S200309	0.8333333333333334	1	2	2	1	0.1	1066.6666688	1350.0000027	1650.0000033	2500.000005	Minor	Good_deeds	34	You have helped your parents when asked to	C1_20	1.0	Easy	I2_13	10	Malay is one of the races in Singapore	0.944444444444444	No	RIGHT	272.44800000016767	RIGHT	216.2082999998347	RIGHT	2190.497999999934	RIGHT	2158.8327999998	29.8	0.1	Probable_Truth	RIGHT	RIGHT	2	419.9965999996493	95	2020-03-09 14:38:48.656157
22	Self	S200309	0.6666666666666666	1	2	2	1	0.2	1216.6666691	1216.6666691	1500.000003	1500.000003	Major	Wrong_doings	59	You have been donating all your excess food to a food bank	C1_28	1.0	Easy	I2_27	27	Animals are living things	0.0	Yes	RIGHT	247.4141999996391	RIGHT	388.5495999998057	RIGHT	893.403699999908	RIGHT	1183.2933000000594	30.0	0.2	Probable_Truth	LEFT	LEFT	1	663.6259000001701	96	2020-03-09 14:40:02.840280
54	Self	S200309	0.5	1	2	2	1	0.8	1066.6666688	1350.0000027	1933.3333372	2216.6666711000003	Major	Good_deeds	8	You have used a fake name online	C2_8	0.05	Hard	I1_26	33	Obama is the USA president now	0.0	No	RIGHT	375.9678999999778	LEFT	852.3811000000023	LEFT	1376.9542	LEFT	1191.5200999997069	29.2	0.8	Probable_Lie	RIGHT	RIGHT	3	796.0139000001618	97	2020-03-09 14:40:26.576787
108	Computer	S200309	0.5	2	1	2	1	0.1	1350.0000027	1066.6666688	1650.0000033	1783.3333369	Minor	Wrong_doings	28	You have switched off appliances when not in use	C1_7	0.45	Easy	I1_31	31	It is snowing outside now	0.888888888888889	No	LEFT	691.1383000001479	RIGHT	384.17219999973895	LEFT	730.8920000000398	RIGHT	847.1065000003364	29.2	0.1	Probable_Truth	LEFT	LEFT	1	934.4790897526788	98	2020-03-09 14:40:48.584205
7	Self	S200309	0.5	1	2	2	1	0.1	1150.0000023	1500.000003	1933.3333372	1650.0000033	Major	Wrong_doings	20	You have coveted things that belong to others	C2_20	0.05	Hard	I1_24	55	Statute of Liberty is in New York	0.0555555555555556	Yes	RIGHT	151.60500000001775	RIGHT	266.7418999999427	RIGHT	1071.5816000001723	LEFT	822.8917000001275	29.3	0.1	Probable_Truth	LEFT	RIGHT	4	701.4868999999635	99	2020-03-09 14:41:10.408867
71	Self	S200309	0.6666666666666666	1	2	2	1	0.5	1433.3333362	1000.000002	1650.0000033	1783.3333369	Minor	Good_deeds	39	You have sold illegal drugs	C2_37	1.0	Hard	I2_53	53	The sun rises at night	0.0	No	LEFT	369.5271999999932	LEFT	317.0248999999785	LEFT	1683.6536000000706	LEFT	895.4861000001983	29.3	0.5	Probable_Lie	RIGHT	RIGHT	1	713.5960000000523	100	2020-03-09 14:41:32.831120
70	Self	S200309	0.6666666666666666	1	2	2	1	0.4	1216.6666691	1350.0000027	1933.3333372	2216.6666711000003	Major	Wrong_doings	9	You have done something against your values	C1_38	0.0	Easy	I1_8	38	Saturn's rings are between 30 and 300 feet thick	0.0	Yes	RIGHT	303.07730000004085	RIGHT	251.2323000000833	LEFT	2568.166099999871	LEFT	1903.5201000001507	29.7	0.4	Probable_Truth	LEFT	LEFT	2	750.8007999999791	101	2020-03-09 14:41:57.902974
58	Self	S200309	0.5	2	1	1	2	0.8	1150.0000023	1216.6666691	2066.6666708	2350.0000047	Minor	Good_deeds	46	You have given up your seat in the MRT	C1_8	0.95	Hard	I2_26	19	Today is a weekday	0.888888888888889	Yes	RIGHT	679.7793999999158	RIGHT	479.98020000022734	RIGHT	928.748799999994	RIGHT	892.764900000202	30.5	0.8	Probable_Truth	LEFT	LEFT	2	703.2954999999674	102	2020-03-09 14:42:20.944109
124	Computer	S200309	0.6666666666666666	2	1	2	1	0.1	1066.6666688	1350.0000027	2500.000005	2066.6666708	Major	Wrong_doings	60	You have bribed someone to improve a grade	C1_60	0.45	Easy	I2_4	46	There are 10 continents in the World	0.888888888888889	No	LEFT	732.9274000003352	LEFT	272.37239999976737	LEFT	830.9423000000606	LEFT	911.4497000000484	30.5	0.1	Probable_Lie	LEFT	RIGHT	1	791.3747374920091	103	2020-03-09 14:42:44.032794
110	Computer	S200309	0.5	2	1	2	1	0.3	1150.0000023	1500.000003	1500.000003	1933.3333372	Minor	Wrong_doings	35	You have cheated on a national exam	C2_56	0.85	Hard	I2_38	48	It is night time now	0.0	Yes	LEFT	603.3711999998559	RIGHT	319.94029999987106	LEFT	837.5793999998677	LEFT	815.4720000002271	30.5	0.3	Probable_Truth	LEFT	LEFT	2	571.240672345506	104	2020-03-09 14:43:05.831021
126	Computer	S200309	0.6666666666666666	2	1	2	1	0.7	1350.0000027	1283.3333359	1650.0000033	2500.000005	Minor	Good_deeds	2	You have sorted your trash into recycling bin	C1_14	0.0	Easy	I1_5	5	The Moon orbits around the Earth	0.888888888888889	No	LEFT	689.834200000405	LEFT	728.1615000001693	RIGHT	1318.1105999997271	RIGHT	830.4690999998456	30.5	0.7	Probable_Truth	LEFT	RIGHT	3	754.3796422010669	105	2020-03-09 14:43:29.504390
46	Self	S200309	0.8333333333333334	2	1	2	1	0.4	1216.6666691	1216.6666691	2216.6666711000003	2066.6666708	Minor	Wrong_doings	42	You have cursed at your loved ones	C2_58	0.2	Hard	I2_21	41	It sometimes snows in Singapore	0.0555555555555556	Yes	RIGHT	288.9795999999478	RIGHT	248.61550000014176	LEFT	726.7867999998998	LEFT	694.7430999998687	30.9	0.4	Probable_Truth	LEFT	LEFT	1	577.7279000003546	106	2020-03-09 14:43:51.336880
119	Computer	S200309	0.6666666666666666	1	2	2	1	0.7	1000.000002	1500.000003	1783.3333369	1933.3333372	Minor	Wrong_doings	19	You have borrowed things and never returned	C1_53	0.0	Hard	I1_4	4	Today is Sunday	0.722222222222222	No	LEFT	288.57620000007955	LEFT	650.0144999999975	LEFT	1100.3654999999526	LEFT	943.0716000001668	30.9	0.7	Probable_Lie	RIGHT	LEFT	3	622.6760949481805	107	2020-03-09 14:44:13.727922
109	Computer	S200309	0.5	2	1	2	1	0.8	1000.000002	1216.6666691	2216.6666711000003	1650.0000033	Major	Wrong_doings	56	You have bribed a police officer	C2_24	0.95	Easy	I1_3	2	Africa is the continent with the least rainfall	0.611111111111111	Yes	RIGHT	304.04170000019803	RIGHT	465.534899999966	RIGHT	1997.7054999999384	LEFT	871.3909999996758	31.7	0.8	Probable_Truth	LEFT	RIGHT	5	566.3400842190592	108	2020-03-09 14:44:36.592896
133	Computer	S200309	0.8333333333333334	1	2	2	1	0.2	1000.000002	1216.6666691	2216.6666711000003	2500.000005	Major	Wrong_doings	57	You have a non-judgmental attitude towards everyone	C1_57	0.0	Easy	I1_39	39	Brazil is in South America	0.0	No	LEFT	151.45810000012716	RIGHT	412.58560000005673	RIGHT	1230.1235999998426	RIGHT	1151.2433000002602	31.7	0.2	Probable_Truth	RIGHT	RIGHT	2	671.4501905637354	109	2020-03-09 14:44:59.713689
24	Self	S200309	0.6666666666666666	2	1	1	2	0.7	1350.0000027	1216.6666691	2066.6666708	1650.0000033	Major	Wrong_doings	52	You have signed up as a bone marrow donor	C1_17	0.7	Hard	I2_60	27	There are 6000 spoken languages in the World	0.0	Yes	RIGHT	245.93000000004395	RIGHT	240.0988999997935	LEFT	1591.6308999999274	RIGHT	1246.577100000195	32.4	0.7	Probable_Truth	LEFT	LEFT	2	740.4083000001265	110	2020-03-09 14:45:22.640692
113	Computer	S200309	0.6666666666666666	1	2	1	2	0.2	1066.6666688	1216.6666691	2500.000005	1783.3333369	Major	Good_deeds	28	You have donated a pay cheque to charity	C1_5	0.8	Easy	I2_51	40	A caterpillar has more muscle than a human	0.0	Yes	LEFT	160.6157000001076	RIGHT	240.58800000011612	LEFT	927.2169000000758	RIGHT	1106.1902999999802	32.4	0.2	Probable_Truth	RIGHT	LEFT	1	972.4781892794276	111	2020-03-09 14:45:45.184694
74	Self	S200309	0.6666666666666666	2	1	1	2	0.6	1150.0000023	1350.0000027	2500.000005	1650.0000033	Minor	Wrong_doings	50	You have thrown your trash into the bin	C1_22	0.15	Hard	I2_6	52	Milwaukee Art Museum is located in California	0.666666666666667	No	RIGHT	820.9670000001097	RIGHT	246.98380000018005	RIGHT	1991.784199999984	RIGHT	886.7596000000049	33.0	0.6	Probable_Truth	LEFT	LEFT	2	441.0020999998778	112	2020-03-09 14:46:08.799622
14	Self	S200309	0.5	2	1	2	1	0.4	1433.3333362	1350.0000027	2350.0000047	2216.6666711000003	Minor	Wrong_doings	35	You have cheated on a national exam	C2_56	0.85	Hard	I2_38	48	It is night time now	0.0	Yes	LEFT	529.8339000000851	LEFT	335.5162000002565	LEFT	832.2696999998698	LEFT	680.5938000002243	33.0	0.4	Probable_Lie	LEFT	LEFT	5	693.7256000001071	113	2020-03-09 14:46:31.800288
117	Computer	S200309	0.6666666666666666	1	2	2	1	0.5	1433.3333362	1433.3333362	2350.0000047	2500.000005	Major	Good_deeds	29	You have returned your trays in food courts	C2_19	0.85	Easy	I2_39	43	The Earth turns the closest to the sun in May	0.722222222222222	Yes	LEFT	208.92350000031	LEFT	222.1730999999636	RIGHT	2122.7388000002065	RIGHT	1287.9641999998055	33.0	0.5	Probable_Lie	LEFT	RIGHT	1	907.2515428906028	114	2020-03-09 14:46:56.832782
84	Self	S200309	0.8333333333333334	1	2	2	1	0.7	1216.6666691	1433.3333362	2066.6666708	2216.6666711000003	Major	Wrong_doings	15	You have stolen something	C1_15	0.0	Hard	I2_35	50	Nomophobia is the fear of being without a phone or computer	0.944444444444444	Yes	RIGHT	791.6212999998606	RIGHT	500.3130999998575	RIGHT	1631.2207999999373	LEFT	1400.025199999618	33.7	0.7	Probable_Truth	LEFT	LEFT	1	744.8785000001408	115	2020-03-09 14:47:21.415364
115	Computer	S200309	0.6666666666666666	1	2	1	2	0.3	1500.000003	1000.000002	2066.6666708	2216.6666711000003	Minor	Good_deeds	53	You have taken part in burglary	C2_46	0.55	Hard	I1_1	51	Red is a color	0.777777777777778	No	LEFT	183.44949999982416	RIGHT	461.1914000001889	RIGHT	767.7974999996877	LEFT	1273.1667000002744	33.7	0.3	Probable_Truth	RIGHT	RIGHT	3	716.8559955267532	116	2020-03-09 14:47:44.175982
19	Self	S200309	0.6666666666666666	1	2	1	2	0.3	1150.0000023	1150.0000023	1933.3333372	2216.6666711000003	Minor	Good_deeds	53	You have taken part in burglary	C2_46	0.55	Hard	I1_1	51	Red is a color	0.777777777777778	No	RIGHT	144.08800000001065	RIGHT	171.42770000009477	RIGHT	551.6804000003503	LEFT	674.64979999977	34.0	0.3	Probable_Lie	LEFT	LEFT	4	465.4378000000179	117	2020-03-09 14:48:05.207327
10	Self	S200309	0.5	2	1	1	2	0.3	1283.3333359	1150.0000023	2066.6666708	1650.0000033	Major	Good_deeds	7	You have been physically hurt to protect others	C1_33	0.0	Easy	I1_53	49	The Franco-Prussian War occurred in the 19th century	0.0	No	LEFT	236.43899999979112	LEFT	304.0482000001248	RIGHT	1207.5025999997706	RIGHT	1094.161399999848	34.0	0.3	Probable_Lie	LEFT	LEFT	5	837.1192999998129	118	2020-03-09 14:48:27.615179
102	Computer	S200309	0.5	1	2	2	1	0.6	1433.3333362	1500.000003	2216.6666711000003	2216.6666711000003	Minor	Good_deeds	33	You have said thank you when you have received help	C1_49	0.75	Easy	I1_42	46	Beef comes from cows	1.0	No	LEFT	200.3842000003715	RIGHT	302.2267000001193	RIGHT	760.1177999999891	RIGHT	647.5077999998575	34.0	0.6	Probable_Truth	LEFT	RIGHT	4	742.1661326292576	119	2020-03-09 14:48:50.215817
21	Self	S200309	0.6666666666666666	1	2	2	1	0.5	1433.3333362	1000.000002	1650.0000033	2066.6666708	Major	Good_deeds	29	You have returned your trays in food courts	C2_19	0.85	Easy	I2_39	43	The Earth turns the closest to the sun in May	0.722222222222222	Yes	RIGHT	352.68089999999575	RIGHT	268.80819999996675	RIGHT	910.0952000003416	RIGHT	710.8164000001125	34.5	0.5	Probable_Lie	LEFT	LEFT	5	513.9082000000599	120	2020-03-09 14:49:11.703381
96	Computer	S200309	0.5	1	2	1	2	0.3	1150.0000023	1150.0000023	1933.3333372	2350.0000047	Major	Wrong_doings	49	You have extorted money from anyone	C1_19	0.7	Easy	I1_15	58	Cernan was the second last man to walk on the Moon	0.0	No	LEFT	191.8163000000277	LEFT	339.5261999999093	LEFT	1886.5240999998605	LEFT	842.444400000204	34.5	0.3	Probable_Lie	RIGHT	RIGHT	2	875.8887156174799	121	2020-03-09 14:49:34.991068
38	Self	S200309	0.8333333333333334	1	2	2	1	0.6	1433.3333362	1216.6666691	2350.0000047	1933.3333372	Minor	Good_deeds	16	You have participated in a scamming business	C2_25	0.85	Easy	I1_45	28	Christmas Day is in March	1.0	No	LEFT	376.4725000000908	LEFT	275.92749999985244	LEFT	1013.6451000003036	LEFT	1048.420200000237	34.5	0.6	Probable_Lie	RIGHT	RIGHT	1	700.559400000202	122	2020-03-09 14:49:57.911988
52	Self	S200309	0.5	1	2	2	1	0.2	1283.3333359	1150.0000023	1650.0000033	2066.6666708	Minor	Wrong_doings	35	You have taken months off to volunteer	C2_35	1.0	Easy	I2_59	52	The Amazon forest covers an area of 1 billion acres	0.0	Yes	RIGHT	463.41590000020005	RIGHT	199.56790000014732	RIGHT	1500.4770999998982	RIGHT	1064.264699999967	34.7	0.2	Probable_Truth	LEFT	LEFT	3	802.7228000000832	123	2020-03-09 14:50:20.672434
32	Self	S200309	0.8333333333333334	1	2	1	2	0.2	1066.6666688	1350.0000027	1933.3333372	2216.6666711000003	Major	Wrong_doings	10	You have eaten something in the MRT train	C1_16	0.0	Hard	I2_23	58	North Korea is more developed than South Korea	0.0	No	RIGHT	295.8920999999464	RIGHT	242.79650000016773	LEFT	744.0151999999216	LEFT	818.132599999899	34.900000000000006	0.2	Probable_Truth	RIGHT	RIGHT	2	516.1390999996911	124	2020-03-09 14:50:42.430956
116	Computer	S200309	0.6666666666666666	1	2	2	1	0.6	1350.0000027	1066.6666688	2216.6666711000003	1500.000003	Major	Wrong_doings	5	You have drunk alcohol when you were underage	C1_31	0.0	Easy	I2_28	1	Algeria is Africa's second largest country	0.0	No	RIGHT	479.0227999997114	RIGHT	226.78170000017417	RIGHT	1742.690300000049	LEFT	808.2169999997859	35.50000000000001	0.6	Probable_Truth	RIGHT	RIGHT	6	717.218130460057	125	2020-03-09 14:51:05.111001
13	Self	S200309	0.5	2	1	2	1	0.8	1500.000003	1066.6666688	1933.3333372	2066.6666708	Major	Wrong_doings	56	You have bribed a police officer	C2_24	0.95	Easy	I1_3	2	Africa is the continent with the least rainfall	0.611111111111111	Yes	LEFT	477.3409999997966	LEFT	256.74309999976686	RIGHT	1367.283900000075	LEFT	671.4943000001767	35.50000000000001	0.8	Probable_Lie	RIGHT	LEFT	5	668.5069999998632	126	2020-03-09 14:51:27.695705
97	Computer	S200309	0.5	1	2	1	2	0.4	1216.6666691	1433.3333362	1650.0000033	1783.3333369	Minor	Wrong_doings	19	You have lost everything just to help others	C2_33	1.0	Easy	I2_3	42	Singapore ranked 8th in World's smallest countries	1.0	Yes	LEFT	47.61790000020483	LEFT	324.5724999997037	RIGHT	2413.750500000333	RIGHT	2290.3145000000222	35.50000000000001	0.4	Probable_Lie	RIGHT	LEFT	6	881.4975723143476	127	2020-03-09 14:51:52.311930
91	Self	S200309	0.8333333333333334	2	1	1	2	0.6	1283.3333359	1216.6666691	2350.0000047	1500.000003	Minor	Wrong_doings	1	You have attended all lectures as a student	C2_38	0.0	Easy	I1_23	16	Hot chocolate was created by the Mayan culture	0.666666666666667	Yes	LEFT	227.6357000000644	LEFT	351.6996999996991	RIGHT	1471.8242000003556	RIGHT	1053.324900000007	35.50000000000001	0.6	Probable_Lie	RIGHT	RIGHT	1	531.1485000001994	128	2020-03-09 14:52:14.879687
107	Computer	S200309	0.5	2	1	1	2	0.2	1216.6666691	1433.3333362	2350.0000047	2216.6666711000003	Major	Good_deeds	53	You have helped a friend in need	C1_35	0.0	Hard	I2_49	38	Slavery was abolished in Cuba in 1886	0.0	Yes	RIGHT	250.1259000000573	RIGHT	626.1095999998361	RIGHT	1303.2686000001377	RIGHT	974.5353999996952	35.70000000000001	0.2	Probable_Truth	RIGHT	LEFT	2	782.5829369136312	129	2020-03-09 14:52:38.607271
0	Self	S200309	0.5	1	2	1	2	0.6	1433.3333362	1066.6666688	1783.3333369	2500.000005	Major	Wrong_doings	49	You have extorted money from anyone	C1_19	0.7	Easy	I1_15	58	Cernan was the second last man to walk on the Moon	0.0	No	RIGHT	240.8428000003369	RIGHT	266.7489000000387	LEFT	839.1498999999385	LEFT	711.4797999997791	36.30000000000001	0.6	Probable_Truth	RIGHT	RIGHT	6	746.7083000001367	130	2020-03-09 14:53:00.767355
129	Computer	S200309	0.8333333333333334	1	2	1	2	0.4	1500.000003	1283.3333359	1933.3333372	1933.3333372	Minor	Wrong_doings	25	You have engaged in money laundering	C2_40	1.0	Easy	I2_41	29	Summer is hotter than winter	1.0	Yes	LEFT	87.09869999984221	LEFT	224.5333999999275	RIGHT	935.8517999999094	LEFT	692.8266999998414	36.30000000000001	0.4	Probable_Lie	LEFT	RIGHT	1	710.4317406193325	131	2020-03-09 14:53:22.647606
68	Self	S200309	0.6666666666666666	1	2	2	1	0.7	1283.3333359	1066.6666688	2350.0000047	1650.0000033	Major	Wrong_doings	37	You have held the door open for a stranger	C2_39	0.0	Hard	I1_9	9	There are 30 hours in a day	0.722222222222222	Yes	RIGHT	232.23789999974545	RIGHT	235.09850000027652	LEFT	1136.5034000000378	RIGHT	789.973800000098	37.000000000000014	0.7	Probable_Truth	LEFT	LEFT	2	469.8626999997941	132	2020-03-09 14:53:44.439637
1	Self	S200309	0.5	1	2	1	2	0.8	1216.6666691	1000.000002	2066.6666708	2066.6666708	Minor	Wrong_doings	19	You have lost everything just to help others	C2_33	1.0	Easy	I2_3	42	Singapore ranked 8th in World's smallest countries	1.0	Yes	RIGHT	592.48290000005	RIGHT	549.6072999999342	RIGHT	799.5166000000609	RIGHT	1119.4432000002053	37.80000000000001	0.8	Probable_Lie	LEFT	LEFT	6	992.6585000002888	133	2020-03-09 14:54:07.423729
29	Self	S200309	0.6666666666666666	2	1	2	1	0.3	1216.6666691	1066.6666688	1650.0000033	2066.6666708	Major	Wrong_doings	17	You have downloaded pirated movies	C1_34	0.85	Hard	I1_27	11	There are 9 rings in the Olympic flag	0.888888888888889	Yes	RIGHT	286.99639999967985	RIGHT	255.9332999999242	LEFT	1133.7051000000429	LEFT	775.7916999998997	38.10000000000001	0.3	Probable_Truth	LEFT	LEFT	1	701.6548999999941	134	2020-03-09 14:54:29.158987
139	Computer	S200309	0.8333333333333334	2	1	1	2	0.3	1350.0000027	1350.0000027	2066.6666708	1650.0000033	Minor	Wrong_doings	58	You have provided shelter for stray animals	C1_51	1.0	Easy	I2_45	45	The human's inner ear is larger than a pencil eraser	0.666666666666667	No	LEFT	447.471399999813	LEFT	664.4529000000148	LEFT	846.6435999998794	RIGHT	1356.6289999998844	38.10000000000001	0.3	Probable_Lie	LEFT	RIGHT	1	907.5808883664712	135	2020-03-09 14:54:52.367019
111	Computer	S200309	0.5	2	1	2	1	0.6	1500.000003	1150.0000023	2066.6666708	2066.6666708	Minor	Good_deeds	24	You have pretended to be busy to avoid a social situation	C2_28	1.0	Hard	I1_2	53	There are 7 days in a week	0.611111111111111	No	RIGHT	721.4512999998988	RIGHT	463.973100000203	RIGHT	678.6223999997674	LEFT	1151.487300000099	38.70000000000001	0.6	Probable_Lie	LEFT	RIGHT	3	927.7291595062956	136	2020-03-09 14:55:15.671123
18	Self	S200309	0.6666666666666666	1	2	1	2	0.6	1350.0000027	1066.6666688	2066.6666708	1783.3333369	Minor	Wrong_doings	31	You have been sued	C2_59	0.2	Hard	I1_40	28	Singapore is in Africa	0.0	Yes	RIGHT	303.8744999998926	RIGHT	317.5378000000819	LEFT	832.0215999997345	LEFT	824.8922999996466	39.30000000000001	0.6	Probable_Lie	LEFT	LEFT	5	880.9879999998884	137	2020-03-09 14:55:37.679690
89	Self	S200309	0.8333333333333334	2	1	1	2	0.5	1000.000002	1433.3333362	1500.000003	2350.0000047	Minor	Good_deeds	27	You have complimented others for good work	C2_3	0.05	Hard	I1_21	18	Singapore is a country	0.764705882352941	No	RIGHT	254.8984999998538	RIGHT	439.58829999974114	RIGHT	551.6038999999182	RIGHT	1306.7725999999311	39.80000000000001	0.5	Probable_Truth	RIGHT	RIGHT	4	483.3217999998851	138	2020-03-09 14:55:59.575218
31	Self	S200309	0.6666666666666666	2	1	2	1	0.1	1000.000002	1150.0000023	2350.0000047	2500.000005	Major	Good_deeds	34	You have followed instructions	C2_52	0.55	Easy	I2_11	4	Carnivore refers to meat-eater	0.0555555555555556	Yes	RIGHT	266.7079000002559	RIGHT	207.8313000001799	RIGHT	747.0766999999796	RIGHT	584.2886000000362	39.90000000000001	0.1	Probable_Truth	LEFT	LEFT	2	479.6398999997109	139	2020-03-09 14:56:21.440454
120	Computer	S200309	0.6666666666666666	2	1	1	2	0.8	1000.000002	1216.6666691	1933.3333372	1783.3333369	Major	Wrong_doings	52	You have signed up as a bone marrow donor	C1_17	0.7	Hard	I2_60	27	There are 6000 spoken languages in the World	0.0	Yes	RIGHT	234.5012000000679	RIGHT	263.30929999994623	LEFT	680.1451999999699	RIGHT	779.6192999999221	40.70000000000001	0.8	Probable_Truth	RIGHT	RIGHT	3	778.174123256345	140	2020-03-09 14:56:42.687076
112	Computer	S200309	0.6666666666666666	1	2	1	2	0.1	1150.0000023	1283.3333359	1500.000003	2066.6666708	Minor	Good_deeds	46	You have kept your promises	C2_29	0.0	Hard	I1_43	39	It takes 500 days to travel from Earth to Mars	0.944444444444444	No	RIGHT	223.0920000001788	RIGHT	217.01930000017452	LEFT	968.332399999781	RIGHT	751.9115999998576	40.80000000000001	0.1	Probable_Truth	RIGHT	RIGHT	6	860.5819183457262	141	2020-03-09 14:57:04.287822
42	Self	S200309	0.8333333333333334	2	1	1	2	0.3	1350.0000027	1066.6666688	1650.0000033	1500.000003	Minor	Good_deeds	16	You have organized a violent protest	C1_29	0.0	Hard	I1_25	57	Singapore is a poor country	0.944444444444444	No	RIGHT	56.04589999984455	RIGHT	248.7207999997736	LEFT	766.7662000003475	LEFT	779.5205999996142	41.10000000000001	0.3	Probable_Truth	LEFT	LEFT	1	842.374800000016	142	2020-03-09 14:57:25.127472
106	Computer	S200309	0.5	2	1	1	2	0.5	1433.3333362	1350.0000027	1783.3333369	1500.000003	Major	Good_deeds	7	You have been physically hurt to protect others	C1_33	0.0	Easy	I1_53	49	The Franco-Prussian War occurred in the 19th century	0.0	No	RIGHT	294.2909999997028	RIGHT	504.57219999998415	RIGHT	1135.1917000001777	RIGHT	1510.4009000001497	41.60000000000001	0.5	Probable_Lie	LEFT	LEFT	4	534.9019234418116	143	2020-03-09 14:57:47.743097
