"Participant"	"Task"	"Stimulus_Side"	"Response"	"RT"	"ITI"	"Previous_Response"	"Previous_RT"	"Stop_Signal"	"Stop_Signal_RT"	"Conflict"	"Cue_Response"	"Cue_Response_RT"	"Trial_Onset"	"Trial_End"	"Trial_Order"	"Duration"
"S201118"	"Conflict_Resolution"	"RIGHT"	"RIGHT"	433.298000000036	1466.6666696	n/a	n/a	n/a	n/a	"False"	n/a	n/a	"2020-11-18 13:51:43.996784"	"2020-11-18 13:51:44.639021"	1	6.55550518333333
"S201118"	"Conflict_Resolution"	"RIGHT"	"RIGHT"	395.855200000028	1216.6666691	n/a	n/a	n/a	n/a	"False"	n/a	n/a	"2020-11-18 13:51:45.875061"	"2020-11-18 13:51:46.477452"	2	6.55550518333333
"S201118"	"Conflict_Resolution"	"RIGHT"	"RIGHT"	828.828899999962	633.3333346	n/a	n/a	n/a	n/a	"True"	n/a	n/a	"2020-11-18 13:51:47.129883"	"2020-11-18 13:51:48.166041"	3	6.55550518333333
"S201118"	"Conflict_Resolution"	"RIGHT"	"RIGHT"	396.504100000016	1416.6666695	n/a	n/a	n/a	n/a	"False"	n/a	n/a	"2020-11-18 13:51:49.601891"	"2020-11-18 13:51:50.208828"	4	6.55550518333333
"S201118"	"Conflict_Resolution"	"RIGHT"	"RIGHT"	418.429100000026	600.0000012	n/a	n/a	n/a	n/a	"False"	n/a	n/a	"2020-11-18 13:51:50.828436"	"2020-11-18 13:51:51.453659"	5	6.55550518333333
"S201118"	"Conflict_Resolution"	"LEFT"	"LEFT"	496.975200000065	516.6666677	n/a	n/a	n/a	n/a	"True"	n/a	n/a	"2020-11-18 13:51:51.989977"	"2020-11-18 13:51:52.694290"	6	6.55550518333333
"S201118"	"Conflict_Resolution"	"LEFT"	"LEFT"	347.725099999934	1216.6666691	n/a	n/a	n/a	n/a	"False"	n/a	n/a	"2020-11-18 13:51:53.930650"	"2020-11-18 13:51:54.486202"	7	6.55550518333333
"S201118"	"Conflict_Resolution"	"LEFT"	"LEFT"	365.679399999976	1200.0000024	n/a	n/a	n/a	n/a	"False"	n/a	n/a	"2020-11-18 13:51:55.705309"	"2020-11-18 13:51:56.278862"	8	6.55550518333333
"S201118"	"Conflict_Resolution"	"LEFT"	"LEFT"	419.096299999978	1016.6666687	n/a	n/a	n/a	n/a	"False"	n/a	n/a	"2020-11-18 13:51:57.316041"	"2020-11-18 13:51:57.942286"	9	6.55550518333333
"S201118"	"Conflict_Resolution"	"LEFT"	"LEFT"	598.578100000054	766.6666682	n/a	n/a	n/a	n/a	"True"	n/a	n/a	"2020-11-18 13:51:58.728193"	"2020-11-18 13:51:59.534362"	10	6.55550518333333
"S201118"	"Conflict_Resolution"	"RIGHT"	"RIGHT"	456.631300000026	750.0000015	n/a	n/a	n/a	n/a	"False"	n/a	n/a	"2020-11-18 13:52:00.301667"	"2020-11-18 13:52:00.965582"	11	6.55550518333333
"S201118"	"Conflict_Resolution"	"RIGHT"	"RIGHT"	573.059999999941	850.0000017	n/a	n/a	n/a	n/a	"True"	n/a	n/a	"2020-11-18 13:52:01.833149"	"2020-11-18 13:52:02.615125"	12	6.55550518333333
"S201118"	"Conflict_Resolution"	"RIGHT"	"RIGHT"	693.253400000003	1433.3333362	n/a	n/a	n/a	n/a	"True"	n/a	n/a	"2020-11-18 13:52:04.065502"	"2020-11-18 13:52:04.966753"	13	6.55550518333333
"S201118"	"Conflict_Resolution"	"LEFT"	"LEFT"	568.185099999937	716.6666681	n/a	n/a	n/a	n/a	"True"	n/a	n/a	"2020-11-18 13:52:05.702634"	"2020-11-18 13:52:06.477550"	14	6.55550518333333
"S201118"	"Conflict_Resolution"	"LEFT"	"LEFT"	398.203699999954	616.6666679	n/a	n/a	n/a	n/a	"False"	n/a	n/a	"2020-11-18 13:52:07.111857"	"2020-11-18 13:52:07.718584"	15	6.55550518333333
"S201118"	"Conflict_Resolution"	"LEFT"	"LEFT"	441.76369999991	683.3333347	n/a	n/a	n/a	n/a	"False"	n/a	n/a	"2020-11-18 13:52:08.421069"	"2020-11-18 13:52:09.070526"	16	6.55550518333333
"S201118"	"Conflict_Resolution"	"RIGHT"	"RIGHT"	524.451900000031	1000.000002	n/a	n/a	n/a	n/a	"True"	n/a	n/a	"2020-11-18 13:52:10.089637"	"2020-11-18 13:52:10.822711"	17	6.55550518333333
"S201118"	"Conflict_Resolution"	"LEFT"	"LEFT"	430.419400000005	766.6666682	n/a	n/a	n/a	n/a	"False"	n/a	n/a	"2020-11-18 13:52:11.607693"	"2020-11-18 13:52:12.245536"	18	6.55550518333333
"S201118"	"Conflict_Resolution"	"RIGHT"	"RIGHT"	408.917900000006	1316.6666693	n/a	n/a	n/a	n/a	"False"	n/a	n/a	"2020-11-18 13:52:13.581484"	"2020-11-18 13:52:14.198828"	19	6.55550518333333
"S201118"	"Conflict_Resolution"	"LEFT"	"LEFT"	524.687699999959	1400.0000028	n/a	n/a	n/a	n/a	"True"	n/a	n/a	"2020-11-18 13:52:15.618149"	"2020-11-18 13:52:16.350898"	20	6.55550518333333
"S201118"	"Conflict_Resolution"	"LEFT"	"LEFT"	507.529699999964	1466.6666696	n/a	n/a	n/a	n/a	"True"	n/a	n/a	"2020-11-18 13:52:17.835344"	"2020-11-18 13:52:18.550610"	21	6.55550518333333
"S201118"	"Conflict_Resolution"	"RIGHT"	"RIGHT"	478.1531000001	933.3333352	n/a	n/a	n/a	n/a	"False"	n/a	n/a	"2020-11-18 13:52:19.504118"	"2020-11-18 13:52:20.190957"	22	6.55550518333333
"S201118"	"Conflict_Resolution"	"LEFT"	"LEFT"	523.210199999994	633.3333346	n/a	n/a	n/a	n/a	"True"	n/a	n/a	"2020-11-18 13:52:20.843618"	"2020-11-18 13:52:21.574341"	23	6.55550518333333
"S201118"	"Conflict_Resolution"	"LEFT"	"LEFT"	410.856099999933	850.0000017	n/a	n/a	n/a	n/a	"False"	n/a	n/a	"2020-11-18 13:52:22.443212"	"2020-11-18 13:52:23.062558"	24	6.55550518333333
"S201118"	"Conflict_Resolution"	"LEFT"	"LEFT"	357.527899999923	1416.6666695	n/a	n/a	n/a	n/a	"False"	n/a	n/a	"2020-11-18 13:52:24.496788"	"2020-11-18 13:52:25.062688"	25	6.55550518333333
"S201118"	"Conflict_Resolution"	"LEFT"	"LEFT"	402.350399999932	1266.6666692	n/a	n/a	n/a	n/a	"False"	n/a	n/a	"2020-11-18 13:52:26.348356"	"2020-11-18 13:52:26.959047"	26	6.55550518333333
"S201118"	"Conflict_Resolution"	"LEFT"	"LEFT"	379.904499999952	966.6666686	n/a	n/a	n/a	n/a	"False"	n/a	n/a	"2020-11-18 13:52:27.946556"	"2020-11-18 13:52:28.534189"	27	6.55550518333333
"S201118"	"Conflict_Resolution"	"RIGHT"	"RIGHT"	506.487700000093	1266.6666692	n/a	n/a	n/a	n/a	"False"	n/a	n/a	"2020-11-18 13:52:29.820481"	"2020-11-18 13:52:30.533599"	28	6.55550518333333
"S201118"	"Conflict_Resolution"	"RIGHT"	"RIGHT"	639.810499999953	950.0000019	n/a	n/a	n/a	n/a	"True"	n/a	n/a	"2020-11-18 13:52:31.502385"	"2020-11-18 13:52:32.350731"	29	6.55550518333333
"S201118"	"Conflict_Resolution"	"LEFT"	"LEFT"	508.810599999947	1400.0000028	n/a	n/a	n/a	n/a	"False"	n/a	n/a	"2020-11-18 13:52:33.770004"	"2020-11-18 13:52:34.486305"	30	6.55550518333333
"S201118"	"Conflict_Resolution"	"RIGHT"	"RIGHT"	568.460099999925	1483.3333363	n/a	n/a	n/a	n/a	"True"	n/a	n/a	"2020-11-18 13:52:35.989922"	"2020-11-18 13:52:36.767048"	31	6.55550518333333
"S201118"	"Conflict_Resolution"	"RIGHT"	"RIGHT"	442.939300000035	983.3333353	n/a	n/a	n/a	n/a	"False"	n/a	n/a	"2020-11-18 13:52:37.771407"	"2020-11-18 13:52:38.424615"	32	6.55550518333333
"S201118"	"Conflict_Resolution"	"LEFT"	"LEFT"	550.3827	716.6666681	n/a	n/a	n/a	n/a	"False"	n/a	n/a	"2020-11-18 13:52:39.159856"	"2020-11-18 13:52:39.918183"	33	6.55550518333333
"S201118"	"Conflict_Resolution"	"RIGHT"	"RIGHT"	369.221400000015	900.0000018	n/a	n/a	n/a	n/a	"False"	n/a	n/a	"2020-11-18 13:52:40.837418"	"2020-11-18 13:52:41.413594"	34	6.55550518333333
"S201118"	"Conflict_Resolution"	"RIGHT"	"RIGHT"	444.815199999994	1433.3333362	n/a	n/a	n/a	n/a	"False"	n/a	n/a	"2020-11-18 13:52:42.865382"	"2020-11-18 13:52:43.518876"	35	6.55550518333333
"S201118"	"Conflict_Resolution"	"LEFT"	"LEFT"	843.927400000098	616.6666679	n/a	n/a	n/a	n/a	"True"	n/a	n/a	"2020-11-18 13:52:44.154244"	"2020-11-18 13:52:45.205543"	36	6.55550518333333
"S201118"	"Conflict_Resolution"	"RIGHT"	"RIGHT"	601.379100000031	933.3333352	n/a	n/a	n/a	n/a	"True"	n/a	n/a	"2020-11-18 13:52:46.156525"	"2020-11-18 13:52:46.966179"	37	6.55550518333333
"S201118"	"Conflict_Resolution"	"RIGHT"	"RIGHT"	464.025600000014	533.3333344	n/a	n/a	n/a	n/a	"False"	n/a	n/a	"2020-11-18 13:52:47.518701"	"2020-11-18 13:52:48.191022"	38	6.55550518333333
"S201118"	"Conflict_Resolution"	"RIGHT"	"RIGHT"	398.065699999961	550.0000011	n/a	n/a	n/a	n/a	"False"	n/a	n/a	"2020-11-18 13:52:48.760609"	"2020-11-18 13:52:49.365162"	39	6.55550518333333
"S201118"	"Conflict_Resolution"	"LEFT"	"LEFT"	444.082099999946	1450.0000029	n/a	n/a	n/a	n/a	"False"	n/a	n/a	"2020-11-18 13:52:50.834910"	"2020-11-18 13:52:51.485681"	40	6.55550518333333
"S201118"	"Conflict_Resolution"	"RIGHT"	"RIGHT"	517.771799999991	1183.3333357	n/a	n/a	n/a	n/a	"True"	n/a	n/a	"2020-11-18 13:52:52.688386"	"2020-11-18 13:52:53.414157"	41	6.55550518333333
"S201118"	"Conflict_Resolution"	"RIGHT"	"RIGHT"	472.378100000014	950.0000019	n/a	n/a	n/a	n/a	"False"	n/a	n/a	"2020-11-18 13:52:54.382277"	"2020-11-18 13:52:55.062702"	42	6.55550518333333
"S201118"	"Conflict_Resolution"	"RIGHT"	"RIGHT"	411.042000000066	1083.3333355	n/a	n/a	n/a	n/a	"False"	n/a	n/a	"2020-11-18 13:52:56.163226"	"2020-11-18 13:52:56.782159"	43	6.55550518333333
"S201118"	"Conflict_Resolution"	"RIGHT"	"RIGHT"	572.331599999984	1033.3333354	n/a	n/a	n/a	n/a	"True"	n/a	n/a	"2020-11-18 13:52:57.833726"	"2020-11-18 13:52:58.614343"	44	6.55550518333333
"S201118"	"Conflict_Resolution"	"RIGHT"	"RIGHT"	480.308799999989	1316.6666693	n/a	n/a	n/a	n/a	"True"	n/a	n/a	"2020-11-18 13:52:59.950588"	"2020-11-18 13:53:00.638777"	45	6.55550518333333
"S201118"	"Conflict_Resolution"	"LEFT"	"LEFT"	780.202200000076	1000.000002	n/a	n/a	n/a	n/a	"False"	n/a	n/a	"2020-11-18 13:53:01.658624"	"2020-11-18 13:53:02.646188"	46	6.55550518333333
"S201118"	"Conflict_Resolution"	"RIGHT"	"RIGHT"	649.539499999946	1083.3333355	n/a	n/a	n/a	n/a	"True"	n/a	n/a	"2020-11-18 13:53:03.749397"	"2020-11-18 13:53:04.606929"	47	6.55550518333333
"S201118"	"Conflict_Resolution"	"RIGHT"	"RIGHT"	549.756499999944	1133.3333356	n/a	n/a	n/a	n/a	"True"	n/a	n/a	"2020-11-18 13:53:05.760810"	"2020-11-18 13:53:06.518751"	48	6.55550518333333
"S201118"	"Conflict_Resolution"	"RIGHT"	"RIGHT"	618.490699999938	700.0000014	n/a	n/a	n/a	n/a	"True"	n/a	n/a	"2020-11-18 13:53:07.236100"	"2020-11-18 13:53:08.062888"	49	6.55550518333333
"S201118"	"Conflict_Resolution"	"RIGHT"	"RIGHT"	441.311499999983	883.3333351	n/a	n/a	n/a	n/a	"False"	n/a	n/a	"2020-11-18 13:53:08.965417"	"2020-11-18 13:53:09.614900"	50	6.55550518333333
"S201118"	"Conflict_Resolution"	"LEFT"	"LEFT"	389.185999999995	816.6666683	n/a	n/a	n/a	n/a	"False"	n/a	n/a	"2020-11-18 13:53:10.449603"	"2020-11-18 13:53:11.046164"	51	6.55550518333333
"S201118"	"Conflict_Resolution"	"RIGHT"	"RIGHT"	586.547999999993	883.3333351	n/a	n/a	n/a	n/a	"True"	n/a	n/a	"2020-11-18 13:53:11.947373"	"2020-11-18 13:53:12.742389"	52	6.55550518333333
"S201118"	"Conflict_Resolution"	"LEFT"	"LEFT"	414.035399999989	783.3333349	n/a	n/a	n/a	n/a	"False"	n/a	n/a	"2020-11-18 13:53:13.544721"	"2020-11-18 13:53:14.168026"	53	6.55550518333333
"S201118"	"Conflict_Resolution"	"RIGHT"	"RIGHT"	430.928200000039	1100.0000022	n/a	n/a	n/a	n/a	"False"	n/a	n/a	"2020-11-18 13:53:15.288044"	"2020-11-18 13:53:15.926916"	54	6.55550518333333
"S201118"	"Conflict_Resolution"	"RIGHT"	"RIGHT"	431.11179999994	583.3333345	n/a	n/a	n/a	n/a	"False"	n/a	n/a	"2020-11-18 13:53:16.527481"	"2020-11-18 13:53:17.166911"	55	6.55550518333333
"S201118"	"Conflict_Resolution"	"RIGHT"	"RIGHT"	429.995600000098	1366.6666694	n/a	n/a	n/a	n/a	"False"	n/a	n/a	"2020-11-18 13:53:18.552417"	"2020-11-18 13:53:19.191017"	56	6.55550518333333
"S201118"	"Conflict_Resolution"	"RIGHT"	"RIGHT"	648.805999999922	500.000001	n/a	n/a	n/a	n/a	"True"	n/a	n/a	"2020-11-18 13:53:19.709677"	"2020-11-18 13:53:20.566174"	57	6.55550518333333
"S201118"	"Conflict_Resolution"	"LEFT"	"LEFT"	482.596999999942	1066.6666688	n/a	n/a	n/a	n/a	"True"	n/a	n/a	"2020-11-18 13:53:21.651939"	"2020-11-18 13:53:22.343155"	58	6.55550518333333
"S201118"	"Conflict_Resolution"	"RIGHT"	"RIGHT"	584.29799999999	900.0000018	n/a	n/a	n/a	n/a	"True"	n/a	n/a	"2020-11-18 13:53:23.262490"	"2020-11-18 13:53:24.054978"	59	6.55550518333333
"S201118"	"Conflict_Resolution"	"LEFT"	"LEFT"	706.187600000021	1250.0000025	n/a	n/a	n/a	n/a	"True"	n/a	n/a	"2020-11-18 13:53:25.324717"	"2020-11-18 13:53:26.238209"	60	6.55550518333333
"S201118"	"Conflict_Resolution"	"RIGHT"	"RIGHT"	531.950700000039	1233.3333358	n/a	n/a	n/a	n/a	"True"	n/a	n/a	"2020-11-18 13:53:27.490318"	"2020-11-18 13:53:28.231631"	61	6.55550518333333
"S201118"	"Conflict_Resolution"	"LEFT"	"LEFT"	615.415400000074	950.0000019	n/a	n/a	n/a	n/a	"False"	n/a	n/a	"2020-11-18 13:53:29.198769"	"2020-11-18 13:53:30.022732"	62	6.55550518333333
"S201118"	"Conflict_Resolution"	"LEFT"	"LEFT"	583.169099999964	1116.6666689	n/a	n/a	n/a	n/a	"True"	n/a	n/a	"2020-11-18 13:53:31.159770"	"2020-11-18 13:53:31.950869"	63	6.55550518333333
"S201118"	"Conflict_Resolution"	"LEFT"	"LEFT"	634.839100000022	1450.0000029	n/a	n/a	n/a	n/a	"True"	n/a	n/a	"2020-11-18 13:53:33.419819"	"2020-11-18 13:53:34.262923"	64	6.55550518333333
"S201118"	"Conflict_Resolution"	"LEFT"	"LEFT"	606.283200000007	1150.0000023	n/a	n/a	n/a	n/a	"True"	n/a	n/a	"2020-11-18 13:53:35.432653"	"2020-11-18 13:53:36.246926"	65	6.55550518333333
"S201118"	"Conflict_Resolution"	"RIGHT"	"RIGHT"	361.170200000061	1483.3333363	n/a	n/a	n/a	n/a	"False"	n/a	n/a	"2020-11-18 13:53:37.749656"	"2020-11-18 13:53:38.317653"	66	6.55550518333333
"S201118"	"Conflict_Resolution"	"LEFT"	"LEFT"	481.566100000009	1300.0000026	n/a	n/a	n/a	n/a	"False"	n/a	n/a	"2020-11-18 13:53:39.636723"	"2020-11-18 13:53:40.326399"	67	6.55550518333333
"S201118"	"Conflict_Resolution"	"RIGHT"	"RIGHT"	747.133299999973	650.0000013	n/a	n/a	n/a	n/a	"True"	n/a	n/a	"2020-11-18 13:53:40.995688"	"2020-11-18 13:53:41.950755"	68	6.55550518333333
"S201118"	"Conflict_Resolution"	"RIGHT"	"RIGHT"	475.596399999972	1283.3333359	n/a	n/a	n/a	n/a	"False"	n/a	n/a	"2020-11-18 13:53:43.251303"	"2020-11-18 13:53:43.934980"	69	6.55550518333333
"S201118"	"Conflict_Resolution"	"RIGHT"	"RIGHT"	598.937299999989	1100.0000022	n/a	n/a	n/a	n/a	"True"	n/a	n/a	"2020-11-18 13:53:45.055452"	"2020-11-18 13:53:45.861603"	70	6.55550518333333
"S201118"	"Conflict_Resolution"	"RIGHT"	"RIGHT"	607.733199999984	1383.3333361	n/a	n/a	n/a	n/a	"True"	n/a	n/a	"2020-11-18 13:53:47.262420"	"2020-11-18 13:53:48.077548"	71	6.55550518333333
"S201118"	"Conflict_Resolution"	"LEFT"	"LEFT"	525.233600000092	1066.6666688	n/a	n/a	n/a	n/a	"False"	n/a	n/a	"2020-11-18 13:53:49.161329"	"2020-11-18 13:53:49.894944"	72	6.55550518333333
"S201118"	"Conflict_Resolution"	"RIGHT"	"RIGHT"	419.723200000021	850.0000017	n/a	n/a	n/a	n/a	"False"	n/a	n/a	"2020-11-18 13:53:50.762537"	"2020-11-18 13:53:51.389476"	73	6.55550518333333
"S201118"	"Conflict_Resolution"	"LEFT"	"LEFT"	563.190200000008	683.3333347	n/a	n/a	n/a	n/a	"True"	n/a	n/a	"2020-11-18 13:53:52.090748"	"2020-11-18 13:53:52.862819"	74	6.55550518333333
"S201118"	"Conflict_Resolution"	"RIGHT"	"RIGHT"	618.237600000043	1466.6666696	n/a	n/a	n/a	n/a	"True"	n/a	n/a	"2020-11-18 13:53:54.348401"	"2020-11-18 13:53:55.174837"	75	6.55550518333333
"S201118"	"Conflict_Resolution"	"LEFT"	"LEFT"	584.031900000014	1316.6666693	n/a	n/a	n/a	n/a	"True"	n/a	n/a	"2020-11-18 13:53:56.510802"	"2020-11-18 13:53:57.302728"	76	6.55550518333333
"S201118"	"Conflict_Resolution"	"LEFT"	"LEFT"	488.438499999916	1350.0000027	n/a	n/a	n/a	n/a	"True"	n/a	n/a	"2020-11-18 13:53:58.670016"	"2020-11-18 13:53:59.366659"	77	6.55550518333333
"S201118"	"Conflict_Resolution"	"LEFT"	"LEFT"	484.343099999933	1250.0000025	n/a	n/a	n/a	n/a	"False"	n/a	n/a	"2020-11-18 13:54:00.634312"	"2020-11-18 13:54:01.326163"	78	6.55550518333333
"S201118"	"Conflict_Resolution"	"RIGHT"	"RIGHT"	471.449200000052	1150.0000023	n/a	n/a	n/a	n/a	"False"	n/a	n/a	"2020-11-18 13:54:02.495229"	"2020-11-18 13:54:03.175013"	79	6.55550518333333
"S201118"	"Conflict_Resolution"	"RIGHT"	"RIGHT"	379.413399999976	633.3333346	n/a	n/a	n/a	n/a	"False"	n/a	n/a	"2020-11-18 13:54:03.827470"	"2020-11-18 13:54:04.413606"	80	6.55550518333333
"S201118"	"Conflict_Resolution"	"RIGHT"	"RIGHT"	378.16840000005	1050.0000021	n/a	n/a	n/a	n/a	"False"	n/a	n/a	"2020-11-18 13:54:05.484071"	"2020-11-18 13:54:06.069825"	81	6.55550518333333
"S201118"	"Conflict_Resolution"	"LEFT"	"LEFT"	505.113800000004	916.6666685	n/a	n/a	n/a	n/a	"True"	n/a	n/a	"2020-11-18 13:54:07.005702"	"2020-11-18 13:54:07.717174"	82	6.55550518333333
"S201118"	"Conflict_Resolution"	"LEFT"	"LEFT"	606.253599999945	1200.0000024	n/a	n/a	n/a	n/a	"True"	n/a	n/a	"2020-11-18 13:54:08.936416"	"2020-11-18 13:54:09.750726"	83	6.55550518333333
"S201118"	"Conflict_Resolution"	"LEFT"	"LEFT"	505.941199999938	666.666668	n/a	n/a	n/a	n/a	"True"	n/a	n/a	"2020-11-18 13:54:10.436909"	"2020-11-18 13:54:11.150203"	84	6.55550518333333
"S201118"	"Conflict_Resolution"	"RIGHT"	"RIGHT"	671.289000000002	750.0000015	n/a	n/a	n/a	n/a	"True"	n/a	n/a	"2020-11-18 13:54:11.919430"	"2020-11-18 13:54:12.798203"	85	6.55550518333333
"S201118"	"Conflict_Resolution"	"LEFT"	"LEFT"	510.73759999997	966.6666686	n/a	n/a	n/a	n/a	"True"	n/a	n/a	"2020-11-18 13:54:13.783520"	"2020-11-18 13:54:14.502960"	86	6.55550518333333
"S201118"	"Conflict_Resolution"	"LEFT"	"LEFT"	412.334700000088	633.3333346	n/a	n/a	n/a	n/a	"False"	n/a	n/a	"2020-11-18 13:54:15.153854"	"2020-11-18 13:54:15.774267"	87	6.55550518333333
"S201118"	"Conflict_Resolution"	"RIGHT"	"RIGHT"	585.170299999959	500.000001	n/a	n/a	n/a	n/a	"False"	n/a	n/a	"2020-11-18 13:54:16.293458"	"2020-11-18 13:54:17.086865"	88	6.55550518333333
"S201118"	"Conflict_Resolution"	"RIGHT"	"RIGHT"	616.702700000019	683.3333347	n/a	n/a	n/a	n/a	"True"	n/a	n/a	"2020-11-18 13:54:17.790211"	"2020-11-18 13:54:18.614560"	89	6.55550518333333
"S201118"	"Conflict_Resolution"	"RIGHT"	"RIGHT"	567.231500000048	583.3333345	n/a	n/a	n/a	n/a	"True"	n/a	n/a	"2020-11-18 13:54:19.214731"	"2020-11-18 13:54:19.989995"	90	6.55550518333333
"S201118"	"Conflict_Resolution"	"LEFT"	"LEFT"	515.556699999934	850.0000017	n/a	n/a	n/a	n/a	"True"	n/a	n/a	"2020-11-18 13:54:20.859035"	"2020-11-18 13:54:21.581397"	91	6.55550518333333
"S201118"	"Conflict_Resolution"	"RIGHT"	"RIGHT"	434.073499999954	683.3333347	n/a	n/a	n/a	n/a	"False"	n/a	n/a	"2020-11-18 13:54:22.284190"	"2020-11-18 13:54:22.926177"	92	6.55550518333333
"S201118"	"Conflict_Resolution"	"LEFT"	"LEFT"	542.068200000017	816.6666683	n/a	n/a	n/a	n/a	"True"	n/a	n/a	"2020-11-18 13:54:23.760485"	"2020-11-18 13:54:24.509632"	93	6.55550518333333
"S201118"	"Conflict_Resolution"	"RIGHT"	"RIGHT"	618.205399999965	1283.3333359	n/a	n/a	n/a	n/a	"True"	n/a	n/a	"2020-11-18 13:54:25.812476"	"2020-11-18 13:54:26.638816"	94	6.55550518333333
"S201118"	"Conflict_Resolution"	"LEFT"	"LEFT"	591.711700000019	533.3333344	n/a	n/a	n/a	n/a	"True"	n/a	n/a	"2020-11-18 13:54:27.191204"	"2020-11-18 13:54:27.990085"	95	6.55550518333333
"S201118"	"Conflict_Resolution"	"LEFT"	"LEFT"	442.219699999896	1316.6666693	n/a	n/a	n/a	n/a	"False"	n/a	n/a	"2020-11-18 13:54:29.324393"	"2020-11-18 13:54:29.975049"	96	6.55550518333333
"S201118"	"Conflict_Resolution"	"RIGHT"	"RIGHT"	588.256999999999	983.3333353	n/a	n/a	n/a	n/a	"True"	n/a	n/a	"2020-11-18 13:54:30.978361"	"2020-11-18 13:54:31.774506"	97	6.55550518333333
"S201118"	"Conflict_Resolution"	"RIGHT"	"RIGHT"	562.747700000045	1050.0000021	n/a	n/a	n/a	n/a	"True"	n/a	n/a	"2020-11-18 13:54:32.843361"	"2020-11-18 13:54:33.615027"	98	6.55550518333333
"S201118"	"Conflict_Resolution"	"LEFT"	"LEFT"	451.203100000043	866.6666684	n/a	n/a	n/a	n/a	"False"	n/a	n/a	"2020-11-18 13:54:34.498774"	"2020-11-18 13:54:35.159085"	99	6.55550518333333
"S201118"	"Conflict_Resolution"	"LEFT"	"LEFT"	444.72410000003	583.3333345	n/a	n/a	n/a	n/a	"False"	n/a	n/a	"2020-11-18 13:54:35.762075"	"2020-11-18 13:54:36.414403"	100	6.55550518333333
"S201118"	"Conflict_Resolution"	"RIGHT"	"RIGHT"	572.418999999968	650.0000013	n/a	n/a	n/a	n/a	"False"	n/a	n/a	"2020-11-18 13:54:37.082334"	"2020-11-18 13:54:37.862893"	101	6.55550518333333
"S201118"	"Conflict_Resolution"	"LEFT"	"LEFT"	522.190499999965	1100.0000022	n/a	n/a	n/a	n/a	"False"	n/a	n/a	"2020-11-18 13:54:38.979883"	"2020-11-18 13:54:39.709323"	102	6.55550518333333
"S201118"	"Conflict_Resolution"	"LEFT"	"LEFT"	466.1294	516.6666677	n/a	n/a	n/a	n/a	"False"	n/a	n/a	"2020-11-18 13:54:40.244077"	"2020-11-18 13:54:40.918044"	103	6.55550518333333
"S201118"	"Conflict_Resolution"	"LEFT"	"LEFT"	455.142899999942	1166.666669	n/a	n/a	n/a	n/a	"False"	n/a	n/a	"2020-11-18 13:54:42.103693"	"2020-11-18 13:54:42.766781"	104	6.55550518333333
"S201118"	"Conflict_Resolution"	"RIGHT"	"RIGHT"	467.361100000062	833.333335	n/a	n/a	n/a	n/a	"False"	n/a	n/a	"2020-11-18 13:54:43.619507"	"2020-11-18 13:54:44.293617"	105	6.55550518333333
"S201118"	"Conflict_Resolution"	"LEFT"	"LEFT"	571.625699999913	1050.0000021	n/a	n/a	n/a	n/a	"True"	n/a	n/a	"2020-11-18 13:54:45.362474"	"2020-11-18 13:54:46.142233"	106	6.55550518333333
"S201118"	"Conflict_Resolution"	"RIGHT"	"RIGHT"	636.13620000001	800.0000016	n/a	n/a	n/a	n/a	"True"	n/a	n/a	"2020-11-18 13:54:46.962685"	"2020-11-18 13:54:47.807139"	107	6.55550518333333
"S201118"	"Conflict_Resolution"	"LEFT"	"LEFT"	667.58249999998	1016.6666687	n/a	n/a	n/a	n/a	"True"	n/a	n/a	"2020-11-18 13:54:48.843354"	"2020-11-18 13:54:49.718827"	108	6.55550518333333
"S201118"	"Conflict_Resolution"	"LEFT"	"LEFT"	413.675499999954	1366.6666694	n/a	n/a	n/a	n/a	"False"	n/a	n/a	"2020-11-18 13:54:51.104485"	"2020-11-18 13:54:51.727015"	109	6.55550518333333
"S201118"	"Conflict_Resolution"	"LEFT"	"LEFT"	587.713200000053	1216.6666691	n/a	n/a	n/a	n/a	"True"	n/a	n/a	"2020-11-18 13:54:52.962397"	"2020-11-18 13:54:53.757755"	110	6.55550518333333
"S201118"	"Conflict_Resolution"	"LEFT"	"LEFT"	424.437500000067	733.3333348	n/a	n/a	n/a	n/a	"False"	n/a	n/a	"2020-11-18 13:54:54.510404"	"2020-11-18 13:54:55.142339"	111	6.55550518333333
"S201118"	"Conflict_Resolution"	"LEFT"	"LEFT"	574.191299999939	783.3333349	n/a	n/a	n/a	n/a	"True"	n/a	n/a	"2020-11-18 13:54:55.944569"	"2020-11-18 13:54:56.726296"	112	6.55550518333333
"S201118"	"Conflict_Resolution"	"LEFT"	"LEFT"	499.289600000111	1100.0000022	n/a	n/a	n/a	n/a	"True"	n/a	n/a	"2020-11-18 13:54:57.843616"	"2020-11-18 13:54:58.550299"	113	6.55550518333333
"S201118"	"Conflict_Resolution"	"RIGHT"	"RIGHT"	479.876399999966	733.3333348	n/a	n/a	n/a	n/a	"False"	n/a	n/a	"2020-11-18 13:54:59.303082"	"2020-11-18 13:54:59.989258"	114	6.55550518333333
"S201118"	"Conflict_Resolution"	"LEFT"	"LEFT"	457.851699999992	1350.0000027	n/a	n/a	n/a	n/a	"False"	n/a	n/a	"2020-11-18 13:55:01.356292"	"2020-11-18 13:55:02.022317"	115	6.55550518333333
"S201118"	"Conflict_Resolution"	"RIGHT"	"RIGHT"	616.396099999974	733.3333348	n/a	n/a	n/a	n/a	"True"	n/a	n/a	"2020-11-18 13:55:02.773661"	"2020-11-18 13:55:03.598458"	116	6.55550518333333
"S201118"	"Conflict_Resolution"	"RIGHT"	"RIGHT"	471.781699999838	1333.333336	n/a	n/a	n/a	n/a	"False"	n/a	n/a	"2020-11-18 13:55:04.950285"	"2020-11-18 13:55:05.630526"	117	6.55550518333333
"S201118"	"Conflict_Resolution"	"RIGHT"	"RIGHT"	551.390299999866	1133.3333356	n/a	n/a	n/a	n/a	"False"	n/a	n/a	"2020-11-18 13:55:06.782683"	"2020-11-18 13:55:07.541628"	118	6.55550518333333
"S201118"	"Conflict_Resolution"	"LEFT"	"LEFT"	527.706099999932	1150.0000023	n/a	n/a	n/a	n/a	"False"	n/a	n/a	"2020-11-18 13:55:08.711264"	"2020-11-18 13:55:09.446329"	119	6.55550518333333
"S201118"	"Conflict_Resolution"	"RIGHT"	"RIGHT"	560.935799999925	1333.333336	n/a	n/a	n/a	n/a	"True"	n/a	n/a	"2020-11-18 13:55:10.797735"	"2020-11-18 13:55:11.566679"	120	6.55550518333333
"S201118"	"Conflict_Resolution"	"RIGHT"	"RIGHT"	515.26059999992	833.333335	n/a	n/a	n/a	n/a	"True"	n/a	n/a	"2020-11-18 13:55:12.419420"	"2020-11-18 13:55:13.142238"	121	6.55550518333333
"S201118"	"Conflict_Resolution"	"LEFT"	"LEFT"	586.444200000187	666.666668	n/a	n/a	n/a	n/a	"False"	n/a	n/a	"2020-11-18 13:55:13.828288"	"2020-11-18 13:55:14.621510"	122	6.55550518333333
"S201118"	"Conflict_Resolution"	"RIGHT"	"RIGHT"	541.579400000046	1216.6666691	n/a	n/a	n/a	n/a	"True"	n/a	n/a	"2020-11-18 13:55:15.857128"	"2020-11-18 13:55:16.606082"	123	6.55550518333333
"S201118"	"Conflict_Resolution"	"LEFT"	"LEFT"	588.266800000156	1266.6666692	n/a	n/a	n/a	n/a	"True"	n/a	n/a	"2020-11-18 13:55:17.890450"	"2020-11-18 13:55:18.686439"	124	6.55550518333333
"S201118"	"Conflict_Resolution"	"LEFT"	"LEFT"	564.580799999931	1416.6666695	n/a	n/a	n/a	n/a	"True"	n/a	n/a	"2020-11-18 13:55:20.122184"	"2020-11-18 13:55:20.894934"	125	6.55550518333333
"S201118"	"Conflict_Resolution"	"LEFT"	"LEFT"	430.602900000167	533.3333344	n/a	n/a	n/a	n/a	"False"	n/a	n/a	"2020-11-18 13:55:21.447509"	"2020-11-18 13:55:22.087063"	126	6.55550518333333
"S201118"	"Conflict_Resolution"	"LEFT"	"LEFT"	384.177899999941	900.0000018	n/a	n/a	n/a	n/a	"False"	n/a	n/a	"2020-11-18 13:55:23.006666"	"2020-11-18 13:55:23.598972"	127	6.55550518333333
"S201118"	"Conflict_Resolution"	"LEFT"	"LEFT"	464.95989999994	916.6666685	n/a	n/a	n/a	n/a	"False"	n/a	n/a	"2020-11-18 13:55:24.532995"	"2020-11-18 13:55:25.205591"	128	6.55550518333333
"S201118"	"Conflict_Resolution"	"LEFT"	"LEFT"	616.832300000169	733.3333348	n/a	n/a	n/a	n/a	"True"	n/a	n/a	"2020-11-18 13:55:25.957607"	"2020-11-18 13:55:26.781178"	129	6.55550518333333
"S201118"	"Conflict_Resolution"	"RIGHT"	"RIGHT"	519.600000000082	800.0000016	n/a	n/a	n/a	n/a	"False"	n/a	n/a	"2020-11-18 13:55:27.598992"	"2020-11-18 13:55:28.326626"	130	6.55550518333333
"S201118"	"Conflict_Resolution"	"RIGHT"	"RIGHT"	443.328300000076	1233.3333358	n/a	n/a	n/a	n/a	"False"	n/a	n/a	"2020-11-18 13:55:29.578427"	"2020-11-18 13:55:30.231659"	131	6.55550518333333
"S201118"	"Conflict_Resolution"	"RIGHT"	"RIGHT"	532.824900000151	1383.3333361	n/a	n/a	n/a	n/a	"False"	n/a	n/a	"2020-11-18 13:55:31.634121"	"2020-11-18 13:55:32.373318"	132	6.55550518333333
"S201118"	"Conflict_Resolution"	"RIGHT"	"RIGHT"	664.766599999894	550.0000011	n/a	n/a	n/a	n/a	"True"	n/a	n/a	"2020-11-18 13:55:32.941371"	"2020-11-18 13:55:33.814160"	133	6.55550518333333
"S201118"	"Conflict_Resolution"	"RIGHT"	"RIGHT"	406.275700000151	1183.3333357	n/a	n/a	n/a	n/a	"False"	n/a	n/a	"2020-11-18 13:55:35.016788"	"2020-11-18 13:55:35.630368"	134	6.55550518333333
"S201118"	"Conflict_Resolution"	"LEFT"	"LEFT"	402.581300000065	1466.6666696	n/a	n/a	n/a	n/a	"False"	n/a	n/a	"2020-11-18 13:55:37.116190"	"2020-11-18 13:55:37.726162"	135	6.55550518333333
"S201118"	"Conflict_Resolution"	"RIGHT"	"RIGHT"	429.797400000098	783.3333349	n/a	n/a	n/a	n/a	"False"	n/a	n/a	"2020-11-18 13:55:38.528292"	"2020-11-18 13:55:39.166372"	136	6.55550518333333
"S201118"	"Conflict_Resolution"	"RIGHT"	"LEFT"	431.768299999931	533.3333344	n/a	n/a	n/a	n/a	"True"	n/a	n/a	"2020-11-18 13:55:39.718994"	"2020-11-18 13:55:40.358938"	137	6.55550518333333
"S201118"	"Conflict_Resolution"	"LEFT"	"LEFT"	447.77780000004	1116.6666689	n/a	n/a	n/a	n/a	"False"	n/a	n/a	"2020-11-18 13:55:41.494939"	"2020-11-18 13:55:42.150656"	138	6.55550518333333
"S201118"	"Conflict_Resolution"	"LEFT"	"LEFT"	637.685000000147	583.3333345	n/a	n/a	n/a	n/a	"True"	n/a	n/a	"2020-11-18 13:55:42.753000"	"2020-11-18 13:55:43.598229"	139	6.55550518333333
"S201118"	"Conflict_Resolution"	"LEFT"	"LEFT"	476.708200000076	1050.0000021	n/a	n/a	n/a	n/a	"False"	n/a	n/a	"2020-11-18 13:55:44.665653"	"2020-11-18 13:55:45.351145"	140	6.55550518333333
"S201118"	"Conflict_Resolution"	"RIGHT"	"RIGHT"	595.547200000055	1416.6666695	n/a	n/a	n/a	n/a	"True"	n/a	n/a	"2020-11-18 13:55:46.786524"	"2020-11-18 13:55:47.591924"	141	6.55550518333333
"S201118"	"Conflict_Resolution"	"LEFT"	"LEFT"	614.034400000037	950.0000019	n/a	n/a	n/a	n/a	"True"	n/a	n/a	"2020-11-18 13:55:48.560827"	"2020-11-18 13:55:49.382257"	142	6.55550518333333
"S201118"	"Conflict_Resolution"	"LEFT"	"LEFT"	472.980200000165	1500.000003	n/a	n/a	n/a	n/a	"False"	n/a	n/a	"2020-11-18 13:55:50.902115"	"2020-11-18 13:55:51.582215"	143	6.55550518333333
"S201118"	"Conflict_Resolution"	"RIGHT"	"RIGHT"	405.486699999983	1000.000002	n/a	n/a	n/a	n/a	"False"	n/a	n/a	"2020-11-18 13:55:52.601343"	"2020-11-18 13:55:53.214531"	144	6.55550518333333
"S201118"	"Conflict_Resolution"	"LEFT"	"LEFT"	548.885400000017	1000.000002	n/a	n/a	n/a	n/a	"True"	n/a	n/a	"2020-11-18 13:55:54.233366"	"2020-11-18 13:55:54.990860"	145	6.55550518333333
"S201118"	"Conflict_Resolution"	"LEFT"	"LEFT"	600.707100000136	866.6666684	n/a	n/a	n/a	n/a	"True"	n/a	n/a	"2020-11-18 13:55:55.877560"	"2020-11-18 13:55:56.687035"	146	6.55550518333333
"S201118"	"Conflict_Resolution"	"LEFT"	"LEFT"	412.941199999977	566.6666678	n/a	n/a	n/a	n/a	"False"	n/a	n/a	"2020-11-18 13:55:57.273692"	"2020-11-18 13:55:57.893624"	147	6.55550518333333
"S201118"	"Conflict_Resolution"	"LEFT"	"LEFT"	561.933700000054	1500.000003	n/a	n/a	n/a	n/a	"True"	n/a	n/a	"2020-11-18 13:55:59.413022"	"2020-11-18 13:56:00.181675"	148	6.55550518333333
"S201118"	"Conflict_Resolution"	"LEFT"	"LEFT"	515.634800000043	1300.0000026	n/a	n/a	n/a	n/a	"True"	n/a	n/a	"2020-11-18 13:56:01.499105"	"2020-11-18 13:56:02.222452"	149	6.55550518333333
"S201118"	"Conflict_Resolution"	"RIGHT"	"RIGHT"	637.973099999954	1366.6666694	n/a	n/a	n/a	n/a	"True"	n/a	n/a	"2020-11-18 13:56:03.608348"	"2020-11-18 13:56:04.455037"	150	6.55550518333333
"S201118"	"Conflict_Resolution"	"RIGHT"	"RIGHT"	589.106900000161	783.3333349	n/a	n/a	n/a	n/a	"True"	n/a	n/a	"2020-11-18 13:56:05.257526"	"2020-11-18 13:56:06.055040"	151	6.55550518333333
"S201118"	"Conflict_Resolution"	"LEFT"	"LEFT"	581.806700000016	1166.666669	n/a	n/a	n/a	n/a	"True"	n/a	n/a	"2020-11-18 13:56:07.240997"	"2020-11-18 13:56:08.030776"	152	6.55550518333333
"S201118"	"Conflict_Resolution"	"RIGHT"	"RIGHT"	507.379200000059	1033.3333354	n/a	n/a	n/a	n/a	"False"	n/a	n/a	"2020-11-18 13:56:09.083320"	"2020-11-18 13:56:09.798242"	153	6.55550518333333
"S201118"	"Conflict_Resolution"	"LEFT"	"LEFT"	561.23649999995	900.0000018	n/a	n/a	n/a	n/a	"True"	n/a	n/a	"2020-11-18 13:56:10.717198"	"2020-11-18 13:56:11.486747"	154	6.55550518333333
"S201118"	"Conflict_Resolution"	"RIGHT"	"RIGHT"	600.166899999977	1150.0000023	n/a	n/a	n/a	n/a	"True"	n/a	n/a	"2020-11-18 13:56:12.653985"	"2020-11-18 13:56:13.462851"	155	6.55550518333333
"S201118"	"Conflict_Resolution"	"LEFT"	"LEFT"	549.940900000138	1366.6666694	n/a	n/a	n/a	n/a	"True"	n/a	n/a	"2020-11-18 13:56:14.848881"	"2020-11-18 13:56:15.606233"	156	6.55550518333333
"S201118"	"Conflict_Resolution"	"RIGHT"	"RIGHT"	613.421399999879	600.0000012	n/a	n/a	n/a	n/a	"True"	n/a	n/a	"2020-11-18 13:56:16.225151"	"2020-11-18 13:56:17.045672"	157	6.55550518333333
"S201118"	"Conflict_Resolution"	"RIGHT"	"RIGHT"	595.799400000033	1266.6666692	n/a	n/a	n/a	n/a	"True"	n/a	n/a	"2020-11-18 13:56:18.331008"	"2020-11-18 13:56:19.134621"	158	6.55550518333333
"S201118"	"Conflict_Resolution"	"RIGHT"	"RIGHT"	504.616700000042	700.0000014	n/a	n/a	n/a	n/a	"False"	n/a	n/a	"2020-11-18 13:56:19.854352"	"2020-11-18 13:56:20.567146"	159	6.55550518333333
"S201118"	"Conflict_Resolution"	"LEFT"	"LEFT"	605.409499999951	566.6666678	n/a	n/a	n/a	n/a	"True"	n/a	n/a	"2020-11-18 13:56:21.153213"	"2020-11-18 13:56:21.967005"	160	6.55550518333333
"S201118"	"Processing_Speed"	"RIGHT"	"DOWN"	912.582999999998	850.0000017	n/a	n/a	n/a	n/a	n/a	n/a	n/a	"2020-11-18 13:39:35.638251"	"2020-11-18 13:39:36.768864"	1	2.16000538333333
"S201118"	"Processing_Speed"	"LEFT"	"DOWN"	322.736999999989	1466.6666696	n/a	n/a	n/a	n/a	n/a	n/a	n/a	"2020-11-18 13:39:38.244278"	"2020-11-18 13:39:38.774860"	2	2.16000538333333
"S201118"	"Processing_Speed"	"RIGHT"	"DOWN"	290.112100000002	533.3333344	n/a	n/a	n/a	n/a	n/a	n/a	n/a	"2020-11-18 13:39:39.316253"	"2020-11-18 13:39:39.814282"	3	2.16000538333333
"S201118"	"Processing_Speed"	"LEFT"	"DOWN"	282.505	533.3333344	n/a	n/a	n/a	n/a	n/a	n/a	n/a	"2020-11-18 13:39:40.356567"	"2020-11-18 13:39:40.846173"	4	2.16000538333333
"S201118"	"Processing_Speed"	"RIGHT"	"DOWN"	267.6929	1300.0000026	n/a	n/a	n/a	n/a	n/a	n/a	n/a	"2020-11-18 13:39:42.155302"	"2020-11-18 13:39:42.629648"	5	2.16000538333333
"S201118"	"Processing_Speed"	"LEFT"	"DOWN"	254.0446	1266.6666692	n/a	n/a	n/a	n/a	n/a	n/a	n/a	"2020-11-18 13:39:43.904977"	"2020-11-18 13:39:44.366504"	6	2.16000538333333
"S201118"	"Processing_Speed"	"LEFT"	"DOWN"	321.022099999993	566.6666678	n/a	n/a	n/a	n/a	n/a	n/a	n/a	"2020-11-18 13:39:44.941733"	"2020-11-18 13:39:45.470691"	7	2.16000538333333
"S201118"	"Processing_Speed"	"LEFT"	"DOWN"	302.16089999999	1016.6666687	n/a	n/a	n/a	n/a	n/a	n/a	n/a	"2020-11-18 13:39:46.496659"	"2020-11-18 13:39:47.006542"	8	2.16000538333333
"S201118"	"Processing_Speed"	"RIGHT"	"DOWN"	233.598300000011	950.0000019	n/a	n/a	n/a	n/a	n/a	n/a	n/a	"2020-11-18 13:39:47.964717"	"2020-11-18 13:39:48.407255"	9	2.16000538333333
"S201118"	"Processing_Speed"	"RIGHT"	"DOWN"	251.759300000003	1083.3333355	n/a	n/a	n/a	n/a	n/a	n/a	n/a	"2020-11-18 13:39:49.498834"	"2020-11-18 13:39:49.958478"	10	2.16000538333333
"S201118"	"Processing_Speed"	"RIGHT"	"DOWN"	262.010199999992	1433.3333362	n/a	n/a	n/a	n/a	n/a	n/a	n/a	"2020-11-18 13:39:51.400282"	"2020-11-18 13:39:51.870706"	11	2.16000538333333
"S201118"	"Processing_Speed"	"LEFT"	"DOWN"	286.8268	1216.6666691	n/a	n/a	n/a	n/a	n/a	n/a	n/a	"2020-11-18 13:39:53.096338"	"2020-11-18 13:39:53.590493"	12	2.16000538333333
"S201118"	"Processing_Speed"	"LEFT"	"DOWN"	330.666699999995	1116.6666689	n/a	n/a	n/a	n/a	n/a	n/a	n/a	"2020-11-18 13:39:54.715831"	"2020-11-18 13:39:55.255084"	13	2.16000538333333
"S201118"	"Processing_Speed"	"RIGHT"	"DOWN"	237.725799999993	633.3333346	n/a	n/a	n/a	n/a	n/a	n/a	n/a	"2020-11-18 13:39:55.897356"	"2020-11-18 13:39:56.342167"	14	2.16000538333333
"S201118"	"Processing_Speed"	"RIGHT"	"DOWN"	249.059799999998	983.3333353	n/a	n/a	n/a	n/a	n/a	n/a	n/a	"2020-11-18 13:39:57.333464"	"2020-11-18 13:39:57.790811"	15	2.16000538333333
"S201118"	"Processing_Speed"	"RIGHT"	"DOWN"	344.592299999988	566.6666678	n/a	n/a	n/a	n/a	n/a	n/a	n/a	"2020-11-18 13:39:58.366403"	"2020-11-18 13:39:58.918930"	16	2.16000538333333
"S201118"	"Processing_Speed"	"LEFT"	"DOWN"	263.869399999976	1183.3333357	n/a	n/a	n/a	n/a	n/a	n/a	n/a	"2020-11-18 13:40:00.110943"	"2020-11-18 13:40:00.582295"	17	2.16000538333333
"S201118"	"Processing_Speed"	"LEFT"	"DOWN"	298.014999999992	1150.0000023	n/a	n/a	n/a	n/a	n/a	n/a	n/a	"2020-11-18 13:40:01.740345"	"2020-11-18 13:40:02.246432"	18	2.16000538333333
"S201118"	"Processing_Speed"	"LEFT"	"DOWN"	356.895399999985	666.666668	n/a	n/a	n/a	n/a	n/a	n/a	n/a	"2020-11-18 13:40:02.921594"	"2020-11-18 13:40:03.486690"	19	2.16000538333333
"S201118"	"Processing_Speed"	"LEFT"	"DOWN"	267.084899999986	700.0000014	n/a	n/a	n/a	n/a	n/a	n/a	n/a	"2020-11-18 13:40:04.195159"	"2020-11-18 13:40:04.670887"	20	2.16000538333333
"S201118"	"Processing_Speed"	"LEFT"	"DOWN"	263.098499999984	1400.0000028	n/a	n/a	n/a	n/a	n/a	n/a	n/a	"2020-11-18 13:40:06.079384"	"2020-11-18 13:40:06.550768"	21	2.16000538333333
"S201118"	"Processing_Speed"	"RIGHT"	"DOWN"	415.239899999989	1400.0000028	n/a	n/a	n/a	n/a	n/a	n/a	n/a	"2020-11-18 13:40:07.959732"	"2020-11-18 13:40:08.583091"	22	2.16000538333333
"S201118"	"Processing_Speed"	"LEFT"	"DOWN"	212.023000000016	1083.3333355	n/a	n/a	n/a	n/a	n/a	n/a	n/a	"2020-11-18 13:40:09.674611"	"2020-11-18 13:40:10.094736"	23	2.16000538333333
"S201118"	"Processing_Speed"	"LEFT"	"DOWN"	265.756199999998	950.0000019	n/a	n/a	n/a	n/a	n/a	n/a	n/a	"2020-11-18 13:40:11.053332"	"2020-11-18 13:40:11.527091"	24	2.16000538333333
"S201118"	"Processing_Speed"	"LEFT"	"DOWN"	303.98120000001	783.3333349	n/a	n/a	n/a	n/a	n/a	n/a	n/a	"2020-11-18 13:40:12.318287"	"2020-11-18 13:40:12.830947"	25	2.16000538333333
"S201118"	"Processing_Speed"	"RIGHT"	"DOWN"	279.243499999978	600.0000012	n/a	n/a	n/a	n/a	n/a	n/a	n/a	"2020-11-18 13:40:13.439641"	"2020-11-18 13:40:13.927108"	26	2.16000538333333
"S201118"	"Processing_Speed"	"RIGHT"	"DOWN"	237.2412	1050.0000021	n/a	n/a	n/a	n/a	n/a	n/a	n/a	"2020-11-18 13:40:14.985162"	"2020-11-18 13:40:15.430934"	27	2.16000538333333
"S201118"	"Processing_Speed"	"LEFT"	"DOWN"	236.202399999996	883.3333351	n/a	n/a	n/a	n/a	n/a	n/a	n/a	"2020-11-18 13:40:16.322854"	"2020-11-18 13:40:16.766847"	28	2.16000538333333
"S201118"	"Processing_Speed"	"RIGHT"	"DOWN"	266.762499999999	916.6666685	n/a	n/a	n/a	n/a	n/a	n/a	n/a	"2020-11-18 13:40:17.692310"	"2020-11-18 13:40:18.167037"	29	2.16000538333333
"S201118"	"Processing_Speed"	"RIGHT"	"DOWN"	244.625599999978	816.6666683	n/a	n/a	n/a	n/a	n/a	n/a	n/a	"2020-11-18 13:40:18.994113"	"2020-11-18 13:40:19.447050"	30	2.16000538333333
"S201118"	"Processing_Speed"	"RIGHT"	"DOWN"	238.552099999993	1216.6666691	n/a	n/a	n/a	n/a	n/a	n/a	n/a	"2020-11-18 13:40:20.672215"	"2020-11-18 13:40:21.119227"	31	2.16000538333333
"S201118"	"Processing_Speed"	"RIGHT"	"DOWN"	285.395099999988	1016.6666687	n/a	n/a	n/a	n/a	n/a	n/a	n/a	"2020-11-18 13:40:22.144863"	"2020-11-18 13:40:22.638536"	32	2.16000538333333
"S201118"	"Processing_Speed"	"RIGHT"	"DOWN"	283.144899999996	1116.6666689	n/a	n/a	n/a	n/a	n/a	n/a	n/a	"2020-11-18 13:40:23.763153"	"2020-11-18 13:40:24.255172"	33	2.16000538333333
"S201118"	"Processing_Speed"	"RIGHT"	"DOWN"	233.164399999993	1150.0000023	n/a	n/a	n/a	n/a	n/a	n/a	n/a	"2020-11-18 13:40:25.413986"	"2020-11-18 13:40:25.854551"	34	2.16000538333333
"S201118"	"Processing_Speed"	"LEFT"	"DOWN"	422.360099999992	633.3333346	n/a	n/a	n/a	n/a	n/a	n/a	n/a	"2020-11-18 13:40:26.495837"	"2020-11-18 13:40:27.126999"	35	2.16000538333333
"S201118"	"Processing_Speed"	"LEFT"	"DOWN"	205.393100000009	1050.0000021	n/a	n/a	n/a	n/a	n/a	n/a	n/a	"2020-11-18 13:40:28.185703"	"2020-11-18 13:40:28.598330"	36	2.16000538333333
"S201118"	"Processing_Speed"	"LEFT"	"DOWN"	264.675600000004	983.3333353	n/a	n/a	n/a	n/a	n/a	n/a	n/a	"2020-11-18 13:40:29.589777"	"2020-11-18 13:40:30.061265"	37	2.16000538333333
"S201118"	"Processing_Speed"	"RIGHT"	"DOWN"	235.557199999988	733.3333348	n/a	n/a	n/a	n/a	n/a	n/a	n/a	"2020-11-18 13:40:30.803226"	"2020-11-18 13:40:31.248064"	38	2.16000538333333
"S201118"	"Processing_Speed"	"RIGHT"	"DOWN"	235.770599999995	666.666668	n/a	n/a	n/a	n/a	n/a	n/a	n/a	"2020-11-18 13:40:31.922747"	"2020-11-18 13:40:32.366168"	39	2.16000538333333
"S201118"	"Processing_Speed"	"RIGHT"	"DOWN"	257.524599999982	1366.6666694	n/a	n/a	n/a	n/a	n/a	n/a	n/a	"2020-11-18 13:40:33.741140"	"2020-11-18 13:40:34.206951"	40	2.16000538333333
"S201118"	"Processing_Speed"	"LEFT"	"DOWN"	361.981300000025	733.3333348	n/a	n/a	n/a	n/a	n/a	n/a	n/a	"2020-11-18 13:40:34.949078"	"2020-11-18 13:40:35.517996"	41	2.16000538333333
"S201118"	"Processing_Speed"	"LEFT"	"DOWN"	266.728000000001	1333.333336	n/a	n/a	n/a	n/a	n/a	n/a	n/a	"2020-11-18 13:40:36.860208"	"2020-11-18 13:40:37.335087"	42	2.16000538333333
"S201118"	"Processing_Speed"	"RIGHT"	"DOWN"	307.611499999979	500.000001	n/a	n/a	n/a	n/a	n/a	n/a	n/a	"2020-11-18 13:40:37.843729"	"2020-11-18 13:40:38.358242"	43	2.16000538333333
"S201118"	"Processing_Speed"	"RIGHT"	"DOWN"	237.620199999981	1266.6666692	n/a	n/a	n/a	n/a	n/a	n/a	n/a	"2020-11-18 13:40:39.633794"	"2020-11-18 13:40:40.078605"	44	2.16000538333333
"S201118"	"Processing_Speed"	"RIGHT"	"DOWN"	296.132199999988	783.3333349	n/a	n/a	n/a	n/a	n/a	n/a	n/a	"2020-11-18 13:40:40.870318"	"2020-11-18 13:40:41.374337"	45	2.16000538333333
"S201118"	"Processing_Speed"	"RIGHT"	"DOWN"	251.987600000007	700.0000014	n/a	n/a	n/a	n/a	n/a	n/a	n/a	"2020-11-18 13:40:42.082423"	"2020-11-18 13:40:42.542922"	46	2.16000538333333
"S201118"	"Processing_Speed"	"LEFT"	"DOWN"	287.106100000017	600.0000012	n/a	n/a	n/a	n/a	n/a	n/a	n/a	"2020-11-18 13:40:43.151524"	"2020-11-18 13:40:43.646538"	47	2.16000538333333
"S201118"	"Processing_Speed"	"RIGHT"	"DOWN"	252.340699999991	1466.6666696	n/a	n/a	n/a	n/a	n/a	n/a	n/a	"2020-11-18 13:40:45.122137"	"2020-11-18 13:40:45.582936"	48	2.16000538333333
"S201118"	"Processing_Speed"	"LEFT"	"DOWN"	290.690300000023	916.6666685	n/a	n/a	n/a	n/a	n/a	n/a	n/a	"2020-11-18 13:40:46.508372"	"2020-11-18 13:40:47.006260"	49	2.16000538333333
"S201118"	"Processing_Speed"	"LEFT"	"DOWN"	305.255599999981	1366.6666694	n/a	n/a	n/a	n/a	n/a	n/a	n/a	"2020-11-18 13:40:48.381008"	"2020-11-18 13:40:48.895021"	50	2.16000538333333
"S201118"	"Processing_Speed"	"LEFT"	"DOWN"	302.417500000018	816.6666683	n/a	n/a	n/a	n/a	n/a	n/a	n/a	"2020-11-18 13:40:49.720586"	"2020-11-18 13:40:50.231152"	51	2.16000538333333
"S201118"	"Processing_Speed"	"RIGHT"	"DOWN"	235.183599999999	1500.000003	n/a	n/a	n/a	n/a	n/a	n/a	n/a	"2020-11-18 13:40:51.739324"	"2020-11-18 13:40:52.181394"	52	2.16000538333333
"S201118"	"Processing_Speed"	"RIGHT"	"DOWN"	281.7024	1183.3333357	n/a	n/a	n/a	n/a	n/a	n/a	n/a	"2020-11-18 13:40:53.373238"	"2020-11-18 13:40:53.862172"	53	2.16000538333333
"S201118"	"Processing_Speed"	"LEFT"	"DOWN"	268.180999999998	1300.0000026	n/a	n/a	n/a	n/a	n/a	n/a	n/a	"2020-11-18 13:40:55.170274"	"2020-11-18 13:40:55.646314"	54	2.16000538333333
"S201118"	"Processing_Speed"	"RIGHT"	"DOWN"	266.463399999992	1333.333336	n/a	n/a	n/a	n/a	n/a	n/a	n/a	"2020-11-18 13:40:56.988331"	"2020-11-18 13:40:57.462879"	55	2.16000538333333
"S201118"	"Processing_Speed"	"RIGHT"	"DOWN"	275.916099999989	883.3333351	n/a	n/a	n/a	n/a	n/a	n/a	n/a	"2020-11-18 13:40:58.355078"	"2020-11-18 13:40:58.838451"	56	2.16000538333333
"S201118"	"Processing_Speed"	"LEFT"	"DOWN"	261.927899999989	850.0000017	n/a	n/a	n/a	n/a	n/a	n/a	n/a	"2020-11-18 13:40:59.696972"	"2020-11-18 13:41:00.166981"	57	2.16000538333333
"S201118"	"Processing_Speed"	"LEFT"	"DOWN"	362.697800000007	500.000001	n/a	n/a	n/a	n/a	n/a	n/a	n/a	"2020-11-18 13:41:00.676026"	"2020-11-18 13:41:01.247124"	58	2.16000538333333
"S201118"	"Processing_Speed"	"LEFT"	"DOWN"	261.432600000006	1433.3333362	n/a	n/a	n/a	n/a	n/a	n/a	n/a	"2020-11-18 13:41:02.689092"	"2020-11-18 13:41:03.158867"	59	2.16000538333333
"S201118"	"Processing_Speed"	"LEFT"	"DOWN"	259.512899999976	1500.000003	n/a	n/a	n/a	n/a	n/a	n/a	n/a	"2020-11-18 13:41:04.667479"	"2020-11-18 13:41:05.134221"	60	2.16000538333333
"S201118"	"Response_Inhibition"	"RIGHT"	"RIGHT"	397.755833800001	1233.3333358	n/a	n/a	n/a	n/a	n/a	n/a	n/a	"2020-11-18 13:44:53.933902"	"2020-11-18 13:44:54.543054"	1	5.70352488333333
"S201118"	"Response_Inhibition"	"RIGHT"	"RIGHT"	409.747300499992	1450.0000029	n/a	n/a	n/a	n/a	n/a	n/a	n/a	"2020-11-18 13:44:56.001825"	"2020-11-18 13:44:56.622166"	2	5.70352488333333
"S201118"	"Response_Inhibition"	"LEFT"	"Time_Max_Exceeded"	1500.04963339997	1483.3333363	n/a	n/a	n/a	n/a	n/a	n/a	n/a	"2020-11-18 13:44:58.114325"	"2020-11-18 13:44:59.617701"	3	5.70352488333333
"S201118"	"Response_Inhibition"	"LEFT"	"LEFT"	397.370633600041	1300.0000026	n/a	n/a	n/a	n/a	n/a	n/a	n/a	"2020-11-18 13:45:00.926278"	"2020-11-18 13:45:01.534851"	4	5.70352488333333
"S201118"	"Response_Inhibition"	"LEFT"	"LEFT"	419.415500000014	900.0000018	n/a	n/a	n/a	n/a	n/a	n/a	n/a	"2020-11-18 13:45:02.442786"	"2020-11-18 13:45:03.070348"	5	5.70352488333333
"S201118"	"Response_Inhibition"	"LEFT"	"LEFT"	342.346766999965	1366.6666694	n/a	n/a	n/a	n/a	n/a	n/a	n/a	"2020-11-18 13:45:04.445324"	"2020-11-18 13:45:04.997489"	6	5.70352488333333
"S201118"	"Response_Inhibition"	"RIGHT"	"Time_Max_Exceeded"	1500.06696669997	533.3333344	n/a	n/a	n/a	n/a	n/a	n/a	n/a	"2020-11-18 13:45:05.539613"	"2020-11-18 13:45:07.042093"	7	5.70352488333333
"S201118"	"Response_Inhibition"	"RIGHT"	"RIGHT"	441.88059999999	1433.3333362	n/a	n/a	n/a	n/a	n/a	n/a	n/a	"2020-11-18 13:45:08.484589"	"2020-11-18 13:45:09.133592"	8	5.70352488333333
"S201118"	"Response_Inhibition"	"RIGHT"	"RIGHT"	361.673633799991	1500.000003	n/a	n/a	n/a	n/a	n/a	n/a	n/a	"2020-11-18 13:45:10.641590"	"2020-11-18 13:45:11.213340"	9	5.70352488333333
"S201118"	"Response_Inhibition"	"RIGHT"	"Time_Max_Exceeded"	1500.06280030005	1383.3333361	n/a	n/a	n/a	n/a	n/a	n/a	n/a	"2020-11-18 13:45:12.604708"	"2020-11-18 13:45:14.108580"	10	5.70352488333333
"S201118"	"Response_Inhibition"	"LEFT"	"LEFT"	349.114200000031	1500.000003	n/a	n/a	n/a	n/a	n/a	n/a	n/a	"2020-11-18 13:45:15.617260"	"2020-11-18 13:45:16.174306"	11	5.70352488333333
"S201118"	"Response_Inhibition"	"LEFT"	"LEFT"	496.704500000021	583.3333345	n/a	n/a	n/a	n/a	n/a	n/a	n/a	"2020-11-18 13:45:16.765475"	"2020-11-18 13:45:17.470780"	12	5.70352488333333
"S201118"	"Response_Inhibition"	"RIGHT"	"RIGHT"	486.784600000021	1416.6666695	n/a	n/a	n/a	n/a	n/a	n/a	n/a	"2020-11-18 13:45:18.895763"	"2020-11-18 13:45:19.590491"	13	5.70352488333333
"S201118"	"Response_Inhibition"	"RIGHT"	"RIGHT"	388.320099999987	683.3333347	n/a	n/a	n/a	n/a	n/a	n/a	n/a	"2020-11-18 13:45:20.282737"	"2020-11-18 13:45:20.878746"	14	5.70352488333333
"S201118"	"Response_Inhibition"	"RIGHT"	"RIGHT"	389.287199999956	1250.0000025	n/a	n/a	n/a	n/a	n/a	n/a	n/a	"2020-11-18 13:45:22.137066"	"2020-11-18 13:45:22.735124"	15	5.70352488333333
"S201118"	"Response_Inhibition"	"RIGHT"	"Time_Max_Exceeded"	1500.05133360005	900.0000018	n/a	n/a	n/a	n/a	n/a	n/a	n/a	"2020-11-18 13:45:23.643259"	"2020-11-18 13:45:25.146927"	16	5.70352488333333
"S201118"	"Response_Inhibition"	"LEFT"	"LEFT"	372.543800000017	550.0000011	n/a	n/a	n/a	n/a	n/a	n/a	n/a	"2020-11-18 13:45:25.706143"	"2020-11-18 13:45:26.286699"	17	5.70352488333333
"S201118"	"Response_Inhibition"	"RIGHT"	"RIGHT"	529.226300000005	533.3333344	n/a	n/a	n/a	n/a	n/a	n/a	n/a	"2020-11-18 13:45:26.829500"	"2020-11-18 13:45:27.565641"	18	5.70352488333333
"S201118"	"Response_Inhibition"	"LEFT"	"LEFT"	264.487000000031	1400.0000028	n/a	n/a	n/a	n/a	n/a	n/a	n/a	"2020-11-18 13:45:28.974462"	"2020-11-18 13:45:29.446744"	19	5.70352488333333
"S201118"	"Response_Inhibition"	"RIGHT"	"RIGHT"	512.565300000006	1366.6666694	n/a	n/a	n/a	n/a	n/a	n/a	n/a	"2020-11-18 13:45:30.821962"	"2020-11-18 13:45:31.541535"	20	5.70352488333333
"S201118"	"Response_Inhibition"	"LEFT"	"LEFT"	295.462199999974	1233.3333358	n/a	n/a	n/a	n/a	n/a	n/a	n/a	"2020-11-18 13:45:32.782970"	"2020-11-18 13:45:33.286340"	21	5.70352488333333
"S201118"	"Response_Inhibition"	"RIGHT"	"RIGHT"	450.76260040003	850.0000017	n/a	n/a	n/a	n/a	n/a	n/a	n/a	"2020-11-18 13:45:34.144179"	"2020-11-18 13:45:34.805457"	22	5.70352488333333
"S201118"	"Response_Inhibition"	"LEFT"	"LEFT"	535.167300000012	1433.3333362	n/a	n/a	n/a	n/a	n/a	n/a	n/a	"2020-11-18 13:45:36.247492"	"2020-11-18 13:45:36.989327"	23	5.70352488333333
"S201118"	"Response_Inhibition"	"RIGHT"	"Time_Max_Exceeded"	1500.0517669	1416.6666695	n/a	n/a	n/a	n/a	n/a	n/a	n/a	"2020-11-18 13:45:38.415104"	"2020-11-18 13:45:39.918084"	24	5.70352488333333
"S201118"	"Response_Inhibition"	"LEFT"	"LEFT"	333.517599999993	633.3333346	n/a	n/a	n/a	n/a	n/a	n/a	n/a	"2020-11-18 13:45:40.561317"	"2020-11-18 13:45:41.102717"	25	5.70352488333333
"S201118"	"Response_Inhibition"	"LEFT"	"LEFT"	370.242267100011	1050.0000021	n/a	n/a	n/a	n/a	n/a	n/a	n/a	"2020-11-18 13:45:42.161523"	"2020-11-18 13:45:42.742565"	26	5.70352488333333
"S201118"	"Response_Inhibition"	"RIGHT"	"RIGHT"	559.05469999999	616.6666679	n/a	n/a	n/a	n/a	n/a	n/a	n/a	"2020-11-18 13:45:43.367469"	"2020-11-18 13:45:44.134912"	27	5.70352488333333
"S201118"	"Response_Inhibition"	"LEFT"	"Time_Max_Exceeded"	1500.05596690003	800.0000016	n/a	n/a	n/a	n/a	n/a	n/a	n/a	"2020-11-18 13:45:44.943104"	"2020-11-18 13:45:46.446503"	28	5.70352488333333
"S201118"	"Response_Inhibition"	"LEFT"	"Time_Max_Exceeded"	1500.04996699998	850.0000017	n/a	n/a	n/a	n/a	n/a	n/a	n/a	"2020-11-18 13:45:47.306410"	"2020-11-18 13:45:48.809923"	29	5.70352488333333
"S201118"	"Response_Inhibition"	"LEFT"	"LEFT"	390.40030000001	533.3333344	n/a	n/a	n/a	n/a	n/a	n/a	n/a	"2020-11-18 13:45:49.351591"	"2020-11-18 13:45:49.950870"	30	5.70352488333333
"S201118"	"Response_Inhibition"	"RIGHT"	"RIGHT"	506.358700000021	516.6666677	n/a	n/a	n/a	n/a	n/a	n/a	n/a	"2020-11-18 13:45:50.476515"	"2020-11-18 13:45:51.190669"	31	5.70352488333333
"S201118"	"Response_Inhibition"	"RIGHT"	"RIGHT"	387.924300000009	1483.3333363	n/a	n/a	n/a	n/a	n/a	n/a	n/a	"2020-11-18 13:45:52.682943"	"2020-11-18 13:45:53.278344"	32	5.70352488333333
"S201118"	"Response_Inhibition"	"LEFT"	"LEFT"	364.898499999981	1066.6666688	n/a	n/a	n/a	n/a	n/a	n/a	n/a	"2020-11-18 13:45:54.353378"	"2020-11-18 13:45:54.926881"	33	5.70352488333333
"S201118"	"Response_Inhibition"	"RIGHT"	"Time_Max_Exceeded"	1500.05879999998	1100.0000022	n/a	n/a	n/a	n/a	n/a	n/a	n/a	"2020-11-18 13:45:56.034797"	"2020-11-18 13:45:57.535696"	34	5.70352488333333
"S201118"	"Response_Inhibition"	"RIGHT"	"RIGHT"	424.436133899999	1266.6666692	n/a	n/a	n/a	n/a	n/a	n/a	n/a	"2020-11-18 13:45:58.810577"	"2020-11-18 13:45:59.446194"	35	5.70352488333333
"S201118"	"Response_Inhibition"	"LEFT"	"LEFT"	412.691199999983	883.3333351	n/a	n/a	n/a	n/a	n/a	n/a	n/a	"2020-11-18 13:46:00.337637"	"2020-11-18 13:46:00.958347"	36	5.70352488333333
"S201118"	"Response_Inhibition"	"RIGHT"	"RIGHT"	538.276599999961	1133.3333356	n/a	n/a	n/a	n/a	n/a	n/a	n/a	"2020-11-18 13:46:02.100206"	"2020-11-18 13:46:02.846767"	37	5.70352488333333
"S201118"	"Response_Inhibition"	"LEFT"	"LEFT"	372.132500000021	1283.3333359	n/a	n/a	n/a	n/a	n/a	n/a	n/a	"2020-11-18 13:46:04.138693"	"2020-11-18 13:46:04.717800"	38	5.70352488333333
"S201118"	"Response_Inhibition"	"RIGHT"	"RIGHT"	595.894299999998	1316.6666693	n/a	n/a	n/a	n/a	n/a	n/a	n/a	"2020-11-18 13:46:06.042811"	"2020-11-18 13:46:06.846881"	39	5.70352488333333
"S201118"	"Response_Inhibition"	"LEFT"	"LEFT"	378.304300599957	1450.0000029	n/a	n/a	n/a	n/a	n/a	n/a	n/a	"2020-11-18 13:46:08.305308"	"2020-11-18 13:46:08.893507"	40	5.70352488333333
"S201118"	"Response_Inhibition"	"RIGHT"	"Time_Max_Exceeded"	1500.05780039999	1150.0000023	n/a	n/a	n/a	n/a	n/a	n/a	n/a	"2020-11-18 13:46:10.051803"	"2020-11-18 13:46:11.555958"	41	5.70352488333333
"S201118"	"Response_Inhibition"	"LEFT"	"LEFT"	426.119200000016	966.6666686	n/a	n/a	n/a	n/a	n/a	n/a	n/a	"2020-11-18 13:46:12.532774"	"2020-11-18 13:46:13.166248"	42	5.70352488333333
"S201118"	"Response_Inhibition"	"RIGHT"	"Time_Max_Exceeded"	1500.05916720004	950.0000019	n/a	n/a	n/a	n/a	n/a	n/a	n/a	"2020-11-18 13:46:14.124334"	"2020-11-18 13:46:15.627581"	43	5.70352488333333
"S201118"	"Response_Inhibition"	"LEFT"	"LEFT"	361.248299999943	1216.6666691	n/a	n/a	n/a	n/a	n/a	n/a	n/a	"2020-11-18 13:46:16.853313"	"2020-11-18 13:46:17.422561"	44	5.70352488333333
"S201118"	"Response_Inhibition"	"RIGHT"	"RIGHT"	508.823099999972	1266.6666692	n/a	n/a	n/a	n/a	n/a	n/a	n/a	"2020-11-18 13:46:18.697590"	"2020-11-18 13:46:19.414936"	45	5.70352488333333
"S201118"	"Response_Inhibition"	"LEFT"	"LEFT"	456.463800000051	1166.666669	n/a	n/a	n/a	n/a	n/a	n/a	n/a	"2020-11-18 13:46:20.589588"	"2020-11-18 13:46:21.254862"	46	5.70352488333333
"S201118"	"Response_Inhibition"	"RIGHT"	"RIGHT"	406.202899999926	1033.3333354	n/a	n/a	n/a	n/a	n/a	n/a	n/a	"2020-11-18 13:46:22.296179"	"2020-11-18 13:46:22.910713"	47	5.70352488333333
"S201118"	"Response_Inhibition"	"RIGHT"	"RIGHT"	536.691700000006	566.6666678	n/a	n/a	n/a	n/a	n/a	n/a	n/a	"2020-11-18 13:46:23.485721"	"2020-11-18 13:46:24.231338"	48	5.70352488333333
"S201118"	"Response_Inhibition"	"RIGHT"	"RIGHT"	416.82830000002	1150.0000023	n/a	n/a	n/a	n/a	n/a	n/a	n/a	"2020-11-18 13:46:25.389409"	"2020-11-18 13:46:26.013746"	49	5.70352488333333
"S201118"	"Response_Inhibition"	"LEFT"	"LEFT"	556.05950000006	516.6666677	n/a	n/a	n/a	n/a	n/a	n/a	n/a	"2020-11-18 13:46:26.538542"	"2020-11-18 13:46:27.303090"	50	5.70352488333333
"S201118"	"Response_Inhibition"	"RIGHT"	"RIGHT"	428.568100000007	666.666668	n/a	n/a	n/a	n/a	n/a	n/a	n/a	"2020-11-18 13:46:27.978328"	"2020-11-18 13:46:28.614817"	51	5.70352488333333
"S201118"	"Response_Inhibition"	"RIGHT"	"RIGHT"	463.063467200002	733.3333348	n/a	n/a	n/a	n/a	n/a	n/a	n/a	"2020-11-18 13:46:29.356826"	"2020-11-18 13:46:30.030823"	52	5.70352488333333
"S201118"	"Response_Inhibition"	"LEFT"	"LEFT"	436.74969999995	1266.6666692	n/a	n/a	n/a	n/a	n/a	n/a	n/a	"2020-11-18 13:46:31.306270"	"2020-11-18 13:46:31.950769"	53	5.70352488333333
"S201118"	"Response_Inhibition"	"RIGHT"	"RIGHT"	467.646900000091	883.3333351	n/a	n/a	n/a	n/a	n/a	n/a	n/a	"2020-11-18 13:46:32.842979"	"2020-11-18 13:46:33.517467"	54	5.70352488333333
"S201118"	"Response_Inhibition"	"LEFT"	"LEFT"	327.243600000088	633.3333346	n/a	n/a	n/a	n/a	n/a	n/a	n/a	"2020-11-18 13:46:34.159516"	"2020-11-18 13:46:34.695123"	55	5.70352488333333
"S201118"	"Response_Inhibition"	"LEFT"	"LEFT"	320.535333899979	683.3333347	n/a	n/a	n/a	n/a	n/a	n/a	n/a	"2020-11-18 13:46:35.386936"	"2020-11-18 13:46:35.919585"	56	5.70352488333333
"S201118"	"Response_Inhibition"	"RIGHT"	"RIGHT"	553.886900000066	916.6666685	n/a	n/a	n/a	n/a	n/a	n/a	n/a	"2020-11-18 13:46:36.845130"	"2020-11-18 13:46:37.607151"	57	5.70352488333333
"S201118"	"Response_Inhibition"	"RIGHT"	"RIGHT"	579.599400000006	1083.3333355	n/a	n/a	n/a	n/a	n/a	n/a	n/a	"2020-11-18 13:46:38.699174"	"2020-11-18 13:46:39.486278"	58	5.70352488333333
"S201118"	"Response_Inhibition"	"LEFT"	"LEFT"	402.011899999934	750.0000015	n/a	n/a	n/a	n/a	n/a	n/a	n/a	"2020-11-18 13:46:40.244401"	"2020-11-18 13:46:40.853163"	59	5.70352488333333
"S201118"	"Response_Inhibition"	"RIGHT"	"RIGHT"	470.599200000038	866.6666684	n/a	n/a	n/a	n/a	n/a	n/a	n/a	"2020-11-18 13:46:41.727938"	"2020-11-18 13:46:42.406341"	60	5.70352488333333
"S201118"	"Response_Inhibition"	"RIGHT"	"RIGHT"	420.717600600035	800.0000016	n/a	n/a	n/a	n/a	n/a	n/a	n/a	"2020-11-18 13:46:43.214827"	"2020-11-18 13:46:43.847704"	61	5.70352488333333
"S201118"	"Response_Inhibition"	"LEFT"	"LEFT"	281.709599999999	1316.6666693	n/a	n/a	n/a	n/a	n/a	n/a	n/a	"2020-11-18 13:46:45.172684"	"2020-11-18 13:46:45.663139"	62	5.70352488333333
"S201118"	"Response_Inhibition"	"RIGHT"	"Time_Max_Exceeded"	1500.04726670003	1100.0000022	n/a	n/a	n/a	n/a	n/a	n/a	n/a	"2020-11-18 13:46:46.771545"	"2020-11-18 13:46:48.274807"	63	5.70352488333333
"S201118"	"Response_Inhibition"	"RIGHT"	"RIGHT"	516.042200000015	966.6666686	n/a	n/a	n/a	n/a	n/a	n/a	n/a	"2020-11-18 13:46:49.250557"	"2020-11-18 13:46:49.974693"	64	5.70352488333333
"S201118"	"Response_Inhibition"	"LEFT"	"LEFT"	313.649800000007	933.3333352	n/a	n/a	n/a	n/a	n/a	n/a	n/a	"2020-11-18 13:46:50.917365"	"2020-11-18 13:46:51.438929"	65	5.70352488333333
"S201118"	"Response_Inhibition"	"RIGHT"	"RIGHT"	511.381800000095	1000.000002	n/a	n/a	n/a	n/a	n/a	n/a	n/a	"2020-11-18 13:46:52.447317"	"2020-11-18 13:46:53.166413"	66	5.70352488333333
"S201118"	"Response_Inhibition"	"RIGHT"	"RIGHT"	421.026400500073	583.3333345	n/a	n/a	n/a	n/a	n/a	n/a	n/a	"2020-11-18 13:46:53.758376"	"2020-11-18 13:46:54.389596"	67	5.70352488333333
"S201118"	"Response_Inhibition"	"RIGHT"	"RIGHT"	402.004900000065	1366.6666694	n/a	n/a	n/a	n/a	n/a	n/a	n/a	"2020-11-18 13:46:55.764550"	"2020-11-18 13:46:56.374517"	68	5.70352488333333
"S201118"	"Response_Inhibition"	"RIGHT"	"RIGHT"	419.726900000001	500.000001	n/a	n/a	n/a	n/a	n/a	n/a	n/a	"2020-11-18 13:46:56.882956"	"2020-11-18 13:46:57.510281"	69	5.70352488333333
"S201118"	"Response_Inhibition"	"RIGHT"	"RIGHT"	401.22400050007	683.3333347	n/a	n/a	n/a	n/a	n/a	n/a	n/a	"2020-11-18 13:46:58.202215"	"2020-11-18 13:46:58.814689"	70	5.70352488333333
"S201118"	"Response_Inhibition"	"LEFT"	"LEFT"	440.38050000006	783.3333349	n/a	n/a	n/a	n/a	n/a	n/a	n/a	"2020-11-18 13:46:59.605974"	"2020-11-18 13:47:00.254446"	71	5.70352488333333
"S201118"	"Response_Inhibition"	"RIGHT"	"Time_Max_Exceeded"	1500.06080060007	1050.0000021	n/a	n/a	n/a	n/a	n/a	n/a	n/a	"2020-11-18 13:47:01.312759"	"2020-11-18 13:47:02.815566"	72	5.70352488333333
"S201118"	"Response_Inhibition"	"RIGHT"	"RIGHT"	550.468099999989	1183.3333357	n/a	n/a	n/a	n/a	n/a	n/a	n/a	"2020-11-18 13:47:04.008301"	"2020-11-18 13:47:04.765629"	73	5.70352488333333
"S201118"	"Response_Inhibition"	"LEFT"	"LEFT"	354.16586730007	866.6666684	n/a	n/a	n/a	n/a	n/a	n/a	n/a	"2020-11-18 13:47:05.641021"	"2020-11-18 13:47:06.206963"	74	5.70352488333333
"S201118"	"Response_Inhibition"	"RIGHT"	"RIGHT"	450.450700000033	1116.6666689	n/a	n/a	n/a	n/a	n/a	n/a	n/a	"2020-11-18 13:47:07.332564"	"2020-11-18 13:47:07.989233"	75	5.70352488333333
"S201118"	"Response_Inhibition"	"LEFT"	"LEFT"	331.647599999997	1133.3333356	n/a	n/a	n/a	n/a	n/a	n/a	n/a	"2020-11-18 13:47:09.131053"	"2020-11-18 13:47:09.670919"	76	5.70352488333333
"S201118"	"Response_Inhibition"	"RIGHT"	"Time_Max_Exceeded"	1500.05640029997	1216.6666691	n/a	n/a	n/a	n/a	n/a	n/a	n/a	"2020-11-18 13:47:10.896303"	"2020-11-18 13:47:12.399591"	77	5.70352488333333
"S201118"	"Response_Inhibition"	"LEFT"	"Time_Max_Exceeded"	1500.06240020002	566.6666678	n/a	n/a	n/a	n/a	n/a	n/a	n/a	"2020-11-18 13:47:12.974590"	"2020-11-18 13:47:14.478557"	78	5.70352488333333
"S201118"	"Response_Inhibition"	"LEFT"	"LEFT"	490.305199999966	733.3333348	n/a	n/a	n/a	n/a	n/a	n/a	n/a	"2020-11-18 13:47:15.219936"	"2020-11-18 13:47:15.918884"	79	5.70352488333333
"S201118"	"Response_Inhibition"	"LEFT"	"Time_Max_Exceeded"	1500.10623350007	1250.0000025	n/a	n/a	n/a	n/a	n/a	n/a	n/a	"2020-11-18 13:47:17.177487"	"2020-11-18 13:47:18.680175"	80	5.70352488333333
"S201118"	"Response_Inhibition"	"LEFT"	"Time_Max_Exceeded"	1500.06773339995	950.0000019	n/a	n/a	n/a	n/a	n/a	n/a	n/a	"2020-11-18 13:47:19.639552"	"2020-11-18 13:47:21.142724"	81	5.70352488333333
"S201118"	"Response_Inhibition"	"LEFT"	"Time_Max_Exceeded"	1500.05013350002	1000.000002	n/a	n/a	n/a	n/a	n/a	n/a	n/a	"2020-11-18 13:47:22.151971"	"2020-11-18 13:47:23.655632"	82	5.70352488333333
"S201118"	"Response_Inhibition"	"RIGHT"	"RIGHT"	440.430300000003	933.3333352	n/a	n/a	n/a	n/a	n/a	n/a	n/a	"2020-11-18 13:47:24.598429"	"2020-11-18 13:47:25.246356"	83	5.70352488333333
"S201118"	"Response_Inhibition"	"RIGHT"	"RIGHT"	585.89470000004	950.0000019	n/a	n/a	n/a	n/a	n/a	n/a	n/a	"2020-11-18 13:47:26.204684"	"2020-11-18 13:47:26.998953"	84	5.70352488333333
"S201118"	"Response_Inhibition"	"RIGHT"	"RIGHT"	428.47590000008	1066.6666688	n/a	n/a	n/a	n/a	n/a	n/a	n/a	"2020-11-18 13:47:28.074423"	"2020-11-18 13:47:28.710716"	85	5.70352488333333
"S201118"	"Response_Inhibition"	"LEFT"	"LEFT"	556.597900000043	1466.6666696	n/a	n/a	n/a	n/a	n/a	n/a	n/a	"2020-11-18 13:47:30.185694"	"2020-11-18 13:47:30.950250"	86	5.70352488333333
"S201118"	"Response_Inhibition"	"LEFT"	"LEFT"	445.355867200008	583.3333345	n/a	n/a	n/a	n/a	n/a	n/a	n/a	"2020-11-18 13:47:31.542464"	"2020-11-18 13:47:32.198371"	87	5.70352488333333
"S201118"	"Response_Inhibition"	"LEFT"	"LEFT"	524.430800000005	683.3333347	n/a	n/a	n/a	n/a	n/a	n/a	n/a	"2020-11-18 13:47:32.889749"	"2020-11-18 13:47:33.623045"	88	5.70352488333333
"S201118"	"Response_Inhibition"	"LEFT"	"LEFT"	543.84570000002	783.3333349	n/a	n/a	n/a	n/a	n/a	n/a	n/a	"2020-11-18 13:47:34.414612"	"2020-11-18 13:47:35.167681"	89	5.70352488333333
"S201118"	"Response_Inhibition"	"LEFT"	"Time_Max_Exceeded"	1500.05533370003	533.3333344	n/a	n/a	n/a	n/a	n/a	n/a	n/a	"2020-11-18 13:47:35.709189"	"2020-11-18 13:47:37.213074"	90	5.70352488333333
"S201118"	"Response_Inhibition"	"LEFT"	"LEFT"	515.617499999962	733.3333348	n/a	n/a	n/a	n/a	n/a	n/a	n/a	"2020-11-18 13:47:37.955164"	"2020-11-18 13:47:38.678457"	91	5.70352488333333
"S201118"	"Response_Inhibition"	"RIGHT"	"Time_Max_Exceeded"	1500.05600019995	650.0000013	n/a	n/a	n/a	n/a	n/a	n/a	n/a	"2020-11-18 13:47:39.336814"	"2020-11-18 13:47:40.840299"	92	5.70352488333333
"S201118"	"Response_Inhibition"	"LEFT"	"LEFT"	371.997000399919	766.6666682	n/a	n/a	n/a	n/a	n/a	n/a	n/a	"2020-11-18 13:47:41.614917"	"2020-11-18 13:47:42.199099"	93	5.70352488333333
"S201118"	"Response_Inhibition"	"RIGHT"	"RIGHT"	614.083800000003	816.6666683	n/a	n/a	n/a	n/a	n/a	n/a	n/a	"2020-11-18 13:47:43.024538"	"2020-11-18 13:47:43.846715"	94	5.70352488333333
"S201118"	"Response_Inhibition"	"LEFT"	"LEFT"	479.937999999947	1383.3333361	n/a	n/a	n/a	n/a	n/a	n/a	n/a	"2020-11-18 13:47:45.238777"	"2020-11-18 13:47:45.926820"	95	5.70352488333333
"S201118"	"Response_Inhibition"	"LEFT"	"Time_Max_Exceeded"	1500.04746680001	716.6666681	n/a	n/a	n/a	n/a	n/a	n/a	n/a	"2020-11-18 13:47:46.652267"	"2020-11-18 13:47:48.155097"	96	5.70352488333333
"S201118"	"Response_Inhibition"	"RIGHT"	"RIGHT"	478.360400000042	1300.0000026	n/a	n/a	n/a	n/a	n/a	n/a	n/a	"2020-11-18 13:47:49.464274"	"2020-11-18 13:47:50.150493"	97	5.70352488333333
"S201118"	"Response_Inhibition"	"RIGHT"	"Time_Max_Exceeded"	1500.05950009995	1333.333336	n/a	n/a	n/a	n/a	n/a	n/a	n/a	"2020-11-18 13:47:51.492639"	"2020-11-18 13:47:52.995097"	98	5.70352488333333
"S201118"	"Response_Inhibition"	"LEFT"	"LEFT"	385.507899999993	1000.000002	n/a	n/a	n/a	n/a	n/a	n/a	n/a	"2020-11-18 13:47:54.005359"	"2020-11-18 13:47:54.599030"	99	5.70352488333333
"S201118"	"Response_Inhibition"	"LEFT"	"LEFT"	588.594299999954	1050.0000021	n/a	n/a	n/a	n/a	n/a	n/a	n/a	"2020-11-18 13:47:55.658048"	"2020-11-18 13:47:56.454936"	100	5.70352488333333
"S201118"	"Response_Inhibition"	"RIGHT"	"RIGHT"	502.609699999994	1016.6666687	n/a	n/a	n/a	n/a	n/a	n/a	n/a	"2020-11-18 13:47:57.480380"	"2020-11-18 13:47:58.190279"	101	5.70352488333333
"S201118"	"Response_Inhibition"	"RIGHT"	"RIGHT"	475.217799999996	716.6666681	n/a	n/a	n/a	n/a	n/a	n/a	n/a	"2020-11-18 13:47:58.915657"	"2020-11-18 13:47:59.598808"	102	5.70352488333333
"S201118"	"Response_Inhibition"	"LEFT"	"LEFT"	532.471099999952	666.666668	n/a	n/a	n/a	n/a	n/a	n/a	n/a	"2020-11-18 13:48:00.274147"	"2020-11-18 13:48:01.014654"	103	5.70352488333333
"S201118"	"Response_Inhibition"	"RIGHT"	"RIGHT"	576.983899999959	1166.666669	n/a	n/a	n/a	n/a	n/a	n/a	n/a	"2020-11-18 13:48:02.189677"	"2020-11-18 13:48:02.974420"	104	5.70352488333333
"S201118"	"Response_Inhibition"	"RIGHT"	"Time_Max_Exceeded"	1500.05713369998	633.3333346	n/a	n/a	n/a	n/a	n/a	n/a	n/a	"2020-11-18 13:48:03.615349"	"2020-11-18 13:48:05.119083"	105	5.70352488333333
"S201118"	"Response_Inhibition"	"LEFT"	"LEFT"	429.385199999956	1016.6666687	n/a	n/a	n/a	n/a	n/a	n/a	n/a	"2020-11-18 13:48:06.145385"	"2020-11-18 13:48:06.782899"	106	5.70352488333333
"S201118"	"Response_Inhibition"	"LEFT"	"LEFT"	375.399399999992	1200.0000024	n/a	n/a	n/a	n/a	n/a	n/a	n/a	"2020-11-18 13:48:07.990962"	"2020-11-18 13:48:08.574851"	107	5.70352488333333
"S201118"	"Response_Inhibition"	"RIGHT"	"RIGHT"	658.974099999909	900.0000018	n/a	n/a	n/a	n/a	n/a	n/a	n/a	"2020-11-18 13:48:09.483719"	"2020-11-18 13:48:10.350932"	108	5.70352488333333
"S201118"	"Response_Inhibition"	"LEFT"	"Time_Max_Exceeded"	1500.05993359999	1150.0000023	n/a	n/a	n/a	n/a	n/a	n/a	n/a	"2020-11-18 13:48:11.509538"	"2020-11-18 13:48:13.012333"	109	5.70352488333333
"S201118"	"Response_Inhibition"	"RIGHT"	"Time_Max_Exceeded"	1500.05086679998	983.3333353	n/a	n/a	n/a	n/a	n/a	n/a	n/a	"2020-11-18 13:48:14.004504"	"2020-11-18 13:48:15.508884"	110	5.70352488333333
"S201118"	"Response_Inhibition"	"LEFT"	"LEFT"	439.968900000054	833.333335	n/a	n/a	n/a	n/a	n/a	n/a	n/a	"2020-11-18 13:48:16.350312"	"2020-11-18 13:48:16.998693"	111	5.70352488333333
"S201118"	"Response_Inhibition"	"LEFT"	"LEFT"	449.907099999905	1333.333336	n/a	n/a	n/a	n/a	n/a	n/a	n/a	"2020-11-18 13:48:18.340489"	"2020-11-18 13:48:18.998343"	112	5.70352488333333
"S201118"	"Response_Inhibition"	"LEFT"	"LEFT"	376.614600000039	950.0000019	n/a	n/a	n/a	n/a	n/a	n/a	n/a	"2020-11-18 13:48:19.958275"	"2020-11-18 13:48:20.543014"	113	5.70352488333333
"S201118"	"Response_Inhibition"	"LEFT"	"Time_Max_Exceeded"	1500.06810009995	650.0000013	n/a	n/a	n/a	n/a	n/a	n/a	n/a	"2020-11-18 13:48:21.201563"	"2020-11-18 13:48:22.705488"	114	5.70352488333333
"S201118"	"Response_Inhibition"	"LEFT"	"LEFT"	415.494899999999	1116.6666689	n/a	n/a	n/a	n/a	n/a	n/a	n/a	"2020-11-18 13:48:23.831216"	"2020-11-18 13:48:24.453658"	115	5.70352488333333
"S201118"	"Response_Inhibition"	"LEFT"	"LEFT"	623.709200000008	616.6666679	n/a	n/a	n/a	n/a	n/a	n/a	n/a	"2020-11-18 13:48:25.079163"	"2020-11-18 13:48:25.910754"	116	5.70352488333333
"S201118"	"Response_Inhibition"	"RIGHT"	"RIGHT"	454.872599999931	1216.6666691	n/a	n/a	n/a	n/a	n/a	n/a	n/a	"2020-11-18 13:48:27.135983"	"2020-11-18 13:48:27.797508"	117	5.70352488333333
"S201118"	"Response_Inhibition"	"LEFT"	"LEFT"	425.527167100014	900.0000018	n/a	n/a	n/a	n/a	n/a	n/a	n/a	"2020-11-18 13:48:28.706040"	"2020-11-18 13:48:29.341978"	118	5.70352488333333
"S201118"	"Response_Inhibition"	"LEFT"	"Time_Max_Exceeded"	1500.05926689998	1416.6666695	n/a	n/a	n/a	n/a	n/a	n/a	n/a	"2020-11-18 13:48:30.766909"	"2020-11-18 13:48:32.270319"	119	5.70352488333333
"S201118"	"Response_Inhibition"	"LEFT"	"LEFT"	464.888299999984	1150.0000023	n/a	n/a	n/a	n/a	n/a	n/a	n/a	"2020-11-18 13:48:33.430040"	"2020-11-18 13:48:34.102200"	120	5.70352488333333
"S201118"	"Response_Inhibition"	"RIGHT"	"RIGHT"	361.064199999987	783.3333349	n/a	n/a	n/a	n/a	n/a	n/a	n/a	"2020-11-18 13:48:34.893240"	"2020-11-18 13:48:35.462644"	121	5.70352488333333
"S201118"	"Response_Inhibition"	"RIGHT"	"RIGHT"	451.611599999978	700.0000014	n/a	n/a	n/a	n/a	n/a	n/a	n/a	"2020-11-18 13:48:36.170417"	"2020-11-18 13:48:36.830883"	122	5.70352488333333
"S201118"	"Response_Inhibition"	"RIGHT"	"RIGHT"	390.012099999922	633.3333346	n/a	n/a	n/a	n/a	n/a	n/a	n/a	"2020-11-18 13:48:37.472798"	"2020-11-18 13:48:38.070756"	123	5.70352488333333
"S201118"	"Response_Inhibition"	"LEFT"	"LEFT"	403.84640000002	1266.6666692	n/a	n/a	n/a	n/a	n/a	n/a	n/a	"2020-11-18 13:48:39.346305"	"2020-11-18 13:48:39.959084"	124	5.70352488333333
"S201118"	"Response_Inhibition"	"RIGHT"	"RIGHT"	527.479299999982	583.3333345	n/a	n/a	n/a	n/a	n/a	n/a	n/a	"2020-11-18 13:48:40.550805"	"2020-11-18 13:48:41.286233"	125	5.70352488333333
"S201118"	"Response_Inhibition"	"RIGHT"	"RIGHT"	598.812299999963	1400.0000028	n/a	n/a	n/a	n/a	n/a	n/a	n/a	"2020-11-18 13:48:42.695364"	"2020-11-18 13:48:43.502901"	126	5.70352488333333
"S201118"	"Response_Inhibition"	"LEFT"	"LEFT"	451.127900000074	1100.0000022	n/a	n/a	n/a	n/a	n/a	n/a	n/a	"2020-11-18 13:48:44.611794"	"2020-11-18 13:48:45.270957"	127	5.70352488333333
"S201118"	"Response_Inhibition"	"LEFT"	"LEFT"	465.026800000032	1350.0000027	n/a	n/a	n/a	n/a	n/a	n/a	n/a	"2020-11-18 13:48:46.629088"	"2020-11-18 13:48:47.302966"	128	5.70352488333333
"S201118"	"Response_Inhibition"	"RIGHT"	"Time_Max_Exceeded"	1500.0533000001	1316.6666693	n/a	n/a	n/a	n/a	n/a	n/a	n/a	"2020-11-18 13:48:48.628034"	"2020-11-18 13:48:50.128215"	129	5.70352488333333
"S201118"	"Response_Inhibition"	"LEFT"	"Time_Max_Exceeded"	1500.0547668	1216.6666691	n/a	n/a	n/a	n/a	n/a	n/a	n/a	"2020-11-18 13:48:51.354311"	"2020-11-18 13:48:52.857540"	130	5.70352488333333
"S201118"	"Response_Inhibition"	"RIGHT"	"RIGHT"	417.116167300082	783.3333349	n/a	n/a	n/a	n/a	n/a	n/a	n/a	"2020-11-18 13:48:53.650688"	"2020-11-18 13:48:54.278565"	131	5.70352488333333
"S201118"	"Response_Inhibition"	"LEFT"	"Time_Max_Exceeded"	1500.04813349991	1316.6666693	n/a	n/a	n/a	n/a	n/a	n/a	n/a	"2020-11-18 13:48:55.603339"	"2020-11-18 13:48:57.107299"	132	5.70352488333333
"S201118"	"Response_Inhibition"	"LEFT"	"LEFT"	446.456000000012	1100.0000022	n/a	n/a	n/a	n/a	n/a	n/a	n/a	"2020-11-18 13:48:58.216261"	"2020-11-18 13:48:58.870921"	133	5.70352488333333
"S201118"	"Response_Inhibition"	"LEFT"	"LEFT"	562.840800000004	916.6666685	n/a	n/a	n/a	n/a	n/a	n/a	n/a	"2020-11-18 13:48:59.795700"	"2020-11-18 13:49:00.566228"	134	5.70352488333333
"S201118"	"Response_Inhibition"	"LEFT"	"LEFT"	413.451067000024	1183.3333357	n/a	n/a	n/a	n/a	n/a	n/a	n/a	"2020-11-18 13:49:01.757745"	"2020-11-18 13:49:02.382642"	135	5.70352488333333
"S201118"	"Response_Inhibition"	"LEFT"	"Time_Max_Exceeded"	1500.04950009998	983.3333353	n/a	n/a	n/a	n/a	n/a	n/a	n/a	"2020-11-18 13:49:03.373650"	"2020-11-18 13:49:04.877330"	136	5.70352488333333
"S201118"	"Response_Inhibition"	"LEFT"	"LEFT"	605.084300000044	1466.6666696	n/a	n/a	n/a	n/a	n/a	n/a	n/a	"2020-11-18 13:49:06.353458"	"2020-11-18 13:49:07.166709"	137	5.70352488333333
"S201118"	"Response_Inhibition"	"LEFT"	"LEFT"	427.428200000008	700.0000014	n/a	n/a	n/a	n/a	n/a	n/a	n/a	"2020-11-18 13:49:07.875368"	"2020-11-18 13:49:08.510874"	138	5.70352488333333
"S201118"	"Response_Inhibition"	"RIGHT"	"RIGHT"	501.445500000045	850.0000017	n/a	n/a	n/a	n/a	n/a	n/a	n/a	"2020-11-18 13:49:09.369226"	"2020-11-18 13:49:10.078946"	139	5.70352488333333
"S201118"	"Response_Inhibition"	"RIGHT"	"RIGHT"	483.738499999959	1283.3333359	n/a	n/a	n/a	n/a	n/a	n/a	n/a	"2020-11-18 13:49:11.370760"	"2020-11-18 13:49:12.062621"	140	5.70352488333333
"S201118"	"Response_Inhibition"	"LEFT"	"LEFT"	627.393299999994	500.000001	n/a	n/a	n/a	n/a	n/a	n/a	n/a	"2020-11-18 13:49:12.571280"	"2020-11-18 13:49:13.406830"	141	5.70352488333333
"S201118"	"Response_Inhibition"	"LEFT"	"LEFT"	445.982400000048	850.0000017	n/a	n/a	n/a	n/a	n/a	n/a	n/a	"2020-11-18 13:49:14.265066"	"2020-11-18 13:49:14.918354"	142	5.70352488333333
"S201118"	"Response_Inhibition"	"RIGHT"	"RIGHT"	604.509900000039	1466.6666696	n/a	n/a	n/a	n/a	n/a	n/a	n/a	"2020-11-18 13:49:16.394456"	"2020-11-18 13:49:17.206662"	143	5.70352488333333
"S201118"	"Response_Inhibition"	"RIGHT"	"RIGHT"	565.667899999994	833.333335	n/a	n/a	n/a	n/a	n/a	n/a	n/a	"2020-11-18 13:49:18.048871"	"2020-11-18 13:49:18.823021"	144	5.70352488333333
"S201118"	"Response_Inhibition"	"RIGHT"	"RIGHT"	513.418199999933	1350.0000027	n/a	n/a	n/a	n/a	n/a	n/a	n/a	"2020-11-18 13:49:20.181518"	"2020-11-18 13:49:20.901590"	145	5.70352488333333
"S201118"	"Response_Inhibition"	"LEFT"	"LEFT"	656.08670000006	816.6666683	n/a	n/a	n/a	n/a	n/a	n/a	n/a	"2020-11-18 13:49:21.726545"	"2020-11-18 13:49:22.590983"	146	5.70352488333333
"S201118"	"Response_Inhibition"	"RIGHT"	"Time_Max_Exceeded"	1500.05953370006	550.0000011	n/a	n/a	n/a	n/a	n/a	n/a	n/a	"2020-11-18 13:49:23.149462"	"2020-11-18 13:49:24.653850"	147	5.70352488333333
"S201118"	"Response_Inhibition"	"LEFT"	"LEFT"	441.471299999989	1366.6666694	n/a	n/a	n/a	n/a	n/a	n/a	n/a	"2020-11-18 13:49:26.029644"	"2020-11-18 13:49:26.678537"	148	5.70352488333333
"S201118"	"Response_Inhibition"	"LEFT"	"LEFT"	431.818399999997	600.0000012	n/a	n/a	n/a	n/a	n/a	n/a	n/a	"2020-11-18 13:49:27.286982"	"2020-11-18 13:49:27.926173"	149	5.70352488333333
"S201118"	"Response_Inhibition"	"RIGHT"	"RIGHT"	602.758900000026	733.3333348	n/a	n/a	n/a	n/a	n/a	n/a	n/a	"2020-11-18 13:49:28.668269"	"2020-11-18 13:49:29.478224"	150	5.70352488333333
"S201118"	"Response_Inhibition"	"RIGHT"	"RIGHT"	453.858999999966	1050.0000021	n/a	n/a	n/a	n/a	n/a	n/a	n/a	"2020-11-18 13:49:30.536635"	"2020-11-18 13:49:31.198178"	151	5.70352488333333
"S201118"	"Response_Inhibition"	"LEFT"	"Time_Max_Exceeded"	1500.04603379997	1083.3333355	n/a	n/a	n/a	n/a	n/a	n/a	n/a	"2020-11-18 13:49:32.290242"	"2020-11-18 13:49:33.793177"	152	5.70352488333333
"S201118"	"Response_Inhibition"	"LEFT"	"LEFT"	531.244199999946	1416.6666695	n/a	n/a	n/a	n/a	n/a	n/a	n/a	"2020-11-18 13:49:35.219560"	"2020-11-18 13:49:35.958768"	153	5.70352488333333
"S201118"	"Response_Inhibition"	"RIGHT"	"RIGHT"	377.460799999994	750.0000015	n/a	n/a	n/a	n/a	n/a	n/a	n/a	"2020-11-18 13:49:36.717327"	"2020-11-18 13:49:37.302775"	154	5.70352488333333
"S201118"	"Response_Inhibition"	"RIGHT"	"Time_Max_Exceeded"	1500.05226670002	1000.000002	n/a	n/a	n/a	n/a	n/a	n/a	n/a	"2020-11-18 13:49:38.311095"	"2020-11-18 13:49:39.815663"	155	5.70352488333333
"S201118"	"Response_Inhibition"	"LEFT"	"LEFT"	461.055099999953	1033.3333354	n/a	n/a	n/a	n/a	n/a	n/a	n/a	"2020-11-18 13:49:40.857004"	"2020-11-18 13:49:41.525544"	156	5.70352488333333
"S201118"	"Response_Inhibition"	"RIGHT"	"RIGHT"	637.886499999922	1466.6666696	n/a	n/a	n/a	n/a	n/a	n/a	n/a	"2020-11-18 13:49:43.000336"	"2020-11-18 13:49:43.846968"	157	5.70352488333333
"S201118"	"Response_Inhibition"	"RIGHT"	"RIGHT"	495.079700000019	1200.0000024	n/a	n/a	n/a	n/a	n/a	n/a	n/a	"2020-11-18 13:49:45.055192"	"2020-11-18 13:49:45.758745"	158	5.70352488333333
"S201118"	"Response_Inhibition"	"RIGHT"	"RIGHT"	551.554799999963	600.0000012	n/a	n/a	n/a	n/a	n/a	n/a	n/a	"2020-11-18 13:49:46.367308"	"2020-11-18 13:49:47.126770"	159	5.70352488333333
"S201118"	"Response_Inhibition"	"RIGHT"	"RIGHT"	440.330600000038	766.6666682	n/a	n/a	n/a	n/a	n/a	n/a	n/a	"2020-11-18 13:49:47.901913"	"2020-11-18 13:49:48.550281"	160	5.70352488333333
"S201118"	"Response_Selection"	"RIGHT"	"RIGHT"	377.774899999963	933.3333352	n/a	n/a	n/a	n/a	n/a	n/a	n/a	"2020-11-18 13:42:04.301249"	"2020-11-18 13:42:04.886269"	1	2.987148
"S201118"	"Response_Selection"	"LEFT"	"LEFT"	277.318900000012	866.6666684	n/a	n/a	n/a	n/a	n/a	n/a	n/a	"2020-11-18 13:42:05.761022"	"2020-11-18 13:42:06.246361"	2	2.987148
"S201118"	"Response_Selection"	"LEFT"	"LEFT"	276.56189999999	683.3333347	n/a	n/a	n/a	n/a	n/a	n/a	n/a	"2020-11-18 13:42:06.938511"	"2020-11-18 13:42:07.422860"	3	2.987148
"S201118"	"Response_Selection"	"LEFT"	"LEFT"	270.282400000042	833.333335	n/a	n/a	n/a	n/a	n/a	n/a	n/a	"2020-11-18 13:42:08.264242"	"2020-11-18 13:42:08.741607"	4	2.987148
"S201118"	"Response_Selection"	"RIGHT"	"RIGHT"	288.048600000025	1200.0000024	n/a	n/a	n/a	n/a	n/a	n/a	n/a	"2020-11-18 13:42:09.950640"	"2020-11-18 13:42:10.446306"	5	2.987148
"S201118"	"Response_Selection"	"LEFT"	"LEFT"	315.892700000006	500.000001	n/a	n/a	n/a	n/a	n/a	n/a	n/a	"2020-11-18 13:42:10.954489"	"2020-11-18 13:42:11.478533"	6	2.987148
"S201118"	"Response_Selection"	"RIGHT"	"RIGHT"	366.794299999981	1216.6666691	n/a	n/a	n/a	n/a	n/a	n/a	n/a	"2020-11-18 13:42:12.703412"	"2020-11-18 13:42:13.278723"	7	2.987148
"S201118"	"Response_Selection"	"LEFT"	"LEFT"	361.881700000026	733.3333348	n/a	n/a	n/a	n/a	n/a	n/a	n/a	"2020-11-18 13:42:14.020584"	"2020-11-18 13:42:14.590875"	8	2.987148
"S201118"	"Response_Selection"	"LEFT"	"LEFT"	353.137800000013	550.0000011	n/a	n/a	n/a	n/a	n/a	n/a	n/a	"2020-11-18 13:42:15.149711"	"2020-11-18 13:42:15.709771"	9	2.987148
"S201118"	"Response_Selection"	"LEFT"	"LEFT"	288.350499999979	600.0000012	n/a	n/a	n/a	n/a	n/a	n/a	n/a	"2020-11-18 13:42:16.318134"	"2020-11-18 13:42:16.814203"	10	2.987148
"S201118"	"Response_Selection"	"RIGHT"	"RIGHT"	235.147900000015	1116.6666689	n/a	n/a	n/a	n/a	n/a	n/a	n/a	"2020-11-18 13:42:17.939887"	"2020-11-18 13:42:18.382253"	11	2.987148
"S201118"	"Response_Selection"	"RIGHT"	"RIGHT"	329.994499999998	1350.0000027	n/a	n/a	n/a	n/a	n/a	n/a	n/a	"2020-11-18 13:42:19.740433"	"2020-11-18 13:42:20.278389"	12	2.987148
"S201118"	"Response_Selection"	"LEFT"	"LEFT"	368.474800000001	583.3333345	n/a	n/a	n/a	n/a	n/a	n/a	n/a	"2020-11-18 13:42:20.870407"	"2020-11-18 13:42:21.446726"	13	2.987148
"S201118"	"Response_Selection"	"RIGHT"	"RIGHT"	289.024700000027	1166.666669	n/a	n/a	n/a	n/a	n/a	n/a	n/a	"2020-11-18 13:42:22.621841"	"2020-11-18 13:42:23.118593"	14	2.987148
"S201118"	"Response_Selection"	"RIGHT"	"RIGHT"	326.450499999964	1416.6666695	n/a	n/a	n/a	n/a	n/a	n/a	n/a	"2020-11-18 13:42:24.544218"	"2020-11-18 13:42:25.078625"	15	2.987148
"S201118"	"Response_Selection"	"LEFT"	"LEFT"	279.926199999977	1200.0000024	n/a	n/a	n/a	n/a	n/a	n/a	n/a	"2020-11-18 13:42:26.287129"	"2020-11-18 13:42:26.774594"	16	2.987148
"S201118"	"Response_Selection"	"LEFT"	"LEFT"	274.198500000011	1133.3333356	n/a	n/a	n/a	n/a	n/a	n/a	n/a	"2020-11-18 13:42:27.916482"	"2020-11-18 13:42:28.398266"	17	2.987148
"S201118"	"Response_Selection"	"RIGHT"	"RIGHT"	307.270500000016	916.6666685	n/a	n/a	n/a	n/a	n/a	n/a	n/a	"2020-11-18 13:42:29.323258"	"2020-11-18 13:42:29.839128"	18	2.987148
"S201118"	"Response_Selection"	"LEFT"	"LEFT"	258.417400000042	1316.6666693	n/a	n/a	n/a	n/a	n/a	n/a	n/a	"2020-11-18 13:42:31.164379"	"2020-11-18 13:42:31.630258"	19	2.987148
"S201118"	"Response_Selection"	"LEFT"	"LEFT"	276.878399999987	1083.3333355	n/a	n/a	n/a	n/a	n/a	n/a	n/a	"2020-11-18 13:42:32.721546"	"2020-11-18 13:42:33.207146"	20	2.987148
"S201118"	"Response_Selection"	"LEFT"	"RIGHT"	218.889400000023	1300.0000026	n/a	n/a	n/a	n/a	n/a	n/a	n/a	"2020-11-18 13:42:34.515636"	"2020-11-18 13:42:34.943253"	21	2.987148
"S201118"	"Response_Selection"	"RIGHT"	"RIGHT"	379.990500000019	683.3333347	n/a	n/a	n/a	n/a	n/a	n/a	n/a	"2020-11-18 13:42:35.634501"	"2020-11-18 13:42:36.223132"	22	2.987148
"S201118"	"Response_Selection"	"RIGHT"	"RIGHT"	327.727599999946	583.3333345	n/a	n/a	n/a	n/a	n/a	n/a	n/a	"2020-11-18 13:42:36.815319"	"2020-11-18 13:42:37.351177"	23	2.987148
"S201118"	"Response_Selection"	"RIGHT"	"RIGHT"	333.208599999978	1450.0000029	n/a	n/a	n/a	n/a	n/a	n/a	n/a	"2020-11-18 13:42:38.809243"	"2020-11-18 13:42:39.350517"	24	2.987148
"S201118"	"Response_Selection"	"LEFT"	"LEFT"	345.820500000002	533.3333344	n/a	n/a	n/a	n/a	n/a	n/a	n/a	"2020-11-18 13:42:39.893172"	"2020-11-18 13:42:40.446834"	25	2.987148
"S201118"	"Response_Selection"	"LEFT"	"LEFT"	291.393000000028	1500.000003	n/a	n/a	n/a	n/a	n/a	n/a	n/a	"2020-11-18 13:42:41.955633"	"2020-11-18 13:42:42.454300"	26	2.987148
"S201118"	"Response_Selection"	"RIGHT"	"RIGHT"	293.388500000049	1466.6666696	n/a	n/a	n/a	n/a	n/a	n/a	n/a	"2020-11-18 13:42:43.928970"	"2020-11-18 13:42:44.431080"	27	2.987148
"S201118"	"Response_Selection"	"LEFT"	"LEFT"	277.275000000031	1450.0000029	n/a	n/a	n/a	n/a	n/a	n/a	n/a	"2020-11-18 13:42:45.889215"	"2020-11-18 13:42:46.374592"	28	2.987148
"S201118"	"Response_Selection"	"LEFT"	"LEFT"	339.211700000021	916.6666685	n/a	n/a	n/a	n/a	n/a	n/a	n/a	"2020-11-18 13:42:47.299539"	"2020-11-18 13:42:47.846341"	29	2.987148
"S201118"	"Response_Selection"	"RIGHT"	"RIGHT"	347.850999999991	500.000001	n/a	n/a	n/a	n/a	n/a	n/a	n/a	"2020-11-18 13:42:48.354480"	"2020-11-18 13:42:48.910248"	30	2.987148
"S201118"	"Response_Selection"	"LEFT"	"LEFT"	286.364300000002	650.0000013	n/a	n/a	n/a	n/a	n/a	n/a	n/a	"2020-11-18 13:42:49.568547"	"2020-11-18 13:42:50.062923"	31	2.987148
"S201118"	"Response_Selection"	"RIGHT"	"RIGHT"	358.371299999988	833.333335	n/a	n/a	n/a	n/a	n/a	n/a	n/a	"2020-11-18 13:42:50.904578"	"2020-11-18 13:42:51.470561"	32	2.987148
"S201118"	"Response_Selection"	"RIGHT"	"RIGHT"	363.783699999999	1300.0000026	n/a	n/a	n/a	n/a	n/a	n/a	n/a	"2020-11-18 13:42:52.778476"	"2020-11-18 13:42:53.350596"	33	2.987148
"S201118"	"Response_Selection"	"RIGHT"	"RIGHT"	380.878999999993	1266.6666692	n/a	n/a	n/a	n/a	n/a	n/a	n/a	"2020-11-18 13:42:54.626088"	"2020-11-18 13:42:55.213627"	34	2.987148
"S201118"	"Response_Selection"	"RIGHT"	"RIGHT"	310.769300000004	1250.0000025	n/a	n/a	n/a	n/a	n/a	n/a	n/a	"2020-11-18 13:42:56.471727"	"2020-11-18 13:42:56.990217"	35	2.987148
"S201118"	"Response_Selection"	"RIGHT"	"RIGHT"	267.43909999999	1316.6666693	n/a	n/a	n/a	n/a	n/a	n/a	n/a	"2020-11-18 13:42:58.314834"	"2020-11-18 13:42:58.790476"	36	2.987148
"S201118"	"Response_Selection"	"LEFT"	"LEFT"	279.23229999999	1216.6666691	n/a	n/a	n/a	n/a	n/a	n/a	n/a	"2020-11-18 13:43:00.015586"	"2020-11-18 13:43:00.503113"	37	2.987148
"S201118"	"Response_Selection"	"RIGHT"	"RIGHT"	400.998400000049	550.0000011	n/a	n/a	n/a	n/a	n/a	n/a	n/a	"2020-11-18 13:43:01.061399"	"2020-11-18 13:43:01.670320"	38	2.987148
"S201118"	"Response_Selection"	"LEFT"	"LEFT"	259.229800000014	1116.6666689	n/a	n/a	n/a	n/a	n/a	n/a	n/a	"2020-11-18 13:43:02.795139"	"2020-11-18 13:43:03.262535"	39	2.987148
"S201118"	"Response_Selection"	"RIGHT"	"RIGHT"	351.87719999999	800.0000016	n/a	n/a	n/a	n/a	n/a	n/a	n/a	"2020-11-18 13:43:04.070544"	"2020-11-18 13:43:04.630764"	40	2.987148
"S201118"	"Response_Selection"	"RIGHT"	"RIGHT"	407.202700000028	600.0000012	n/a	n/a	n/a	n/a	n/a	n/a	n/a	"2020-11-18 13:43:05.239793"	"2020-11-18 13:43:05.854858"	41	2.987148
"S201118"	"Response_Selection"	"LEFT"	"LEFT"	254.683300000011	1016.6666687	n/a	n/a	n/a	n/a	n/a	n/a	n/a	"2020-11-18 13:43:06.879855"	"2020-11-18 13:43:07.342655"	42	2.987148
"S201118"	"Response_Selection"	"LEFT"	"LEFT"	343.191700000034	800.0000016	n/a	n/a	n/a	n/a	n/a	n/a	n/a	"2020-11-18 13:43:08.151518"	"2020-11-18 13:43:08.702516"	43	2.987148
"S201118"	"Response_Selection"	"LEFT"	"LEFT"	272.907500000031	1366.6666694	n/a	n/a	n/a	n/a	n/a	n/a	n/a	"2020-11-18 13:43:10.077986"	"2020-11-18 13:43:10.558701"	44	2.987148
"S201118"	"Response_Selection"	"LEFT"	"LEFT"	292.9216	1066.6666688	n/a	n/a	n/a	n/a	n/a	n/a	n/a	"2020-11-18 13:43:11.633351"	"2020-11-18 13:43:12.133599"	45	2.987148
"S201118"	"Response_Selection"	"RIGHT"	"RIGHT"	308.693900000037	883.3333351	n/a	n/a	n/a	n/a	n/a	n/a	n/a	"2020-11-18 13:43:13.026168"	"2020-11-18 13:43:13.542654"	46	2.987148
"S201118"	"Response_Selection"	"RIGHT"	"RIGHT"	328.239699999983	783.3333349	n/a	n/a	n/a	n/a	n/a	n/a	n/a	"2020-11-18 13:43:14.334182"	"2020-11-18 13:43:14.870696"	47	2.987148
"S201118"	"Response_Selection"	"RIGHT"	"RIGHT"	305.047399999978	966.6666686	n/a	n/a	n/a	n/a	n/a	n/a	n/a	"2020-11-18 13:43:15.845615"	"2020-11-18 13:43:16.358244"	48	2.987148
"S201118"	"Response_Selection"	"LEFT"	"LEFT"	311.53310000002	1416.6666695	n/a	n/a	n/a	n/a	n/a	n/a	n/a	"2020-11-18 13:43:17.782907"	"2020-11-18 13:43:18.302271"	49	2.987148
"S201118"	"Response_Selection"	"RIGHT"	"RIGHT"	494.598699999983	633.3333346	n/a	n/a	n/a	n/a	n/a	n/a	n/a	"2020-11-18 13:43:18.943627"	"2020-11-18 13:43:19.646994"	50	2.987148
"S201118"	"Response_Selection"	"LEFT"	"LEFT"	357.482599999969	1033.3333354	n/a	n/a	n/a	n/a	n/a	n/a	n/a	"2020-11-18 13:43:20.689575"	"2020-11-18 13:43:21.254440"	51	2.987148
"S201118"	"Response_Selection"	"RIGHT"	"RIGHT"	323.773099999983	1500.000003	n/a	n/a	n/a	n/a	n/a	n/a	n/a	"2020-11-18 13:43:22.762961"	"2020-11-18 13:43:23.295344"	52	2.987148
"S201118"	"Response_Selection"	"RIGHT"	"RIGHT"	401.629100000036	733.3333348	n/a	n/a	n/a	n/a	n/a	n/a	n/a	"2020-11-18 13:43:24.037061"	"2020-11-18 13:43:24.646409"	53	2.987148
"S201118"	"Response_Selection"	"RIGHT"	"RIGHT"	468.535400000007	1083.3333355	n/a	n/a	n/a	n/a	n/a	n/a	n/a	"2020-11-18 13:43:25.738354"	"2020-11-18 13:43:26.414301"	54	2.987148
"S201118"	"Response_Selection"	"RIGHT"	"RIGHT"	392.57520000001	750.0000015	n/a	n/a	n/a	n/a	n/a	n/a	n/a	"2020-11-18 13:43:27.174277"	"2020-11-18 13:43:27.774810"	55	2.987148
"S201118"	"Response_Selection"	"LEFT"	"LEFT"	302.208800000017	633.3333346	n/a	n/a	n/a	n/a	n/a	n/a	n/a	"2020-11-18 13:43:28.416347"	"2020-11-18 13:43:28.925586"	56	2.987148
"S201118"	"Response_Selection"	"LEFT"	"LEFT"	316.637300000025	700.0000014	n/a	n/a	n/a	n/a	n/a	n/a	n/a	"2020-11-18 13:43:29.633663"	"2020-11-18 13:43:30.158745"	57	2.987148
"S201118"	"Response_Selection"	"RIGHT"	"RIGHT"	277.570900000001	650.0000013	n/a	n/a	n/a	n/a	n/a	n/a	n/a	"2020-11-18 13:43:30.816723"	"2020-11-18 13:43:31.304439"	58	2.987148
"S201118"	"Response_Selection"	"LEFT"	"LEFT"	255.208200000027	1166.666669	n/a	n/a	n/a	n/a	n/a	n/a	n/a	"2020-11-18 13:43:32.479645"	"2020-11-18 13:43:32.942387"	59	2.987148
"S201118"	"Response_Selection"	"LEFT"	"LEFT"	325.630799999999	1250.0000025	n/a	n/a	n/a	n/a	n/a	n/a	n/a	"2020-11-18 13:43:34.201180"	"2020-11-18 13:43:34.734943"	60	2.987148
"S201118"	"Response_Selection"	"LEFT"	"LEFT"	308.089699999982	883.3333351	n/a	n/a	n/a	n/a	n/a	n/a	n/a	"2020-11-18 13:43:35.626925"	"2020-11-18 13:43:36.141846"	61	2.987148
"S201118"	"Response_Selection"	"RIGHT"	"RIGHT"	262.143599999945	1066.6666688	n/a	n/a	n/a	n/a	n/a	n/a	n/a	"2020-11-18 13:43:37.216806"	"2020-11-18 13:43:37.686102"	62	2.987148
"S201118"	"Response_Selection"	"RIGHT"	"RIGHT"	296.580400000039	983.3333353	n/a	n/a	n/a	n/a	n/a	n/a	n/a	"2020-11-18 13:43:38.678453"	"2020-11-18 13:43:39.182667"	63	2.987148
"S201118"	"Response_Selection"	"RIGHT"	"RIGHT"	350.039600000002	1016.6666687	n/a	n/a	n/a	n/a	n/a	n/a	n/a	"2020-11-18 13:43:40.208112"	"2020-11-18 13:43:40.766918"	64	2.987148
"S201118"	"Response_Selection"	"LEFT"	"LEFT"	303.305499999965	1400.0000028	n/a	n/a	n/a	n/a	n/a	n/a	n/a	"2020-11-18 13:43:42.175096"	"2020-11-18 13:43:42.686798"	65	2.987148
"S201118"	"Response_Selection"	"RIGHT"	"RIGHT"	380.521600000009	866.6666684	n/a	n/a	n/a	n/a	n/a	n/a	n/a	"2020-11-18 13:43:43.562360"	"2020-11-18 13:43:44.150661"	66	2.987148
"S201118"	"Response_Selection"	"LEFT"	"LEFT"	337.680699999964	750.0000015	n/a	n/a	n/a	n/a	n/a	n/a	n/a	"2020-11-18 13:43:44.908878"	"2020-11-18 13:43:45.454647"	67	2.987148
"S201118"	"Response_Selection"	"RIGHT"	"RIGHT"	272.824899999989	1366.6666694	n/a	n/a	n/a	n/a	n/a	n/a	n/a	"2020-11-18 13:43:46.829995"	"2020-11-18 13:43:47.310277"	68	2.987148
"S201118"	"Response_Selection"	"LEFT"	"LEFT"	282.711000000006	933.3333352	n/a	n/a	n/a	n/a	n/a	n/a	n/a	"2020-11-18 13:43:48.252291"	"2020-11-18 13:43:48.742303"	69	2.987148
"S201118"	"Response_Selection"	"LEFT"	"LEFT"	320.982099999981	966.6666686	n/a	n/a	n/a	n/a	n/a	n/a	n/a	"2020-11-18 13:43:49.717851"	"2020-11-18 13:43:50.246704"	70	2.987148
"S201118"	"Response_Selection"	"LEFT"	"LEFT"	324.71019999997	1466.6666696	n/a	n/a	n/a	n/a	n/a	n/a	n/a	"2020-11-18 13:43:51.722305"	"2020-11-18 13:43:52.255097"	71	2.987148
"S201118"	"Response_Selection"	"RIGHT"	"RIGHT"	323.062199999981	700.0000014	n/a	n/a	n/a	n/a	n/a	n/a	n/a	"2020-11-18 13:43:52.963202"	"2020-11-18 13:43:53.494270"	72	2.987148
"S201118"	"Response_Selection"	"RIGHT"	"RIGHT"	362.334599999997	533.3333344	n/a	n/a	n/a	n/a	n/a	n/a	n/a	"2020-11-18 13:43:54.036081"	"2020-11-18 13:43:54.606496"	73	2.987148
"S201118"	"Response_Selection"	"LEFT"	"LEFT"	280.037300000004	983.3333353	n/a	n/a	n/a	n/a	n/a	n/a	n/a	"2020-11-18 13:43:55.599021"	"2020-11-18 13:43:56.085609"	74	2.987148
"S201118"	"Response_Selection"	"RIGHT"	"RIGHT"	302.901899999995	1033.3333354	n/a	n/a	n/a	n/a	n/a	n/a	n/a	"2020-11-18 13:43:57.128062"	"2020-11-18 13:43:57.638620"	75	2.987148
"S201118"	"Response_Selection"	"RIGHT"	"RIGHT"	346.224599999971	1133.3333356	n/a	n/a	n/a	n/a	n/a	n/a	n/a	"2020-11-18 13:43:58.780242"	"2020-11-18 13:43:59.334272"	76	2.987148
"S201118"	"Response_Selection"	"LEFT"	"LEFT"	352.382399999954	783.3333349	n/a	n/a	n/a	n/a	n/a	n/a	n/a	"2020-11-18 13:44:00.126167"	"2020-11-18 13:44:00.687085"	77	2.987148
"S201118"	"Response_Selection"	"RIGHT"	"RIGHT"	295.02500000001	1400.0000028	n/a	n/a	n/a	n/a	n/a	n/a	n/a	"2020-11-18 13:44:02.095868"	"2020-11-18 13:44:02.598578"	78	2.987148
"S201118"	"Response_Selection"	"LEFT"	"LEFT"	289.534100000026	1350.0000027	n/a	n/a	n/a	n/a	n/a	n/a	n/a	"2020-11-18 13:44:03.956922"	"2020-11-18 13:44:04.454918"	79	2.987148
"S201118"	"Response_Selection"	"LEFT"	"LEFT"	340.494199999966	1266.6666692	n/a	n/a	n/a	n/a	n/a	n/a	n/a	"2020-11-18 13:44:05.730378"	"2020-11-18 13:44:06.278595"	80	2.987148
