index	Trial_Type	Participant_ID	Trial_Probability	Question_Position_Prediction_Correct	Question_Position_Prediction_Agent	Question_Position_Comparison_Self	Question_Position_Comparison_Irrelevant	Trial_Stake	Trial_Stake_Jitter	Trial_Type_Jitter	Trial_Result_Jitter	Balance_Update_Jitter	Question_Comparison_Condition	Question_Comparison_Type	Question_Comparison_Question	Question_Comparison_Label	Question_Comparison_Item	Question_Comparison_Proportion_Yes	Question_Factual_Condition	Question_Factual_Item	Question_Factual_Question	Question_Factual_Label	Question_Factual_Proportion_DontKnow	Question_Factual_Type	Answer_Prediction_Agent	Answer_Prediction_Agent_RT	Answer_Prediction_Correct	Answer_Prediction_Correct_RT	Answer_Irrelevant	Answer_Irrelevant_RT	Answer_Self	Answer_Self_RT	Trial_Balance	Trial_Balance_Effect	Trial_Condition	Trial_ProbableSide	Prediction_Choice	Prediction_Result	Prediction_RT	Trial_Order	Trial_Datetime
76	Self	S200313	0.6666666666666666	2	1	2	1	0.6	1350.0000027	1216.6666691	1933.3333372	1650.0000033	Major	Wrong_doings	8	You have watched a pirated movie	C1_43	1.0	Hard	I2_60	33	Vegetarians can eat vegetable products	0.0555555555555556	No	RIGHT	932.8033000001597	LEFT	967.8330000001552	RIGHT	2078.490200000033	LEFT	2207.506199999898	9.4	0.6	Probable_Lie	RIGHT	RIGHT	2	988.5196000000178	0	2020-03-13 13:51:40.789811
102	Computer	S200313	0.5	1	2	2	1	0.2	1500.000003	1216.6666691	2350.0000047	2216.6666711000003	Minor	Good_deeds	20	You have engaged in arson	C2_13	0.9	Easy	I1_8	19	Beer is an alcoholic drink	0.722222222222222	No	LEFT	560.7853999999861	RIGHT	827.5496000001112	RIGHT	1314.417800000001	LEFT	1176.6089000000193	9.4	0.2	Probable_Lie	RIGHT	LEFT	4	631.6707289907254	1	2020-03-13 13:52:05.157365
17	Self	S200313	0.6666666666666666	1	2	1	2	0.1	1150.0000023	1000.000002	2066.6666708	2216.6666711000003	Major	Wrong_doings	19	You have helped others to pick up their belongings	C2_33	0.0	Easy	I2_41	13	Singapore is in Africa	0.0	No	LEFT	289.47649999986425	LEFT	864.5546000000195	LEFT	992.3873999998704	RIGHT	1512.4379999999746	9.4	0.1	Probable_Lie	RIGHT	RIGHT	2	914.9502000000213	2	2020-03-13 13:52:28.741417
24	Self	S200313	0.6666666666666666	2	1	1	2	0.5	1216.6666691	1216.6666691	2500.000005	2216.6666711000003	Minor	Good_deeds	35	You have cheated on a test	C2_17	0.0	Easy	I1_29	29	Chickens lay eggs	0.0	Yes	RIGHT	728.0776999998579	RIGHT	304.343599999811	RIGHT	888.1754000001365	LEFT	1217.1479000001	9.9	0.5	Probable_Truth	LEFT	LEFT	1	839.1165999998975	3	2020-03-13 13:52:52.445743
3	Self	S200313	0.5	1	2	1	2	0.2	1216.6666691	1150.0000023	1650.0000033	2500.000005	Major	Good_deeds	57	You have been donating all your excess food to a food bank	C1_3	0.0	Easy	I1_50	8	Cheese is an Asian staple	0.0	Yes	RIGHT	136.58689999988383	LEFT	807.3152999998001	LEFT	1656.8453999998385	RIGHT	2874.2807000000994	9.7	0.2	Probable_Lie	LEFT	RIGHT	2	903.0706999999438	4	2020-03-13 13:53:17.917509
64	Self	S200313	0.6666666666666666	1	2	1	2	0.6	1150.0000023	1216.6666691	2066.6666708	2066.6666708	Major	Good_deeds	7	You have followed instructions	C2_30	0.05	Hard	I1_17	17	The Moon orbits around the Earth	0.666666666666667	Yes	RIGHT	1000.1472999999804	LEFT	1125.5376999999953	LEFT	1422.73299999988	RIGHT	1133.9798999999855	9.1	0.6	Probable_Lie	RIGHT	RIGHT	2	991.784700000153	5	2020-03-13 13:53:42.669527
131	Computer	S200313	0.8333333333333334	1	2	1	2	0.2	1433.3333362	1150.0000023	2500.000005	1933.3333372	Minor	Good_deeds	12	You have bribed a police officer	C2_16	0.0	Easy	I1_10	42	It is night time now	0.0	Yes	LEFT	208.6795999998685	LEFT	787.3388000000432	LEFT	936.2906999999724	LEFT	981.0611999998856	9.1	0.2	Probable_Lie	LEFT	RIGHT	1	654.1424896648263	6	2020-03-13 13:54:05.821941
105	Computer	S200313	0.5	2	1	1	2	0.1	1150.0000023	1283.3333359	1933.3333372	1933.3333372	Minor	Wrong_doings	13	You have extorted money from anyone	C2_34	0.2	Easy	I2_46	14	The Earth is round	0.888888888888889	No	LEFT	1306.4507999999933	LEFT	119.28330000000642	RIGHT	816.2351999999373	LEFT	1315.7753000000412	9.1	0.1	Probable_Lie	LEFT	LEFT	5	536.9043216461724	7	2020-03-13 13:54:28.781881
66	Self	S200313	0.6666666666666666	1	2	1	2	0.7	1350.0000027	1500.000003	2500.000005	1650.0000033	Minor	Good_deeds	30	You have organized a violent protest	C2_47	0.8	Easy	I2_18	23	Teddy Roosevelt was the youngest US President	0.0	Yes	RIGHT	608.4285999997974	RIGHT	845.3947000000426	RIGHT	2142.8874000000637	LEFT	1143.6191999998755	9.8	0.7	Probable_Truth	RIGHT	RIGHT	5	943.296299999929	8	2020-03-13 13:54:54.037183
53	Self	S200313	0.5	1	2	2	1	0.7	1283.3333359	1066.6666688	2216.6666711000003	2066.6666708	Major	Wrong_doings	23	You have downloaded pirated movies	C2_60	1.0	Hard	I2_3	9	The human's inner ear is larger than a pencil eraser	0.833333333333333	No	RIGHT	296.6957999999522	RIGHT	392.687899999828	RIGHT	3309.957499999882	LEFT	1104.0457000001425	10.5	0.7	Probable_Truth	LEFT	LEFT	1	1102.4708999998438	9	2020-03-13 13:55:19.454265
114	Computer	S200313	0.6666666666666666	1	2	1	2	0.8	1433.3333362	1216.6666691	2350.0000047	1933.3333372	Major	Wrong_doings	33	You have said thank you when you have received help	C1_60	0.0	Easy	I1_13	21	February has 30 days	0.944444444444444	No	LEFT	224.93660000009183	RIGHT	982.7786999999262	LEFT	1288.2463999999345	RIGHT	1417.1615000000202	10.5	0.8	Probable_Truth	RIGHT	RIGHT	4	971.5300298355904	10	2020-03-13 13:55:43.836643
89	Self	S200313	0.8333333333333334	2	1	1	2	0.2	1350.0000027	1066.6666688	2350.0000047	1500.000003	Major	Good_deeds	25	You have made someone cry	C1_40	0.85	Hard	I2_5	27	The Eiffel Tower is in Paris	0.722222222222222	Yes	RIGHT	1003.1129999999848	LEFT	88.25780000006489	RIGHT	991.2751000001664	RIGHT	2381.6137999999683	10.3	0.2	Probable_Lie	LEFT	LEFT	6	878.6887999999635	11	2020-03-13 13:56:08.021281
33	Self	S200313	0.8333333333333334	1	2	1	2	0.3	1216.6666691	1216.6666691	1650.0000033	1783.3333369	Major	Wrong_doings	14	You have provided shelter for stray animals	C1_38	1.0	Hard	I1_2	2	There is typically 0.6 grams of mercury in glass thermometer	0.0	No	RIGHT	257.0722000000387	RIGHT	229.98050000001055	RIGHT	2143.961300000001	RIGHT	2512.269399999923	10.6	0.3	Probable_Truth	RIGHT	RIGHT	5	583.6864000000332	12	2020-03-13 13:56:32.189718
96	Computer	S200313	0.5	1	2	1	2	0.4	1350.0000027	1283.3333359	1783.3333369	1500.000003	Minor	Wrong_doings	39	You have volunteered every week for many years	C1_53	0.15	Hard	I2_58	54	Cleopatra was born in Greece	0.0	No	LEFT	95.77500000000327	LEFT	364.2601999999897	RIGHT	2056.4882999999554	RIGHT	3295.441399999845	10.6	0.4	Probable_Lie	RIGHT	LEFT	4	965.0411193590706	13	2020-03-13 13:56:57.452951
67	Self	S200313	0.6666666666666666	1	2	1	2	0.3	1433.3333362	1283.3333359	1500.000003	1500.000003	Major	Wrong_doings	29	You have started an NGO using your savings	C1_46	0.5	Hard	I1_26	46	It takes 112 years to build the Pisa Tower	0.888888888888889	No	RIGHT	48.553699999956734	RIGHT	724.5178999999098	RIGHT	1688.2494999999835	LEFT	3854.030400000056	10.900000000000002	0.3	Probable_Truth	RIGHT	RIGHT	4	915.4512999998587	14	2020-03-13 13:57:22.973803
82	Self	S200313	0.8333333333333334	1	2	1	2	0.3	1350.0000027	1066.6666688	1650.0000033	1933.3333372	Minor	Good_deeds	9	You have given way to the handicapped	C2_42	1.0	Easy	I1_24	24	Lehman Brothers went bankrupt on 20th September	0.0	No	RIGHT	160.35690000012437	RIGHT	398.4679000000142	LEFT	1791.5155000000595	RIGHT	1365.9181000000444	11.200000000000005	0.3	Probable_Truth	RIGHT	RIGHT	5	517.033599999877	15	2020-03-13 13:57:45.780898
23	Self	S200313	0.6666666666666666	1	2	2	1	0.3	1000.000002	1216.6666691	1500.000003	2066.6666708	Major	Good_deeds	50	You have started a movement to support a cause	C2_50	0.0	Hard	I1_37	35	Mageirocophobia is a fear of deathly disease	0.888888888888889	No	RIGHT	167.95909999996184	RIGHT	325.89500000017324	RIGHT	2806.22070000004	RIGHT	3471.487700000125	11.500000000000004	0.3	Probable_Truth	RIGHT	RIGHT	5	697.7781000000505	16	2020-03-13 13:58:11.605062
60	Self	S200313	0.5	2	1	2	1	0.5	1433.3333362	1500.000003	2216.6666711000003	2066.6666708	Minor	Wrong_doings	38	You have donated blood every 6 months for many years	C2_2	0.1	Hard	I2_2	17	Mexico's National Day is September 16	0.0	No	RIGHT	784.7673999999643	RIGHT	240.8218000000488	LEFT	1862.3883999998725	RIGHT	2359.766600000057	12.000000000000004	0.5	Probable_Truth	RIGHT	LEFT	3	2058.6600999999973	17	2020-03-13 13:58:38.701265
15	Self	S200313	0.5	2	1	2	1	0.3	1216.6666691	1433.3333362	2066.6666708	2350.0000047	Minor	Wrong_doings	34	You have volunteered for a disaster-related humanitarian mission	C1_58	0.05	Hard	I2_13	33	Acoustic Kitty refers to cat with implants	0.833333333333333	Yes	RIGHT	941.418800000065	LEFT	487.50829999994494	LEFT	3276.2118999999075	RIGHT	2358.199499999955	11.700000000000005	0.3	Probable_Lie	RIGHT	RIGHT	2	1347.607299999936	18	2020-03-13 13:59:06.757056
10	Self	S200313	0.5	2	1	1	2	0.7	1500.000003	1283.3333359	1650.0000033	2216.6666711000003	Major	Wrong_doings	58	You have taken part in violent demonstration	C2_36	0.95	Easy	I2_56	32	Today is a weekday	0.0	No	RIGHT	871.3588000000527	LEFT	135.69480000001022	RIGHT	2249.4707999999264	LEFT	1166.5274000001773	11.000000000000004	0.7	Probable_Lie	RIGHT	RIGHT	2	1239.0751999998884	19	2020-03-13 13:59:31.644986
39	Self	S200313	0.8333333333333334	1	2	2	1	0.8	1500.000003	1500.000003	1500.000003	2066.6666708	Major	Wrong_doings	42	You have thrown your trash into the bin	C1_12	0.0	Easy	I1_39	48	Fibers in oranges can be used to make fabric	0.833333333333333	Yes	RIGHT	1088.626100000056	LEFT	803.1962999998541	LEFT	2215.559600000006	RIGHT	1295.592999999826	10.200000000000005	0.8	Probable_Lie	RIGHT	RIGHT	1	1263.2942000000185	20	2020-03-13 13:59:57.453040
25	Self	S200313	0.6666666666666666	2	1	1	2	0.2	1283.3333359	1066.6666688	1933.3333372	1783.3333369	Major	Wrong_doings	28	You have claimed doing things that you never did	C2_35	0.95	Hard	I1_40	38	South East Asia is currently free from polio	0.833333333333333	No	RIGHT	843.9737999999579	LEFT	72.2765000000436	LEFT	1559.7003999998833	LEFT	2235.281799999939	10.000000000000004	0.2	Probable_Lie	RIGHT	RIGHT	2	809.9787999999535	21	2020-03-13 14:00:21.613771
77	Self	S200313	0.6666666666666666	2	1	2	1	0.8	1150.0000023	1066.6666688	1650.0000033	1933.3333372	Minor	Good_deeds	43	You have used a fake name online	C2_37	0.7	Easy	I2_16	16	Earth's atmosphere extends up to 10,000km into space	0.0	No	RIGHT	984.0689000000112	RIGHT	487.2336000000814	RIGHT	2939.6220999999514	LEFT	1455.9583000000202	10.800000000000004	0.8	Probable_Lie	RIGHT	RIGHT	2	717.9296000001614	22	2020-03-13 14:00:46.573360
49	Self	S200313	0.5	1	2	1	2	0.2	1150.0000023	1000.000002	1500.000003	2350.0000047	Minor	Good_deeds	1	You have started a hotline for victims of bully	C1_22	0.0	Easy	I2_22	45	Mozambique is the world's poorest country	0.0555555555555556	No	RIGHT	167.12779999988925	RIGHT	773.5713000001851	RIGHT	2647.568599999886	LEFT	1972.048500000028	11.000000000000004	0.2	Probable_Truth	LEFT	LEFT	1	2398.839799999905	23	2020-03-13 14:01:13.108407
1	Self	S200313	0.5	1	2	1	2	0.1	1066.6666688	1066.6666688	2216.6666711000003	2216.6666711000003	Minor	Good_deeds	3	You have engaged in underage smoking	C2_20	0.05	Hard	I2_38	38	There are 30 hours in a day	0.944444444444444	Yes	RIGHT	600.1243999999133	LEFT	951.0215000000244	LEFT	1247.743299999911	LEFT	1566.8617000001177	10.900000000000004	0.1	Probable_Lie	LEFT	LEFT	6	940.2556999998524	24	2020-03-13 14:01:37.556462
108	Computer	S200313	0.5	2	1	2	1	0.6	1433.3333362	1066.6666688	1783.3333369	2350.0000047	Major	Good_deeds	15	You have attended all lectures as a student	C1_59	0.0	Hard	I1_6	26	Obama is the USA president now	0.0	No	LEFT	976.1459999999717	LEFT	208.38099999991755	LEFT	1453.8593999998284	RIGHT	1671.6384999999718	10.900000000000004	0.6	Probable_Lie	RIGHT	LEFT	6	634.9488142582211	25	2020-03-13 14:02:01.701410
126	Computer	S200313	0.6666666666666666	2	1	2	1	0.1	1000.000002	1066.6666688	1783.3333369	2216.6666711000003	Minor	Wrong_doings	31	You have been sued	C2_52	0.2	Hard	I2_50	30	Africa is the continent with the least rainfall	0.0555555555555556	Yes	LEFT	812.0542999999998	LEFT	128.21600000006583	LEFT	2368.249900000137	LEFT	1198.0326999998852	10.900000000000004	0.1	Probable_Lie	LEFT	LEFT	5	719.4544515912714	26	2020-03-13 14:02:25.564972
129	Computer	S200313	0.8333333333333334	1	2	1	2	0.1	1150.0000023	1433.3333362	1783.3333369	2350.0000047	Major	Wrong_doings	14	You have provided shelter for stray animals	C1_38	1.0	Hard	I1_2	2	There is typically 0.6 grams of mercury in glass thermometer	0.0	No	LEFT	87.41149999991649	RIGHT	963.8335999998162	RIGHT	1278.3634999998412	RIGHT	1833.2828999998585	10.900000000000004	0.1	Probable_Truth	RIGHT	RIGHT	3	680.7879446069946	27	2020-03-13 14:02:49.701743
95	Self	S200313	0.8333333333333334	2	1	2	1	0.1	1000.000002	1216.6666691	1783.3333369	1783.3333369	Major	Good_deeds	23	You have engaged in drink-driving	C2_10	0.0	Hard	I1_1	45	Nanyang Technological University is in Australia	0.777777777777778	No	RIGHT	849.0483999999014	RIGHT	224.2601000000377	LEFT	1408.0655999998726	LEFT	1303.9274999998725	11.000000000000004	0.1	Probable_Truth	RIGHT	RIGHT	6	1392.5891999999749	28	2020-03-13 14:03:13.237829
90	Self	S200313	0.8333333333333334	2	1	1	2	0.3	1433.3333362	1283.3333359	1933.3333372	2500.000005	Major	Wrong_doings	40	You have illegally stayed in a country	C2_25	0.05	Easy	I2_45	60	Today is Sunday	0.777777777777778	No	LEFT	413.2897000001776	LEFT	951.8734000000676	LEFT	999.9557999999524	LEFT	1167.141700000002	11.000000000000004	0.3	Probable_Lie	RIGHT	RIGHT	1	803.0549999998584	29	2020-03-13 14:03:37.292430
72	Self	S200313	0.6666666666666666	2	1	1	2	0.5	1000.000002	1433.3333362	2500.000005	2216.6666711000003	Major	Good_deeds	45	You have sold illegal drugs	C2_53	0.0	Hard	I1_21	11	A square has 3 corners	0.777777777777778	Yes	RIGHT	1092.8369999999177	LEFT	16.597699999920223	LEFT	1200.108799999953	LEFT	822.6807000000917	10.500000000000004	0.5	Probable_Lie	LEFT	LEFT	5	1294.1597000001366	30	2020-03-13 14:04:01.445161
133	Computer	S200313	0.8333333333333334	1	2	2	1	0.8	1350.0000027	1350.0000027	2216.6666711000003	2066.6666708	Major	Good_deeds	16	You have offered a listening ear to a friend	C2_28	1.0	Easy	I2_43	51	French is Singapore's official language	0.0	Yes	LEFT	104.91769999998724	LEFT	779.5837000001029	LEFT	2630.1057999999102	RIGHT	1215.0910000000297	10.500000000000004	0.8	Probable_Lie	LEFT	RIGHT	1	764.8025308673884	31	2020-03-13 14:04:26.492682
107	Computer	S200313	0.5	2	1	1	2	0.4	1500.000003	1500.000003	1650.0000033	1783.3333369	Minor	Good_deeds	19	You have helped your parents when asked to	C2_14	0.55	Hard	I1_33	6	Singapore has four seasons	0.0	Yes	LEFT	687.2213999999985	LEFT	375.5581000000348	LEFT	1072.4616999998489	RIGHT	1435.0303999999596	10.500000000000004	0.4	Probable_Lie	LEFT	LEFT	4	870.9019281847042	32	2020-03-13 14:04:49.933545
87	Self	S200313	0.8333333333333334	1	2	2	1	0.5	1066.6666688	1500.000003	2500.000005	1650.0000033	Major	Wrong_doings	3	You have confessed to your mistake	C1_8	0.65	Hard	I2_1	3	It is snowing outside now	1.0	Yes	LEFT	135.68929999996726	LEFT	933.1889999998566	LEFT	1871.9128000000185	RIGHT	1063.1519999999457	10.500000000000004	0.5	Probable_Lie	RIGHT	RIGHT	1	503.3235999999306	33	2020-03-13 14:05:13.732911
32	Self	S200313	0.8333333333333334	1	2	1	2	0.1	1350.0000027	1433.3333362	1783.3333369	1933.3333372	Major	Wrong_doings	38	You have assisted in a crime	C1_14	0.85	Hard	I2_51	43	The Earth turns the closest to the sun in May	0.777777777777778	Yes	RIGHT	48.33050000002004	RIGHT	490.42979999990166	RIGHT	2957.938100000092	LEFT	1235.3723999999602	10.600000000000003	0.1	Probable_Truth	RIGHT	RIGHT	6	561.1381000001074	34	2020-03-13 14:05:38.100892
124	Computer	S200313	0.6666666666666666	2	1	2	1	0.3	1283.3333359	1000.000002	2216.6666711000003	1933.3333372	Major	Good_deeds	5	You have donated a pay cheque to charity	C1_5	0.0	Hard	I2_36	50	Animals are living things	0.0	No	LEFT	217.84870000010412	LEFT	343.70719999992616	RIGHT	1067.7860000000692	RIGHT	1309.0385999998944	10.600000000000003	0.3	Probable_Lie	RIGHT	LEFT	4	794.1892088010763	35	2020-03-13 14:06:00.847553
91	Self	S200313	0.8333333333333334	2	1	1	2	0.8	1066.6666688	1433.3333362	1500.000003	2350.0000047	Minor	Good_deeds	39	You have eaten something in the MRT train	C2_39	0.0	Easy	I1_15	1	China is a part of Asia	0.0	No	RIGHT	764.9704999998903	RIGHT	128.4057000000303	RIGHT	984.061200000042	LEFT	1450.0637000001009	11.400000000000004	0.8	Probable_Truth	LEFT	LEFT	1	871.2880999999015	36	2020-03-13 14:06:23.972790
21	Self	S200313	0.6666666666666666	1	2	2	1	0.4	1283.3333359	1283.3333359	1783.3333369	2350.0000047	Major	Good_deeds	1	You have been restricting your electricity consumption	C2_1	1.0	Easy	I2_21	24	Arabi is the oldest surviving breed of horse	0.0	Yes	RIGHT	150.34570000011627	RIGHT	210.77470000000176	LEFT	2611.393700000008	RIGHT	2784.069499999987	11.800000000000004	0.4	Probable_Truth	LEFT	LEFT	1	938.5824000000866	37	2020-03-13 14:06:49.940652
73	Self	S200313	0.6666666666666666	2	1	1	2	0.3	1433.3333362	1150.0000023	1783.3333369	2066.6666708	Minor	Good_deeds	11	You have been convicted in court	C1_4	0.95	Hard	I1_57	60	There are 20 bones in the human skull	0.888888888888889	Yes	LEFT	281.91100000003644	LEFT	1344.6202000000085	LEFT	2583.6940000001505	LEFT	1158.094900000151	11.800000000000004	0.3	Probable_Lie	RIGHT	RIGHT	1	2633.8722000000416	38	2020-03-13 14:07:16.948184
54	Self	S200313	0.5	1	2	2	1	0.6	1433.3333362	1283.3333359	2500.000005	2500.000005	Minor	Wrong_doings	60	You have intentionally let others cut in line	C2_23	0.1	Hard	I2_25	3	Red is a color	0.666666666666667	Yes	RIGHT	911.79440000019	LEFT	894.5478999999068	RIGHT	843.4846000000107	RIGHT	1774.5482000000266	11.200000000000005	0.6	Probable_Lie	RIGHT	LEFT	6	1401.5673999999765	39	2020-03-13 14:07:43.068942
142	Computer	S200313	0.8333333333333334	2	1	2	1	0.4	1216.6666691	1500.000003	1650.0000033	2216.6666711000003	Minor	Wrong_doings	6	You have cursed at others	C2_24	0.0	Hard	I2_28	28	Septicemia is a lung infection condition	0.166666666666667	Yes	LEFT	1392.3434000000725	LEFT	280.06329999993795	RIGHT	2327.31200000012	RIGHT	1806.6341999999624	11.200000000000005	0.4	Probable_Lie	RIGHT	LEFT	2	699.5008188729146	40	2020-03-13 14:08:08.733019
37	Self	S200313	0.8333333333333334	1	2	2	1	0.6	1150.0000023	1350.0000027	2066.6666708	2350.0000047	Major	Good_deeds	16	You have offered a listening ear to a friend	C2_28	1.0	Easy	I2_43	51	French is Singapore's official language	0.0	Yes	RIGHT	136.99529999985316	RIGHT	446.8352999997478	LEFT	1115.5837999999676	RIGHT	846.5175999999701	11.800000000000004	0.6	Probable_Truth	LEFT	LEFT	1	722.7880000000368	41	2020-03-13 14:08:31.493061
75	Self	S200313	0.6666666666666666	2	1	1	2	0.7	1216.6666691	1283.3333359	2350.0000047	1783.3333369	Major	Wrong_doings	26	You have rescued others from a catastrophe	C2_8	1.0	Hard	I1_11	47	Last day of the year is 30th December	0.764705882352941	No	LEFT	306.05370000012044	LEFT	1280.5358000000524	LEFT	1495.8996000000295	LEFT	2699.61770000009	11.800000000000004	0.7	Probable_Lie	LEFT	LEFT	6	1515.491899999688	42	2020-03-13 14:08:57.996108
71	Self	S200313	0.6666666666666666	1	2	2	1	0.8	1500.000003	1350.0000027	1933.3333372	1933.3333372	Minor	Good_deeds	57	You have taken responsibility for your actions	C1_57	0.25	Easy	I2_31	42	The first Olympic Games was held in the 5th century B.C	0.833333333333333	Yes	RIGHT	312.5552000001335	LEFT	755.4739000001973	RIGHT	2580.6202999997367	RIGHT	975.6585000000086	11.000000000000004	0.8	Probable_Lie	LEFT	LEFT	6	1243.4968999996272	43	2020-03-13 14:09:23.156741
134	Computer	S200313	0.8333333333333334	1	2	2	1	0.3	1066.6666688	1066.6666688	2350.0000047	1783.3333369	Minor	Wrong_doings	31	You have sheltered others from disasters	C2_31	0.7	Hard	I2_48	31	Summer is hotter than winter	1.0	No	LEFT	120.33470000005764	LEFT	498.9993999997751	RIGHT	1664.169000000129	RIGHT	1856.9274999999836	11.000000000000004	0.3	Probable_Lie	RIGHT	LEFT	2	589.9182912647188	44	2020-03-13 14:09:46.718198
104	Computer	S200313	0.5	2	1	1	2	0.8	1283.3333359	1000.000002	2500.000005	1650.0000033	Major	Wrong_doings	14	You have drunk alcohol when you were underage	C2_19	1.0	Easy	I2_26	13	Singapore ranked 8th in World's smallest countries	0.722222222222222	No	LEFT	443.2649000000311	LEFT	159.92529999994076	RIGHT	3296.30700000007	LEFT	2263.3460000001837	11.000000000000004	0.8	Probable_Lie	RIGHT	RIGHT	2	652.96564315293	45	2020-03-13 14:10:12.532423
4	Self	S200313	0.5	1	2	2	1	0.4	1500.000003	1350.0000027	2066.6666708	2350.0000047	Major	Wrong_doings	13	You have helped with household chores	C1_39	1.0	Hard	I1_53	39	Malay is one of the races in Singapore	0.111111111111111	Yes	RIGHT	128.26719999975467	RIGHT	829.7173999999359	RIGHT	1640.551399999822	RIGHT	1007.6644999999188	11.400000000000004	0.4	Probable_Truth	RIGHT	LEFT	1	1758.5299000002124	46	2020-03-13 14:10:37.742830
43	Self	S200313	0.8333333333333334	2	1	1	2	0.4	1433.3333362	1350.0000027	2350.0000047	2500.000005	Minor	Good_deeds	24	You have given directions to a lost tourist	C1_49	1.0	Easy	I1_58	23	There are 10 continents in the World	0.888888888888889	No	RIGHT	1947.5436000002449	LEFT	399.8999000000367	LEFT	3128.4946999999192	RIGHT	1150.34390000028	11.000000000000004	0.4	Probable_Lie	RIGHT	RIGHT	1	645.8920000000035	47	2020-03-13 14:11:05.222846
112	Computer	S200313	0.6666666666666666	1	2	1	2	0.3	1350.0000027	1066.6666688	2216.6666711000003	2216.6666711000003	Minor	Good_deeds	60	You have kidnapped someone	C1_27	0.45	Hard	I2_6	6	Singapore is a country	0.944444444444444	No	LEFT	159.46349999967424	LEFT	336.67760000025737	RIGHT	919.9558000000252	LEFT	1319.8723999998947	11.000000000000004	0.3	Probable_Lie	LEFT	RIGHT	2	931.080717317697	48	2020-03-13 14:12:24.781500
86	Self	S200313	0.8333333333333334	1	2	2	1	0.2	1000.000002	1433.3333362	1783.3333369	1500.000003	Minor	Wrong_doings	44	You have done something against your values	C1_6	0.0	Easy	I1_3	54	Cernan was the second last man to walk on the Moon	0.888888888888889	No	RIGHT	72.52710000011575	RIGHT	579.1180999999597	LEFT	2661.075600000004	LEFT	2077.7955000003203	11.200000000000005	0.2	Probable_Lie	LEFT	LEFT	3	2354.557300000124	49	2020-03-13 14:12:50.821245
81	Self	S200313	0.8333333333333334	1	2	1	2	0.4	1433.3333362	1283.3333359	2216.6666711000003	2066.6666708	Minor	Good_deeds	35	You have been arrested	C2_3	1.0	Hard	I1_52	1	"Statue of Liberty is 151 feet tall"	0.0	No	RIGHT	318.89600000022256	RIGHT	174.90510000016002	LEFT	1344.098600000052	LEFT	1637.8820999998425	11.600000000000003	0.4	Probable_Truth	RIGHT	RIGHT	6	1252.62819999989	50	2020-03-13 14:13:15.132702
92	Self	S200313	0.8333333333333334	2	1	2	1	0.7	1216.6666691	1150.0000023	2500.000005	2066.6666708	Minor	Wrong_doings	48	You have said sorry when you were rude	C1_20	1.0	Easy	I2_27	36	A caterpillar has more muscle than a human	0.944444444444444	Yes	RIGHT	269.4173999998384	RIGHT	216.0966000001281	LEFT	1871.3905999998133	RIGHT	1935.7789999999115	12.300000000000002	0.7	Probable_Truth	RIGHT	RIGHT	2	898.017300000447	51	2020-03-13 14:13:39.829012
62	Self	S200313	0.5	2	1	2	1	0.3	1150.0000023	1283.3333359	2500.000005	1933.3333372	Major	Good_deeds	46	You have bought cigarettes for a minor	C1_34	0.65	Easy	I1_12	2	It sometimes snows in Singapore	0.0	Yes	RIGHT	867.9203000001507	LEFT	17.11459999978615	LEFT	1266.1513999996714	LEFT	966.7959000003066	12.000000000000002	0.3	Probable_Lie	LEFT	LEFT	6	1809.1811000003872	52	2020-03-13 14:14:04.196212
12	Self	S200313	0.5	2	1	2	1	0.2	1283.3333359	1500.000003	1783.3333369	1933.3333372	Major	Good_deeds	15	You have attended all lectures as a student	C1_59	0.0	Hard	I1_6	26	Obama is the USA president now	0.0	No	RIGHT	704.8742000001766	RIGHT	112.8364999999576	LEFT	1277.588200000082	RIGHT	974.7417000003225	12.2	0.2	Probable_Truth	RIGHT	RIGHT	4	822.8676999997333	53	2020-03-13 14:14:27.164040
98	Computer	S200313	0.5	1	2	1	2	0.5	1216.6666691	1066.6666688	1933.3333372	1650.0000033	Major	Good_deeds	9	You have coveted things that belong to others	C2_56	0.0	Hard	I2_39	58	The first Grammy awards was held in 1959	1.0	No	LEFT	40.4739000000518	RIGHT	935.4490000000624	RIGHT	2080.126900000323	LEFT	3079.2489000000387	12.2	0.5	Probable_Lie	LEFT	LEFT	4	558.644796761337	54	2020-03-13 14:14:52.284586
56	Self	S200313	0.5	2	1	1	2	0.4	1066.6666688	1433.3333362	1500.000003	2500.000005	Major	Wrong_doings	34	You have complimented others for good work	C1_24	0.95	Hard	I2_17	49	Carnivore refers to meat-eater	0.888888888888889	Yes	RIGHT	612.855700000182	RIGHT	112.398100000064	RIGHT	3608.023700000104	RIGHT	1247.232000000167	12.6	0.4	Probable_Truth	RIGHT	LEFT	3	1339.407299999948	55	2020-03-13 14:15:18.276585
14	Self	S200313	0.5	2	1	2	1	0.4	1433.3333362	1066.6666688	2216.6666711000003	1783.3333369	Major	Good_deeds	59	You have given up your seat in the MRT	C1_15	0.05	Easy	I1_14	56	The hardest bone in human body is the jawbone	0.611111111111111	Yes	RIGHT	928.4593000002131	RIGHT	232.0441000001665	LEFT	4058.564200000092	RIGHT	872.1668000002865	13.000000000000002	0.4	Probable_Truth	RIGHT	RIGHT	5	1091.5336999996723	56	2020-03-13 14:15:44.532813
70	Self	S200313	0.6666666666666666	1	2	2	1	0.4	1000.000002	1433.3333362	1650.0000033	2216.6666711000003	Major	Wrong_doings	29	You have fabricated facts about yourself	C1_7	0.95	Easy	I1_42	26	Marijuana is legal in Singapore	0.0555555555555556	No	RIGHT	143.79890000009254	LEFT	935.5298999998922	LEFT	1088.58360000022	LEFT	1271.2569000000258	12.6	0.4	Probable_Truth	RIGHT	RIGHT	3	2302.67989999993	57	2020-03-13 14:16:09.148467
16	Self	S200313	0.6666666666666666	1	2	1	2	0.6	1216.6666691	1433.3333362	2500.000005	1783.3333369	Minor	Good_deeds	60	You have kidnapped someone	C1_27	0.45	Hard	I2_6	6	Singapore is a country	0.944444444444444	No	RIGHT	159.91500000018277	RIGHT	556.9446999998036	RIGHT	775.5182000000787	LEFT	3155.4605999999694	13.2	0.6	Probable_Lie	LEFT	LEFT	4	1299.9919999997471	58	2020-03-13 14:16:34.604497
84	Self	S200313	0.8333333333333334	1	2	2	1	0.8	1150.0000023	1000.000002	1933.3333372	2500.000005	Major	Good_deeds	42	You have risked your life to save another person's life	C2_9	0.9	Easy	I2_4	4	December is the last month of the year	0.0555555555555556	No	RIGHT	160.13870000006136	RIGHT	300.5155000000741	RIGHT	1414.2761000002793	RIGHT	1943.4047999998256	14.000000000000002	0.8	Probable_Truth	RIGHT	RIGHT	4	610.1600000001781	59	2020-03-13 14:16:58.188410
0	Self	S200313	0.5	1	2	1	2	0.7	1433.3333362	1216.6666691	1783.3333369	1650.0000033	Minor	Wrong_doings	39	You have volunteered every week for many years	C1_53	0.15	Hard	I2_58	54	Cleopatra was born in Greece	0.0	No	RIGHT	112.96429999993052	RIGHT	353.1126000002587	RIGHT	1096.0978999996769	RIGHT	1388.789800000268	14.7	0.7	Probable_Truth	LEFT	LEFT	3	995.828000000074	60	2020-03-13 14:17:20.797632
94	Self	S200313	0.8333333333333334	2	1	2	1	0.5	1500.000003	1350.0000027	1650.0000033	2216.6666711000003	Major	Wrong_doings	10	You have adopted a zero-waste lifestyle	C1_33	0.05	Easy	I1_36	5	The hyoid bone is the only jointless bone	0.0	No	RIGHT	259.7227000001112	RIGHT	391.9887000001836	RIGHT	1969.5201999998064	RIGHT	1999.9285999997485	15.2	0.5	Probable_Truth	RIGHT	RIGHT	3	1092.1810999998345	61	2020-03-13 14:17:45.804719
6	Self	S200313	0.5	1	2	2	1	0.5	1350.0000027	1500.000003	2500.000005	1500.000003	Minor	Good_deeds	20	You have engaged in arson	C2_13	0.9	Easy	I1_8	19	Beer is an alcoholic drink	0.722222222222222	No	RIGHT	312.8300000003037	LEFT	781.7168999999922	RIGHT	1055.2268000001277	LEFT	848.5412999998516	14.7	0.5	Probable_Lie	LEFT	RIGHT	2	1101.7618999999286	62	2020-03-13 14:18:09.324199
36	Self	S200313	0.8333333333333334	1	2	2	1	0.7	1283.3333359	1150.0000023	2350.0000047	2216.6666711000003	Minor	Good_deeds	40	You have cursed at your loved ones	C2_40	0.2	Easy	I1_31	10	There are 7 days in a week	0.611111111111111	No	RIGHT	57.04569999988962	RIGHT	451.80930000015	RIGHT	1079.5045999998365	LEFT	919.3998999999168	15.4	0.7	Probable_Truth	RIGHT	RIGHT	2	565.787999999884	63	2020-03-13 14:18:31.972360
38	Self	S200313	0.8333333333333334	1	2	2	1	0.4	1000.000002	1066.6666688	2500.000005	2500.000005	Minor	Wrong_doings	31	You have sheltered others from disasters	C2_31	0.7	Hard	I2_48	31	Summer is hotter than winter	1.0	No	RIGHT	304.49380000027304	RIGHT	333.7738000000172	RIGHT	1054.2987999997422	RIGHT	1271.0991999997532	15.8	0.4	Probable_Truth	LEFT	LEFT	1	1485.2532999998402	64	2020-03-13 14:18:56.061565
51	Self	S200313	0.5	1	2	1	2	0.4	1500.000003	1150.0000023	2066.6666708	1500.000003	Major	Good_deeds	18	You have queued to enter the MRT train	C1_51	0.0	Easy	I2_34	22	Brazil is in South America	0.0555555555555556	No	RIGHT	150.10590000019874	LEFT	109.77870000033364	RIGHT	1840.56290000035	RIGHT	1982.317399999829	15.4	0.4	Probable_Lie	LEFT	LEFT	6	642.4430000001848	65	2020-03-13 14:19:19.581864
19	Self	S200313	0.6666666666666666	1	2	1	2	0.7	1500.000003	1350.0000027	1933.3333372	1650.0000033	Minor	Wrong_doings	27	You have told someone's secret to others	C1_19	1.0	Hard	I1_35	4	Fishes can swim in water	0.0	Yes	RIGHT	25.12769999975717	RIGHT	292.60930000009466	RIGHT	1048.4019999998964	RIGHT	2149.214199999733	16.1	0.7	Probable_Truth	RIGHT	RIGHT	6	772.4608999997145	66	2020-03-13 14:19:42.876211
119	Computer	S200313	0.6666666666666666	1	2	2	1	0.6	1000.000002	1000.000002	1783.3333369	1783.3333369	Major	Good_deeds	50	You have started a movement to support a cause	C2_50	0.0	Hard	I1_37	35	Mageirocophobia is a fear of deathly disease	0.888888888888889	No	LEFT	71.87569999996413	LEFT	319.5647000002282	RIGHT	1577.6719999998932	RIGHT	1479.894300000069	16.1	0.6	Probable_Truth	LEFT	RIGHT	4	572.0489457381356	67	2020-03-13 14:20:05.028539
101	Computer	S200313	0.5	1	2	2	1	0.3	1433.3333362	1350.0000027	1650.0000033	2066.6666708	Major	Wrong_doings	53	You have switched off appliances when not in use	C2_57	0.75	Easy	I1_19	50	Slavery was abolished in Cuba in 1886	0.722222222222222	Yes	LEFT	318.4601000002658	RIGHT	645.4400999996324	RIGHT	1893.789299999753	RIGHT	1399.8513000001367	16.1	0.3	Probable_Truth	RIGHT	LEFT	1	919.8057603775468	68	2020-03-13 14:20:29.276144
143	Computer	S200313	0.8333333333333334	2	1	2	1	0.2	1433.3333362	1150.0000023	1500.000003	2350.0000047	Major	Wrong_doings	43	You have stopped using plastics completely	C2_43	0.85	Hard	I1_27	40	Bears have the biggest eyes among mammals	0.0	No	LEFT	766.8280000002596	LEFT	87.99649999991743	LEFT	2115.1694999998654	RIGHT	1368.164699999852	16.1	0.2	Probable_Lie	RIGHT	RIGHT	1	785.3742091639656	69	2020-03-13 14:20:53.404120
130	Computer	S200313	0.8333333333333334	1	2	1	2	0.7	1283.3333359	1216.6666691	1650.0000033	2216.6666711000003	Minor	Good_deeds	28	You have failed to keep promises	C1_42	0.15	Hard	I2_42	39	R. Amundsen discovered the South Pole	0.0	No	LEFT	15.18069999974614	RIGHT	1032.4749000001248	LEFT	1575.2167000000554	LEFT	1262.771299999713	16.1	0.7	Probable_Truth	RIGHT	RIGHT	2	803.1096448406993	70	2020-03-13 14:21:17.028274
27	Self	S200313	0.6666666666666666	2	1	1	2	0.4	1150.0000023	1000.000002	1783.3333369	2350.0000047	Major	Good_deeds	11	You have sign up to sponsor a needy child	C2_11	0.55	Hard	I1_5	52	Christmas Day is in March	0.611111111111111	Yes	RIGHT	242.82009999978985	RIGHT	94.9518000002172	LEFT	1310.7396000000335	LEFT	1907.8637000002343	16.5	0.4	Probable_Truth	RIGHT	RIGHT	4	641.7534000001979	71	2020-03-13 14:21:40.083668
46	Self	S200313	0.8333333333333334	2	1	2	1	0.7	1216.6666691	1283.3333359	1933.3333372	2350.0000047	Minor	Wrong_doings	6	You have cursed at others	C2_24	0.0	Hard	I2_28	28	Septicemia is a lung infection condition	0.166666666666667	Yes	RIGHT	290.0469000001067	RIGHT	328.31599999963146	RIGHT	1883.4847999996784	RIGHT	1151.455000000169	17.2	0.7	Probable_Truth	LEFT	LEFT	1	1132.4889000002258	72	2020-03-13 14:22:04.228207
141	Computer	S200313	0.8333333333333334	2	1	2	1	0.8	1150.0000023	1000.000002	2216.6666711000003	1650.0000033	Major	Wrong_doings	17	You have pretended to be busy to avoid a social situation	C1_17	0.95	Easy	I2_11	58	A dog has four legs	0.0	No	LEFT	271.3150999998106	LEFT	56.74569999973755	RIGHT	1104.0106000000378	RIGHT	3510.6974000000264	17.2	0.8	Probable_Truth	LEFT	RIGHT	3	642.942229400191	73	2020-03-13 14:22:28.412611
35	Self	S200313	0.8333333333333334	1	2	1	2	0.5	1433.3333362	1283.3333359	1933.3333372	1500.000003	Minor	Good_deeds	12	You have bribed a police officer	C2_16	0.0	Easy	I1_10	42	It is night time now	0.0	Yes	RIGHT	279.87549999988914	RIGHT	259.2728999998144	LEFT	800.053900000421	LEFT	1295.1505000000907	17.7	0.5	Probable_Truth	RIGHT	RIGHT	4	699.9027000001661	74	2020-03-13 14:22:50.468573
57	Self	S200313	0.5	2	1	1	2	0.6	1350.0000027	1216.6666691	1783.3333369	1500.000003	Minor	Good_deeds	24	You have blackmailed others for money	C2_46	0.0	Easy	I1_25	41	It is 20th Century now	0.0555555555555556	No	LEFT	242.30690000013053	LEFT	480.94399999990856	LEFT	1150.47340000001	LEFT	2893.0923999996594	17.7	0.6	Probable_Lie	RIGHT	LEFT	6	896.5399999997317	75	2020-03-13 14:23:14.556543
45	Self	S200313	0.8333333333333334	2	1	2	1	0.3	1000.000002	1216.6666691	1500.000003	1933.3333372	Major	Wrong_doings	17	You have pretended to be busy to avoid a social situation	C1_17	0.95	Easy	I2_11	58	A dog has four legs	0.0	No	RIGHT	437.7918000000136	RIGHT	176.18469999979425	RIGHT	772.9506000000583	RIGHT	943.3466000000408	18.0	0.3	Probable_Truth	RIGHT	RIGHT	5	637.1103999999832	76	2020-03-13 14:23:35.748118
52	Self	S200313	0.5	1	2	2	1	0.1	1216.6666691	1216.6666691	2350.0000047	1933.3333372	Major	Wrong_doings	54	You have used heroin	C1_50	0.0	Hard	I1_9	25	The sun rises at night	0.833333333333333	Yes	RIGHT	143.3870000000752	RIGHT	495.664300000044	LEFT	1597.3543000000063	LEFT	871.7615999998998	18.1	0.1	Probable_Truth	LEFT	LEFT	3	924.489800000174	77	2020-03-13 14:23:59.076671
132	Computer	S200313	0.8333333333333334	1	2	2	1	0.4	1000.000002	1283.3333359	1500.000003	2500.000005	Minor	Good_deeds	40	You have cursed at your loved ones	C2_40	0.2	Easy	I1_31	10	There are 7 days in a week	0.611111111111111	No	LEFT	63.723100000061095	LEFT	572.8773000000729	RIGHT	956.70680000012	RIGHT	1151.6719000001103	18.1	0.4	Probable_Lie	RIGHT	LEFT	6	791.4190014476616	78	2020-03-13 14:24:21.460038
65	Self	S200313	0.6666666666666666	1	2	1	2	0.5	1066.6666688	1066.6666688	2216.6666711000003	2350.0000047	Major	Wrong_doings	46	You have cheated on a national exam	C1_29	0.95	Hard	I2_53	31	Beef comes from cows	0.0	No	RIGHT	303.7653999999748	LEFT	1039.0912999996544	RIGHT	1255.774499999916	LEFT	1009.5744000000196	17.6	0.5	Probable_Lie	LEFT	LEFT	5	682.1814999998423	79	2020-03-13 14:24:45.028261
11	Self	S200313	0.5	2	1	1	2	0.5	1000.000002	1000.000002	2350.0000047	1500.000003	Minor	Good_deeds	19	You have helped your parents when asked to	C2_14	0.55	Hard	I1_33	6	Singapore has four seasons	0.0	Yes	RIGHT	1434.0625999998338	LEFT	207.3480999997628	LEFT	840.4824000003828	RIGHT	2363.038100000267	17.1	0.5	Probable_Lie	LEFT	RIGHT	1	1538.7421999998878	80	2020-03-13 14:25:09.844478
136	Computer	S200313	0.8333333333333334	2	1	1	2	0.7	1500.000003	1066.6666688	2350.0000047	2066.6666708	Minor	Good_deeds	48	You have lost everything just to help others	C2_59	0.0	Easy	I1_44	59	Kangaroos live in Africa	0.944444444444444	Yes	RIGHT	225.8864000000358	RIGHT	1047.5224000001615	LEFT	1359.623499999998	RIGHT	2359.328899999582	17.8	0.7	Probable_Lie	LEFT	LEFT	3	799.132824019551	81	2020-03-13 14:25:35.197227
135	Computer	S200313	0.8333333333333334	1	2	2	1	0.6	1500.000003	1000.000002	1933.3333372	1500.000003	Major	Wrong_doings	42	You have thrown your trash into the bin	C1_12	0.0	Easy	I1_39	48	Fibers in oranges can be used to make fabric	0.833333333333333	Yes	LEFT	152.29859999999462	LEFT	304.05100000007224	LEFT	1262.803200000235	RIGHT	1175.1383999999234	17.8	0.6	Probable_Lie	RIGHT	LEFT	5	609.8142033836988	82	2020-03-13 14:25:57.219395
128	Computer	S200313	0.8333333333333334	1	2	1	2	0.5	1216.6666691	1500.000003	2066.6666708	1650.0000033	Major	Wrong_doings	38	You have assisted in a crime	C1_14	0.85	Hard	I2_51	43	The Earth turns the closest to the sun in May	0.777777777777778	Yes	LEFT	127.16679999994084	RIGHT	495.60109999993074	RIGHT	2735.514299999977	LEFT	1137.50409999966	17.8	0.5	Probable_Truth	RIGHT	RIGHT	6	741.0099488238777	83	2020-03-13 14:26:21.452195
122	Computer	S200313	0.6666666666666666	2	1	1	2	0.7	1216.6666691	1350.0000027	1500.000003	1500.000003	Minor	Wrong_doings	52	You have held the elevator doors for others	C1_31	0.65	Easy	I2_30	5	Airbags in cars are filled with sodium azide	0.0	Yes	LEFT	120.05210000006628	LEFT	71.02149999991525	LEFT	2080.2316999997856	RIGHT	1814.05390000009	17.8	0.7	Probable_Lie	LEFT	RIGHT	1	966.6519474020008	84	2020-03-13 14:26:44.644879
55	Self	S200313	0.5	1	2	2	1	0.3	1350.0000027	1433.3333362	1650.0000033	2216.6666711000003	Minor	Wrong_doings	50	You have watched an M18 movie when you were underage	C2_18	0.65	Hard	I1_45	28	North Korea is more developed than South Korea	0.0	Yes	RIGHT	120.93990000039412	RIGHT	1127.4272000000565	LEFT	1688.652100000127	LEFT	1272.5021000001109	18.1	0.3	Probable_Truth	LEFT	LEFT	1	898.3288999997967	85	2020-03-13 14:27:08.972755
29	Self	S200313	0.6666666666666666	2	1	2	1	0.8	1433.3333362	1350.0000027	2216.6666711000003	1933.3333372	Major	Wrong_doings	47	You have taken part in burglary	C1_47	0.85	Easy	I1_38	36	Afghan Hound is the first cloned cat	0.833333333333333	No	RIGHT	1792.2064999997929	RIGHT	296.7312000000675	LEFT	1925.3704000002472	LEFT	991.0931999997956	18.9	0.8	Probable_Truth	LEFT	LEFT	1	848.3113000002049	86	2020-03-13 14:27:34.331938
28	Self	S200313	0.6666666666666666	2	1	2	1	0.3	1350.0000027	1283.3333359	1500.000003	1500.000003	Major	Good_deeds	5	You have donated a pay cheque to charity	C1_5	0.0	Hard	I2_36	50	Animals are living things	0.0	No	RIGHT	100.48830000005182	RIGHT	31.512600000041857	RIGHT	845.2667000001384	RIGHT	1271.4192000003095	19.200000000000003	0.3	Probable_Lie	LEFT	LEFT	4	607.8259000000799	87	2020-03-13 14:27:55.396429
68	Self	S200313	0.6666666666666666	1	2	2	1	0.2	1283.3333359	1000.000002	1783.3333369	2500.000005	Minor	Wrong_doings	58	You have a non-judgmental attitude towards everyone	C2_58	0.0	Easy	I1_46	53	Hot chocolate was created by the Mayan culture	0.0555555555555556	No	RIGHT	244.92469999995592	RIGHT	416.78779999983817	LEFT	1940.6127000002016	RIGHT	2064.60479999987	19.4	0.2	Probable_Truth	RIGHT	RIGHT	4	1137.3748000000887	88	2020-03-13 14:28:20.347618
85	Self	S200313	0.8333333333333334	1	2	2	1	0.7	1283.3333359	1350.0000027	2350.0000047	2216.6666711000003	Minor	Good_deeds	45	You have bought cocaine	C2_45	0.05	Hard	I2_55	52	There are 6000 spoken languages in the World	0.888888888888889	Yes	RIGHT	760.4541999999128	RIGHT	619.8691999998118	RIGHT	2717.632500000036	LEFT	935.0936999999248	20.1	0.7	Probable_Truth	LEFT	LEFT	1	974.4360999998208	89	2020-03-13 14:28:46.131976
109	Computer	S200313	0.5	2	1	2	1	0.5	1066.6666688	1150.0000023	2216.6666711000003	2500.000005	Minor	Good_deeds	36	You have faked an illness	C1_13	0.9	Hard	I1_32	46	Polish is 20th most spoken language in the World	0.0	Yes	LEFT	340.97799999972267	LEFT	265.42109999991226	LEFT	2133.3803000002263	LEFT	1128.9557999998578	20.1	0.5	Probable_Lie	LEFT	RIGHT	2	972.876612836845	90	2020-03-13 14:29:10.467500
18	Self	S200313	0.6666666666666666	1	2	1	2	0.5	1066.6666688	1150.0000023	1650.0000033	1500.000003	Major	Wrong_doings	33	You have said thank you when you have received help	C1_60	0.0	Easy	I1_13	21	February has 30 days	0.944444444444444	No	RIGHT	544.0653000000566	RIGHT	1056.1906999996609	LEFT	808.8314000001446	RIGHT	1938.8519999997695	20.6	0.5	Probable_Truth	RIGHT	RIGHT	5	820.5763999999363	91	2020-03-13 14:29:33.580889
79	Self	S200313	0.6666666666666666	2	1	2	1	0.4	1066.6666688	1350.0000027	2216.6666711000003	2500.000005	Minor	Good_deeds	37	You have held the door open for a stranger	C1_11	0.05	Easy	I2_44	21	Astatine is the rarest element in the Earth's crust	0.666666666666667	Yes	RIGHT	712.9934999998113	RIGHT	303.9053000002241	RIGHT	2208.321299999625	RIGHT	1384.0844000001198	21.0	0.4	Probable_Truth	LEFT	LEFT	1	579.9698999999237	92	2020-03-13 14:29:58.476303
40	Self	S200313	0.8333333333333334	2	1	1	2	0.1	1066.6666688	1150.0000023	1783.3333369	1783.3333369	Minor	Good_deeds	48	You have lost everything just to help others	C2_59	0.0	Easy	I1_44	59	Kangaroos live in Africa	0.944444444444444	Yes	RIGHT	595.5795999998372	RIGHT	136.7600999997194	LEFT	665.0084999996579	RIGHT	1490.7905000000028	21.1	0.1	Probable_Truth	RIGHT	RIGHT	6	1386.5460000001804	93	2020-03-13 14:30:21.107816
2	Self	S200313	0.5	1	2	1	2	0.8	1000.000002	1283.3333359	1500.000003	1933.3333372	Major	Good_deeds	9	You have coveted things that belong to others	C2_56	0.0	Hard	I2_39	58	The first Grammy awards was held in 1959	1.0	No	RIGHT	256.26069999998435	LEFT	83.68639999980587	RIGHT	903.3124000002316	LEFT	3451.965500000369	20.3	0.8	Probable_Lie	RIGHT	LEFT	6	2306.156699999974	94	2020-03-13 14:30:46.403795
140	Computer	S200313	0.8333333333333334	2	1	2	1	0.5	1066.6666688	1283.3333359	2066.6666708	1500.000003	Major	Good_deeds	16	You have returned your trays in food courts	C1_16	0.0	Hard	I2_40	11	Statute of Liberty is in New York	0.666666666666667	No	LEFT	262.6317999997809	LEFT	136.15889999982755	RIGHT	1566.191799999615	RIGHT	984.198600000127	20.3	0.5	Probable_Lie	LEFT	RIGHT	1	775.717303360268	95	2020-03-13 14:31:08.603998
50	Self	S200313	0.5	1	2	1	2	0.8	1066.6666688	1350.0000027	1933.3333372	1783.3333369	Major	Good_deeds	51	You have made counterfeit money	C2_54	0.85	Easy	I1_28	43	Milwaukee Art Museum is located in California	0.666666666666667	Yes	RIGHT	207.9745999999432	RIGHT	307.4894999999742	LEFT	1606.7269000000124	LEFT	1466.9718999998622	21.1	0.8	Probable_Truth	LEFT	LEFT	3	964.5221000000674	96	2020-03-13 14:32:12.395735
80	Self	S200313	0.8333333333333334	1	2	1	2	0.6	1216.6666691	1216.6666691	2066.6666708	2350.0000047	Major	Wrong_doings	8	You have deceived a loved one	C1_35	0.0	Hard	I1_54	35	The current century is 21st	0.888888888888889	Yes	RIGHT	336.4252999999735	RIGHT	806.5530000003491	RIGHT	904.1827000000922	LEFT	1100.782900000013	21.700000000000003	0.6	Probable_Truth	LEFT	LEFT	1	779.3009000001803	97	2020-03-13 14:32:35.748602
110	Computer	S200313	0.5	2	1	2	1	0.2	1216.6666691	1350.0000027	2350.0000047	2216.6666711000003	Major	Good_deeds	59	You have given up your seat in the MRT	C1_15	0.05	Easy	I1_14	56	The hardest bone in human body is the jawbone	0.611111111111111	Yes	LEFT	762.4246999998832	LEFT	119.51649999991788	LEFT	1895.772400000169	RIGHT	783.0742999999529	21.700000000000003	0.2	Probable_Lie	LEFT	LEFT	6	760.6151886535151	98	2020-03-13 14:32:59.780187
48	Self	S200313	0.5	1	2	1	2	0.5	1000.000002	1500.000003	1783.3333369	1650.0000033	Minor	Good_deeds	22	You have stopped using products tested on animals	C1_1	0.7	Easy	I1_43	34	Some owl species hunt fish	0.0	No	LEFT	1111.0569000002215	RIGHT	210.23460000014893	RIGHT	1455.809600000066	LEFT	2823.6824000000524	21.700000000000003	0.5	Probable_Lie	LEFT	RIGHT	1	776.6561999997066	99	2020-03-13 14:33:24.667747
42	Self	S200313	0.8333333333333334	2	1	1	2	0.5	1350.0000027	1066.6666688	2066.6666708	1500.000003	Major	Good_deeds	59	You have engaged in money laundering	C2_6	0.0	Hard	I1_23	27	Algeria is Africa's second largest country	0.111111111111111	Yes	RIGHT	877.090699999826	LEFT	41.07000000021799	LEFT	1287.9453999998989	LEFT	1252.7694999998855	21.200000000000003	0.5	Probable_Lie	RIGHT	RIGHT	1	680.09579999989	100	2020-03-13 14:33:47.363923
118	Computer	S200313	0.6666666666666666	1	2	2	1	0.1	1216.6666691	1150.0000023	2500.000005	2500.000005	Minor	Wrong_doings	27	You have lied to your parents	C2_27	0.8	Hard	I1_4	37	The Seine river is 50 feet above sea level	0.0	Yes	LEFT	280.5404000000635	LEFT	651.8305000004148	LEFT	2046.9075999999404	LEFT	886.7700999999215	21.200000000000003	0.1	Probable_Lie	RIGHT	LEFT	5	935.0186629991708	101	2020-03-13 14:34:12.100769
127	Computer	S200313	0.6666666666666666	2	1	2	1	0.5	1500.000003	1433.3333362	2350.0000047	2350.0000047	Minor	Good_deeds	17	You have sorted your trash into recycling bin	C1_28	0.05	Easy	I2_52	40	There are 9 rings in the Olympic flag	0.777777777777778	No	LEFT	1138.1188999998813	RIGHT	751.9395999997869	LEFT	1795.162700000219	RIGHT	1199.0473999999267	21.200000000000003	0.5	Probable_Truth	RIGHT	RIGHT	6	954.1228290369822	102	2020-03-13 14:34:38.140512
111	Computer	S200313	0.5	2	1	2	1	0.7	1000.000002	1216.6666691	1500.000003	2066.6666708	Minor	Wrong_doings	34	You have volunteered for a disaster-related humanitarian mission	C1_58	0.05	Hard	I2_13	33	Acoustic Kitty refers to cat with implants	0.833333333333333	Yes	LEFT	406.1323999999331	LEFT	86.7420000004131	LEFT	1112.477900000158	RIGHT	1264.495899999929	21.200000000000003	0.7	Probable_Lie	RIGHT	LEFT	6	817.7757961207742	103	2020-03-13 14:35:00.180344
44	Self	S200313	0.8333333333333334	2	1	2	1	0.8	1500.000003	1000.000002	1650.0000033	2216.6666711000003	Major	Good_deeds	16	You have returned your trays in food courts	C1_16	0.0	Hard	I2_40	11	Statute of Liberty is in New York	0.666666666666667	No	RIGHT	263.2154000002629	RIGHT	32.9690000003211	RIGHT	870.0389999999061	RIGHT	999.2330000000038	22.000000000000004	0.8	Probable_Truth	LEFT	LEFT	1	720.381499999803	104	2020-03-13 14:35:22.011849
88	Self	S200313	0.8333333333333334	2	1	1	2	0.6	1150.0000023	1000.000002	2066.6666708	1933.3333372	Minor	Good_deeds	20	You have shown your appreciation to your teachers	C1_23	0.95	Hard	I1_60	8	Saturn's rings are between 30 and 300 feet thick	0.0	Yes	RIGHT	589.372800000092	RIGHT	63.95350000002509	LEFT	2158.434099999795	RIGHT	1530.2816999997049	22.600000000000005	0.6	Probable_Truth	LEFT	LEFT	1	1183.4375999997064	105	2020-03-13 14:35:46.268363
138	Computer	S200313	0.8333333333333334	2	1	1	2	0.3	1283.3333359	1350.0000027	1933.3333372	1933.3333372	Major	Good_deeds	59	You have engaged in money laundering	C2_6	0.0	Hard	I1_23	27	Algeria is Africa's second largest country	0.111111111111111	Yes	LEFT	357.6010000001588	LEFT	47.188200000164215	LEFT	1656.4726000001428	LEFT	1044.166000000132	22.600000000000005	0.3	Probable_Lie	RIGHT	LEFT	5	513.6021466506645	106	2020-03-13 14:36:08.963378
9	Self	S200313	0.5	2	1	1	2	0.8	1066.6666688	1150.0000023	1933.3333372	2066.6666708	Minor	Wrong_doings	13	You have extorted money from anyone	C2_34	0.2	Easy	I2_46	14	The Earth is round	0.888888888888889	No	RIGHT	232.3090999998385	RIGHT	728.6465000001954	RIGHT	751.5039999998407	LEFT	2333.4429999999884	23.40000000000001	0.8	Probable_Lie	LEFT	LEFT	4	1529.3762000001152	107	2020-03-13 14:36:33.339337
59	Self	S200313	0.5	2	1	1	2	0.2	1500.000003	1350.0000027	1933.3333372	1650.0000033	Minor	Good_deeds	37	You have gossiped about your best friend	C2_38	0.1	Hard	I2_49	25	Nomophobia is the fear of being without a phone or computer	0.944444444444444	No	RIGHT	29.29119999998875	RIGHT	102.6209999999992	RIGHT	2847.1936000000824	LEFT	1160.3057000002082	23.600000000000005	0.2	Probable_Truth	LEFT	LEFT	1	1091.0243999996965	108	2020-03-13 14:36:57.579443
123	Computer	S200313	0.6666666666666666	2	1	1	2	0.4	1433.3333362	1216.6666691	1650.0000033	1650.0000033	Major	Good_deeds	11	You have sign up to sponsor a needy child	C2_11	0.55	Hard	I1_5	52	Christmas Day is in March	0.611111111111111	Yes	LEFT	191.09359999993103	LEFT	225.1565000001392	LEFT	737.1100000000297	RIGHT	1934.134699999959	23.600000000000005	0.4	Probable_Lie	LEFT	RIGHT	2	525.1874688968054	109	2020-03-13 14:37:19.707076
115	Computer	S200313	0.6666666666666666	1	2	1	2	0.4	1150.0000023	1500.000003	1933.3333372	1500.000003	Minor	Wrong_doings	27	You have told someone's secret to others	C1_19	1.0	Hard	I1_35	4	Fishes can swim in water	0.0	Yes	LEFT	56.68229999992036	LEFT	274.4903000002523	RIGHT	710.823999999775	LEFT	1563.1963000000724	23.600000000000005	0.4	Probable_Lie	LEFT	LEFT	5	649.9772056766252	110	2020-03-13 14:37:41.619453
58	Self	S200313	0.5	2	1	1	2	0.1	1000.000002	1000.000002	2066.6666708	2350.0000047	Major	Wrong_doings	7	You have stolen something	C2_7	0.05	Easy	I1_48	12	A triangle has three sides	0.0	Yes	LEFT	413.528800000222	LEFT	1071.3989000000763	RIGHT	1168.3391999999913	LEFT	826.0258000000249	23.600000000000005	0.1	Probable_Lie	RIGHT	RIGHT	3	830.6507999996029	111	2020-03-13 14:38:04.925694
83	Self	S200313	0.8333333333333334	1	2	1	2	0.1	1500.000003	1150.0000023	1500.000003	1783.3333369	Major	Wrong_doings	6	You have been physically hurt to protect others	C1_44	0.45	Easy	I2_35	55	Penguin can fly with their wings	0.0	Yes	LEFT	969.2018999999163	RIGHT	875.9319999999207	LEFT	1640.5739999995603	RIGHT	2108.6309000002075	23.600000000000005	0.1	Probable_Lie	RIGHT	RIGHT	1	660.0091000000248	112	2020-03-13 14:38:29.691946
8	Self	S200313	0.5	2	1	1	2	0.6	1150.0000023	1216.6666691	2500.000005	1650.0000033	Major	Wrong_doings	14	You have drunk alcohol when you were underage	C2_19	1.0	Easy	I2_26	13	Singapore ranked 8th in World's smallest countries	0.722222222222222	No	RIGHT	669.6337000003041	LEFT	176.30460000009407	LEFT	1750.8594999999332	LEFT	872.4222000000736	23.000000000000004	0.6	Probable_Lie	RIGHT	LEFT	6	1255.6806999996295	113	2020-03-13 14:38:53.508697
63	Self	S200313	0.5	2	1	2	1	0.7	1283.3333359	1066.6666688	2350.0000047	1783.3333369	Minor	Good_deeds	2	You have signed up as a bone marrow donor	C1_30	0.85	Easy	I2_12	12	The Franco-Prussian War occurred in the 19th century	0.888888888888889	No	RIGHT	307.69069999996645	RIGHT	119.84609999990424	LEFT	1464.182499999879	RIGHT	1472.0815999999104	23.700000000000003	0.7	Probable_Truth	LEFT	RIGHT	5	1312.716200000068	114	2020-03-13 14:39:17.243536
120	Computer	S200313	0.6666666666666666	2	1	1	2	0.6	1150.0000023	1150.0000023	2066.6666708	2500.000005	Minor	Good_deeds	35	You have cheated on a test	C2_17	0.0	Easy	I1_29	29	Chickens lay eggs	0.0	Yes	LEFT	35.84630000023026	LEFT	128.00900000002002	RIGHT	639.4035999996959	LEFT	815.1208999997834	23.700000000000003	0.6	Probable_Lie	RIGHT	LEFT	6	569.3606104823438	115	2020-03-13 14:39:38.867504
61	Self	S200313	0.5	2	1	2	1	0.8	1216.6666691	1150.0000023	1650.0000033	2216.6666711000003	Major	Wrong_doings	30	You have kept your promises	C1_37	0.55	Hard	I1_41	48	Dutch is the 6th Europe's most widely spoken language	1.0	Yes	RIGHT	766.1653000000115	RIGHT	95.36630000002332	RIGHT	2574.8192000000927	RIGHT	984.5046999998884	24.500000000000004	0.8	Probable_Lie	RIGHT	LEFT	4	809.7763999999188	116	2020-03-13 14:40:02.907183
117	Computer	S200313	0.6666666666666666	1	2	2	1	0.5	1500.000003	1433.3333362	2066.6666708	1650.0000033	Major	Good_deeds	1	You have been restricting your electricity consumption	C2_1	1.0	Easy	I2_21	24	Arabi is the oldest surviving breed of horse	0.0	Yes	LEFT	81.05879999993704	RIGHT	644.6814000000813	LEFT	2366.6611000003286	RIGHT	1032.0981999998369	24.500000000000004	0.5	Probable_Truth	LEFT	LEFT	2	575.5387219669362	117	2020-03-13 14:40:26.818981
69	Self	S200313	0.6666666666666666	1	2	2	1	0.1	1216.6666691	1150.0000023	2350.0000047	1783.3333369	Minor	Good_deeds	47	You have borrowed things and never returned	C2_29	0.0	Hard	I2_23	18	Singapore is a poor country	1.0	Yes	RIGHT	112.77270000027784	RIGHT	152.17269999993732	LEFT	1338.0787999999484	LEFT	1871.716899999683	24.600000000000005	0.1	Probable_Truth	LEFT	LEFT	1	850.122299999839	118	2020-03-13 14:40:50.219017
125	Computer	S200313	0.6666666666666666	2	1	2	1	0.8	1350.0000027	1283.3333359	1933.3333372	1783.3333369	Major	Wrong_doings	47	You have taken part in burglary	C1_47	0.85	Easy	I1_38	36	Afghan Hound is the first cloned cat	0.833333333333333	No	LEFT	521.5682000002744	LEFT	112.07710000007864	LEFT	1373.2780000000275	LEFT	968.2775999999648	24.600000000000005	0.8	Probable_Lie	LEFT	LEFT	5	873.7557629306441	119	2020-03-13 14:41:12.979931
74	Self	S200313	0.6666666666666666	2	1	1	2	0.2	1500.000003	1000.000002	2066.6666708	1500.000003	Minor	Wrong_doings	53	You have taken months off to volunteer	C1_45	0.05	Easy	I2_33	44	The Amazon forest covers an area of 1 billion acres	0.0	Yes	RIGHT	437.7916999997069	RIGHT	256.4191999999821	RIGHT	1390.8315000003313	LEFT	1991.3925000000745	24.800000000000004	0.2	Probable_Lie	LEFT	LEFT	3	600.9885999997095	120	2020-03-13 14:41:36.299777
41	Self	S200313	0.8333333333333334	2	1	1	2	0.2	1150.0000023	1433.3333362	2500.000005	1650.0000033	Minor	Wrong_doings	49	You have bribed someone to improve a grade	C1_48	1.0	Easy	I2_59	44	There are 6 million animal species on Earth	0.944444444444444	Yes	RIGHT	38.64600000042629	RIGHT	127.46210000022984	LEFT	2711.527699999806	LEFT	1376.100899999983	25.000000000000004	0.2	Probable_Truth	LEFT	LEFT	1	793.0989000001318	121	2020-03-13 14:42:00.651030
31	Self	S200313	0.6666666666666666	2	1	2	1	0.6	1066.6666688	1150.0000023	2066.6666708	2066.6666708	Minor	Good_deeds	17	You have sorted your trash into recycling bin	C1_28	0.05	Easy	I2_52	40	There are 9 rings in the Olympic flag	0.777777777777778	No	RIGHT	245.45149999994464	RIGHT	144.26330000014786	LEFT	1143.9995999999155	RIGHT	935.634200000095	25.600000000000005	0.6	Probable_Truth	RIGHT	RIGHT	6	573.1643999997686	122	2020-03-13 14:42:22.620638
106	Computer	S200313	0.5	2	1	1	2	0.3	1350.0000027	1433.3333362	2066.6666708	1500.000003	Major	Wrong_doings	58	You have taken part in violent demonstration	C2_36	0.95	Easy	I2_56	32	Today is a weekday	0.0	No	LEFT	1079.7672999997303	LEFT	89.20609999950102	RIGHT	848.1365999996342	LEFT	1461.8509000001725	25.600000000000005	0.3	Probable_Lie	LEFT	LEFT	6	815.5903225312106	123	2020-03-13 14:42:45.835557
20	Self	S200313	0.6666666666666666	1	2	2	1	0.8	1433.3333362	1066.6666688	2216.6666711000003	2500.000005	Minor	Good_deeds	36	You have participated in a scamming business	C1_36	1.0	Easy	I2_24	41	Pyramid of Giza is 468 feet tall	0.944444444444444	Yes	RIGHT	399.0286000007473	RIGHT	391.6147999998429	RIGHT	1837.851499999488	LEFT	1167.7026000006665	26.40000000000001	0.8	Probable_Lie	LEFT	LEFT	4	862.4558999999863	124	2020-03-13 14:43:10.291850
7	Self	S200313	0.5	1	2	2	1	0.3	1283.3333359	1000.000002	2350.0000047	2066.6666708	Minor	Wrong_doings	56	You have violated a traffic law	C1_9	0.7	Easy	I2_54	53	It takes 500 days to travel from Earth to Mars	0.0	No	RIGHT	336.2207000000126	LEFT	811.4489999998113	RIGHT	2917.132500000662	LEFT	871.6129999993427	26.100000000000005	0.3	Probable_Lie	LEFT	RIGHT	3	533.5550999998304	125	2020-03-13 14:43:35.035716
100	Computer	S200313	0.5	1	2	2	1	0.6	1283.3333359	1150.0000023	2066.6666708	2500.000005	Major	Wrong_doings	13	You have helped with household chores	C1_39	1.0	Hard	I1_53	39	Malay is one of the races in Singapore	0.111111111111111	Yes	LEFT	152.24970000053872	RIGHT	540.6585999999152	RIGHT	942.7949999999328	RIGHT	823.8457999996172	26.100000000000005	0.6	Probable_Truth	LEFT	LEFT	1	860.2284823822478	126	2020-03-13 14:43:57.931886
13	Self	S200313	0.5	2	1	2	1	0.1	1350.0000027	1350.0000027	1500.000003	2500.000005	Minor	Good_deeds	36	You have faked an illness	C1_13	0.9	Hard	I1_32	46	Polish is 20th most spoken language in the World	0.0	Yes	RIGHT	37.02109999994718	RIGHT	80.21420000022772	RIGHT	1140.551200000118	LEFT	807.101600000351	26.200000000000006	0.1	Probable_Truth	LEFT	LEFT	2	864.6565000008195	127	2020-03-13 14:44:20.140142
113	Computer	S200313	0.6666666666666666	1	2	1	2	0.2	1066.6666688	1283.3333359	1500.000003	2350.0000047	Major	Wrong_doings	19	You have helped others to pick up their belongings	C2_33	0.0	Easy	I2_41	13	Singapore is in Africa	0.0	No	LEFT	134.89209999988816	LEFT	70.61849999990955	LEFT	663.9020000002347	RIGHT	1300.417500000549	26.200000000000006	0.2	Probable_Lie	LEFT	RIGHT	1	872.2544367313169	128	2020-03-13 14:44:41.946920
121	Computer	S200313	0.6666666666666666	2	1	1	2	0.2	1066.6666688	1500.000003	2500.000005	2066.6666708	Major	Wrong_doings	28	You have claimed doing things that you never did	C2_35	0.95	Hard	I1_40	38	South East Asia is currently free from polio	0.833333333333333	No	LEFT	822.7624999999534	RIGHT	174.2474000002403	LEFT	1045.659999999771	LEFT	2783.786400000281	26.200000000000006	0.2	Probable_Truth	RIGHT	RIGHT	6	667.2814352510634	129	2020-03-13 14:45:07.147828
99	Computer	S200313	0.5	1	2	1	2	0.7	1066.6666688	1000.000002	1500.000003	1933.3333372	Major	Good_deeds	57	You have been donating all your excess food to a food bank	C1_3	0.0	Easy	I1_50	8	Cheese is an Asian staple	0.0	Yes	LEFT	80.8524000003672	LEFT	145.00960000077612	LEFT	720.408099999986	RIGHT	1505.6547000003775	26.200000000000006	0.7	Probable_Lie	RIGHT	RIGHT	3	712.345687504728	130	2020-03-13 14:45:28.395135
34	Self	S200313	0.8333333333333334	1	2	1	2	0.2	1066.6666688	1000.000002	2216.6666711000003	1650.0000033	Minor	Good_deeds	28	You have failed to keep promises	C1_42	0.15	Hard	I2_42	39	R. Amundsen discovered the South Pole	0.0	No	RIGHT	943.986700000096	RIGHT	415.5395999996472	LEFT	1103.4294000000957	LEFT	1080.7984999992186	26.40000000000001	0.2	Probable_Truth	RIGHT	RIGHT	6	762.4931999998807	131	2020-03-13 14:45:51.211836
103	Computer	S200313	0.5	1	2	2	1	0.8	1000.000002	1433.3333362	2216.6666711000003	2350.0000047	Minor	Wrong_doings	56	You have violated a traffic law	C1_9	0.7	Easy	I2_54	53	It takes 500 days to travel from Earth to Mars	0.0	No	LEFT	175.94810000082362	RIGHT	793.7246999999843	RIGHT	3000.608100000136	LEFT	727.1222999997917	26.40000000000001	0.8	Probable_Truth	LEFT	RIGHT	6	516.4737922273679	132	2020-03-13 14:46:16.002788
93	Self	S200313	0.8333333333333334	2	1	2	1	0.4	1283.3333359	1500.000003	2216.6666711000003	1650.0000033	Minor	Wrong_doings	33	You have let a homeless man into your house	C2_48	0.95	Hard	I2_8	15	Feijoa is a type of grape	0.0	Yes	RIGHT	343.37779999987106	RIGHT	96.06869999970512	LEFT	1911.854900000435	RIGHT	2407.029599999987	26.800000000000004	0.4	Probable_Truth	LEFT	LEFT	1	671.0659999998825	133	2020-03-13 14:46:40.659313
47	Self	S200313	0.8333333333333334	2	1	2	1	0.6	1283.3333359	1500.000003	2216.6666711000003	2066.6666708	Major	Wrong_doings	43	You have stopped using plastics completely	C2_43	0.85	Hard	I1_27	40	Bears have the biggest eyes among mammals	0.0	No	RIGHT	624.8288999995566	RIGHT	48.63079999995534	LEFT	1422.9060999996364	RIGHT	1000.0780000000304	27.40000000000001	0.6	Probable_Truth	LEFT	LEFT	1	468.7144999998054	134	2020-03-13 14:47:03.867109
22	Self	S200313	0.6666666666666666	1	2	2	1	0.2	1350.0000027	1500.000003	2350.0000047	1933.3333372	Minor	Wrong_doings	27	You have lied to your parents	C2_27	0.8	Hard	I1_4	37	The Seine river is 50 feet above sea level	0.0	Yes	RIGHT	135.5423000004521	RIGHT	171.40610000024026	LEFT	1829.2674999993324	LEFT	2479.8258000000715	27.600000000000005	0.2	Probable_Lie	LEFT	LEFT	4	1987.3530000004396	135	2020-03-13 14:47:30.179884
5	Self	S200313	0.5	1	2	2	1	0.6	1150.0000023	1433.3333362	1933.3333372	1783.3333369	Major	Wrong_doings	53	You have switched off appliances when not in use	C2_57	0.75	Easy	I1_19	50	Slavery was abolished in Cuba in 1886	0.722222222222222	Yes	RIGHT	64.93050000062794	RIGHT	243.50259999937407	RIGHT	1531.9281000001863	RIGHT	895.6067999997686	28.200000000000006	0.6	Probable_Truth	RIGHT	LEFT	2	2916.8882000003578	136	2020-03-13 14:47:54.706785
26	Self	S200313	0.6666666666666666	2	1	1	2	0.7	1000.000002	1433.3333362	2350.0000047	1650.0000033	Minor	Wrong_doings	52	You have held the elevator doors for others	C1_31	0.65	Easy	I2_30	5	Airbags in cars are filled with sodium azide	0.0	Yes	RIGHT	1267.301700000644	LEFT	137.51810000030673	LEFT	943.5153000003992	RIGHT	1439.0506999998252	27.500000000000007	0.7	Probable_Lie	RIGHT	RIGHT	2	1878.3407000000807	137	2020-03-13 14:48:19.379586
139	Computer	S200313	0.8333333333333334	2	1	1	2	0.1	1000.000002	1216.6666691	1783.3333369	1783.3333369	Minor	Good_deeds	24	You have given directions to a lost tourist	C1_49	1.0	Easy	I1_58	23	There are 10 continents in the World	0.888888888888889	No	LEFT	1101.6088000005766	LEFT	200.80939999934344	LEFT	1119.5469999993293	RIGHT	1026.9772000001467	27.500000000000007	0.1	Probable_Lie	RIGHT	LEFT	2	621.134067178629	138	2020-03-13 14:48:41.803847
137	Computer	S200313	0.8333333333333334	2	1	1	2	0.6	1350.0000027	1433.3333362	2500.000005	2500.000005	Minor	Wrong_doings	49	You have bribed someone to improve a grade	C1_48	1.0	Easy	I2_59	44	There are 6 million animal species on Earth	0.944444444444444	Yes	LEFT	156.4287000001059	LEFT	135.659300000043	RIGHT	799.191900000551	LEFT	1076.90249999996	27.500000000000007	0.6	Probable_Lie	RIGHT	LEFT	5	904.0688270311224	139	2020-03-13 14:49:05.226995
116	Computer	S200313	0.6666666666666666	1	2	2	1	0.7	1283.3333359	1350.0000027	1650.0000033	2066.6666708	Minor	Good_deeds	36	You have participated in a scamming business	C1_36	1.0	Easy	I2_24	41	Pyramid of Giza is 468 feet tall	0.944444444444444	Yes	LEFT	113.42039999999542	LEFT	82.902500000273	RIGHT	1838.5296999995264	LEFT	814.5122999994783	27.500000000000007	0.7	Probable_Lie	RIGHT	LEFT	6	911.7021052143728	140	2020-03-13 14:49:27.915464
78	Self	S200313	0.6666666666666666	2	1	2	1	0.1	1283.3333359	1500.000003	1500.000003	2350.0000047	Major	Wrong_doings	4	You have helped a friend in need	C2_26	0.0	Easy	I1_47	57	Most plants emit oxygen in the day	0.0555555555555556	No	RIGHT	706.961500000034	LEFT	32.05410000009579	LEFT	3513.852600000064	RIGHT	1409.4731000004683	27.40000000000001	0.1	Probable_Lie	RIGHT	RIGHT	2	718.4217000003628	141	2020-03-13 14:49:53.507932
97	Computer	S200313	0.5	1	2	1	2	0.1	1150.0000023	1500.000003	2500.000005	1783.3333369	Minor	Good_deeds	3	You have engaged in underage smoking	C2_20	0.05	Hard	I2_38	38	There are 30 hours in a day	0.944444444444444	Yes	LEFT	136.22229999964475	RIGHT	509.17670000035287	LEFT	1055.9935000001133	LEFT	1186.9065999999293	27.40000000000001	0.1	Probable_Truth	RIGHT	LEFT	3	602.0086062095327	142	2020-03-13 14:50:16.499693
30	Self	S200313	0.6666666666666666	2	1	2	1	0.1	1500.000003	1500.000003	1650.0000033	2500.000005	Minor	Wrong_doings	31	You have been sued	C2_52	0.2	Hard	I2_50	30	Africa is the continent with the least rainfall	0.0555555555555556	Yes	RIGHT	311.2387000001036	RIGHT	128.52900000052614	LEFT	2212.4078000006198	LEFT	880.9869999995499	27.500000000000007	0.1	Probable_Lie	RIGHT	RIGHT	1	428.9605999993	143	2020-03-13 14:50:40.188210
