index	Trial_Type	Participant_ID	Trial_Probability	Question_Position_Prediction_Correct	Question_Position_Prediction_Agent	Question_Position_Comparison_Self	Question_Position_Comparison_Irrelevant	Trial_Stake	Trial_Stake_Jitter	Trial_Type_Jitter	Trial_Result_Jitter	Balance_Update_Jitter	Question_Comparison_Condition	Question_Comparison_Type	Question_Comparison_Question	Question_Comparison_Label	Question_Comparison_Item	Question_Comparison_Proportion_Yes	Question_Factual_Condition	Question_Factual_Item	Question_Factual_Question	Question_Factual_Label	Question_Factual_Proportion_DontKnow	Question_Factual_Type	Answer_Prediction_Correct	Answer_Prediction_Correct_RT	Answer_Prediction_Agent	Answer_Prediction_Agent_RT	Answer_Self	Answer_Self_RT	Answer_Irrelevant	Answer_Irrelevant_RT	Trial_Balance	Trial_Balance_Effect	Trial_Condition	Trial_ProbableSide	Prediction_Choice	Prediction_Result	Prediction_RT	Trial_Order	Trial_Datetime
2	Self	S210315	0.5	1	2	1	2	0.1	1066.6666688	1433.3333362	1783.3333369	2216.6666711000003	Major	Wrong_doings	19	You have been donating all your excess food to a food bank	C1_53	1.0	Hard	I1_13	28	Afghan Hound is the first cloned cat	0.888888888888889	Yes	RIGHT	658.1312000000707	RIGHT	424.5184000000109	RIGHT	1760.145599999987	RIGHT	2477.959800000008	10.1	0.1	Probable_Truth	RIGHT	LEFT	2	641.8856000000233	0	2021-03-15 14:41:42.564512
98	Computer	S210315	0.5	1	2	1	2	0.3	1350.0000027	1283.3333359	2500.000005	1650.0000033	Major	Wrong_doings	19	You have been donating all your excess food to a food bank	C1_53	1.0	Hard	I1_13	28	Afghan Hound is the first cloned cat	0.888888888888889	Yes	RIGHT	611.8999000000258	LEFT	496.2332999999717	RIGHT	1232.0999000000938	RIGHT	2063.926899999956	10.1	0.3	Probable_Truth	LEFT	LEFT	3	951.218956211152	1	2021-03-15 14:42:07.268672
116	Computer	S210315	0.6666666666666666	1	2	2	1	0.1	1150.0000023	1000.000002	1933.3333372	2066.6666708	Major	Good_deeds	36	You have pretended to be busy to avoid a social situation	C2_26	0.7	Easy	I2_25	5	Animals are living things	0.944444444444444	No	LEFT	616.5215999999418	LEFT	1033.013100000062	LEFT	2095.5340000000438	RIGHT	1216.1533999999392	10.1	0.1	Probable_Lie	LEFT	RIGHT	2	822.5864518234977	2	2021-03-15 14:42:31.764662
3	Self	S210315	0.5	1	2	1	2	0.6	1216.6666691	1000.000002	1650.0000033	1500.000003	Major	Good_deeds	27	You have been arrested	C2_58	0.7	Easy	I1_57	30	"Statue of Liberty is 151 feet tall"	0.0	No	LEFT	847.1635999999307	RIGHT	744.41139999999	LEFT	932.4857999999948	RIGHT	1543.1466	9.5	0.6	Probable_Lie	LEFT	LEFT	4	1016.722800000025	3	2021-03-15 14:42:54.788539
9	Self	S210315	0.5	2	1	1	2	0.6	1066.6666688	1216.6666691	2500.000005	2500.000005	Minor	Wrong_doings	52	You have been physically hurt to protect others	C1_1	0.0	Easy	I1_6	39	The Earth is round	0.777777777777778	No	RIGHT	680.4621999999654	RIGHT	812.5667000001613	LEFT	2190.5652000000373	RIGHT	952.854299999899	10.1	0.6	Probable_Truth	RIGHT	LEFT	2	1092.0430000001031	4	2021-03-15 14:43:20.371984
21	Self	S210315	0.6666666666666666	1	2	2	1	0.3	1216.6666691	1216.6666691	2500.000005	2216.6666711000003	Minor	Wrong_doings	46	You have engaged in money laundering	C1_16	0.0	Easy	I1_19	3	The hyoid bone is the only jointless bone	0.0	Yes	LEFT	781.1437999998816	RIGHT	639.8615999999038	LEFT	1126.476499999853	RIGHT	2130.078499999854	9.8	0.3	Probable_Lie	RIGHT	RIGHT	1	1309.2607000000953	5	2021-03-15 14:43:46.083121
56	Self	S210315	0.5	2	1	1	2	0.3	1216.6666691	1216.6666691	2350.0000047	2500.000005	Major	Good_deeds	30	You have fabricated facts about yourself	C2_60	0.0	Easy	I2_28	28	The Moon orbits around the Earth	1.0	Yes	LEFT	745.2676000000338	RIGHT	1355.663399999912	LEFT	1614.0596000000187	RIGHT	2136.0399999998663	9.499999999999998	0.3	Probable_Lie	LEFT	LEFT	4	829.6170000000984	6	2021-03-15 14:44:12.620378
52	Self	S210315	0.5	1	2	2	1	0.6	1283.3333359	1283.3333359	2500.000005	1933.3333372	Major	Wrong_doings	14	You have faked an illness	C2_20	1.0	Easy	I1_41	5	The hardest bone in human body is the jawbone	0.0	No	LEFT	1146.8545999998696	RIGHT	695.797599999878	RIGHT	1752.7529000001325	RIGHT	2085.0076000001536	8.899999999999999	0.6	Probable_Lie	RIGHT	LEFT	5	1153.5506000000169	7	2021-03-15 14:44:39.027639
34	Self	S210315	0.8333333333333334	1	2	1	2	0.2	1150.0000023	1283.3333359	2500.000005	2350.0000047	Minor	Wrong_doings	42	You have made counterfeit money	C2_1	1.0	Easy	I2_22	24	Africa is the continent with the least rainfall	0.666666666666667	Yes	RIGHT	660.7771000001321	RIGHT	1056.9864999999936	LEFT	1211.8314000001646	RIGHT	2519.008999999869	9.099999999999998	0.2	Probable_Truth	RIGHT	RIGHT	6	1199.4938000000277	8	2021-03-15 14:45:05.532684
79	Self	S210315	0.6666666666666666	2	1	2	1	0.7	1500.000003	1500.000003	1650.0000033	1783.3333369	Minor	Good_deeds	51	You have let a homeless man into your house	C1_51	1.0	Easy	I2_35	4	Teddy Roosevelt was the youngest US President	0.888888888888889	No	RIGHT	639.4419000000653	RIGHT	775.4264000000148	LEFT	1816.5874999999687	RIGHT	2610.0083999999697	9.799999999999995	0.7	Probable_Truth	LEFT	LEFT	1	1438.2911999998669	9	2021-03-15 14:45:31.820116
62	Self	S210315	0.5	2	1	2	1	0.5	1433.3333362	1000.000002	1650.0000033	1500.000003	Minor	Good_deeds	57	You have stopped using products tested on animals	C1_50	1.0	Hard	I1_46	1	Cernan was the second last man to walk on the Moon	0.944444444444444	Yes	LEFT	785.3209999998398	RIGHT	1171.5629999998782	RIGHT	2046.744500000159	LEFT	2645.273699999961	9.299999999999995	0.5	Probable_Lie	RIGHT	LEFT	6	1568.429599999945	10	2021-03-15 14:45:58.195835
104	Computer	S210315	0.5	2	1	1	2	0.4	1500.000003	1066.6666688	1933.3333372	2350.0000047	Minor	Good_deeds	36	You have started a movement to support a cause	C2_52	0.0	Hard	I2_45	45	Feijoa is a type of grape	0.888888888888889	Yes	RIGHT	583.7718999998742	LEFT	1089.851899999985	LEFT	2877.7520999999524	LEFT	1982.174299999997	9.299999999999995	0.4	Probable_Truth	RIGHT	LEFT	2	922.9245555054638	11	2021-03-15 14:46:25.066976
43	Self	S210315	0.8333333333333334	2	1	1	2	0.4	1150.0000023	1066.6666688	2500.000005	2500.000005	Minor	Wrong_doings	56	You have adopted a zero-waste lifestyle	C1_13	0.9	Easy	I2_4	38	Pyramid of Giza is 468 feet tall	0.944444444444444	Yes	RIGHT	512.3702000000776	RIGHT	828.9185999999518	RIGHT	1900.6623999998735	RIGHT	2448.099100000036	9.699999999999998	0.4	Probable_Truth	RIGHT	RIGHT	5	1600.5721999999878	12	2021-03-15 14:46:52.146975
67	Self	S210315	0.6666666666666666	1	2	1	2	0.5	1283.3333359	1216.6666691	1933.3333372	2500.000005	Major	Good_deeds	35	You have rescued others from a catastrophe	C2_43	1.0	Easy	I2_43	16	Saturn's rings are between 30 and 300 feet thick	1.0	Yes	RIGHT	787.8948000000037	RIGHT	537.6438999999209	RIGHT	1645.1802999999927	RIGHT	2271.074799999951	10.199999999999998	0.5	Probable_Truth	RIGHT	RIGHT	4	1684.9061000000347	13	2021-03-15 14:47:18.580304
37	Self	S210315	0.8333333333333334	1	2	2	1	0.4	1500.000003	1350.0000027	1650.0000033	1500.000003	Minor	Good_deeds	14	You have lied to your parents	C1_14	0.0	Easy	I1_17	60	Slavery was abolished in Cuba in 1886	1.0	No	RIGHT	805.3517000000738	RIGHT	481.0213000000658	RIGHT	1632.01939999999	LEFT	2573.5310000000027	10.599999999999998	0.4	Probable_Truth	RIGHT	RIGHT	3	1438.617099999874	14	2021-03-15 14:47:44.083490
18	Self	S210315	0.6666666666666666	1	2	1	2	0.6	1433.3333362	1283.3333359	2216.6666711000003	1500.000003	Minor	Good_deeds	28	You have given up your seat in the MRT	C2_24	0.2	Hard	I2_58	58	Statute of Liberty is in New York	0.111111111111111	Yes	LEFT	1063.2129000000532	RIGHT	521.4200000000346	RIGHT	1086.151799999925	RIGHT	1080.4278999999042	9.999999999999998	0.6	Probable_Lie	RIGHT	RIGHT	2	1633.8837000000694	15	2021-03-15 14:48:08.475000
108	Computer	S210315	0.5	2	1	2	1	0.8	1066.6666688	1500.000003	1500.000003	1933.3333372	Minor	Wrong_doings	37	You have participated in a scamming business	C1_36	0.85	Hard	I2_39	37	Astatine is the rarest element in the Earth's crust	0.888888888888889	No	RIGHT	864.1162999999779	LEFT	951.1760000000322	LEFT	1191.5281999999934	RIGHT	2074.872400000004	9.999999999999998	0.8	Probable_Truth	RIGHT	RIGHT	5	906.7176240394076	16	2021-03-15 14:48:33.027344
96	Computer	S210315	0.5	1	2	1	2	0.4	1066.6666688	1500.000003	1500.000003	1783.3333369	Minor	Wrong_doings	60	You have taken responsibility for your actions	C1_60	0.0	Hard	I2_52	13	The current century is 21st	0.0	Yes	LEFT	895.9901000000627	LEFT	800.3777999999784	RIGHT	971.643300000096	RIGHT	2446.7180999999982	9.999999999999998	0.4	Probable_Lie	RIGHT	RIGHT	2	681.9785753710889	17	2021-03-15 14:48:57.243176
136	Computer	S210315	0.8333333333333334	2	1	1	2	0.7	1216.6666691	1433.3333362	1650.0000033	1650.0000033	Minor	Good_deeds	28	You have extorted money from anyone	C1_30	0.05	Hard	I1_38	4	It is snowing outside now	0.888888888888889	Yes	LEFT	455.861700000014	LEFT	963.1904000000304	LEFT	1415.3882000000522	LEFT	1239.7553000000698	9.999999999999998	0.7	Probable_Lie	LEFT	RIGHT	1	556.1381450791001	18	2021-03-15 14:49:20.387594
106	Computer	S210315	0.5	2	1	1	2	0.3	1216.6666691	1150.0000023	2216.6666711000003	2500.000005	Major	Good_deeds	6	You have deceived a loved one	C2_6	0.95	Hard	I1_33	25	It sometimes snows in Singapore	0.0	Yes	RIGHT	664.9598999999853	LEFT	835.101399999985	LEFT	1582.8288999998676	LEFT	1272.751800000151	9.999999999999998	0.3	Probable_Truth	LEFT	LEFT	2	798.4381357495625	19	2021-03-15 14:49:45.195702
12	Self	S210315	0.5	2	1	2	1	0.3	1000.000002	1433.3333362	1650.0000033	1933.3333372	Minor	Wrong_doings	37	You have participated in a scamming business	C1_36	0.85	Hard	I2_39	37	Astatine is the rarest element in the Earth's crust	0.888888888888889	No	RIGHT	431.15480000005846	RIGHT	848.1094999999641	LEFT	1040.3592000000117	RIGHT	1411.8459999999686	10.3	0.3	Probable_Truth	LEFT	LEFT	2	1005.2720000001044	20	2021-03-15 14:50:08.523061
82	Self	S210315	0.8333333333333334	1	2	1	2	0.8	1150.0000023	1350.0000027	1500.000003	1933.3333372	Minor	Good_deeds	20	You have illegally stayed in a country	C1_9	1.0	Easy	I2_56	26	Acoustic Kitty refers to cat with implants	0.833333333333333	No	RIGHT	789.2904000000271	RIGHT	511.0323999999764	LEFT	1100.6729999999152	LEFT	2718.4713999999985	11.1	0.8	Probable_Truth	RIGHT	RIGHT	3	1291.737699999885	21	2021-03-15 14:50:33.442969
84	Self	S210315	0.8333333333333334	1	2	2	1	0.3	1433.3333362	1066.6666688	2066.6666708	2216.6666711000003	Major	Good_deeds	9	You have donated blood every 6 months for many years	C1_37	0.0	Hard	I2_41	35	Arabi is the oldest surviving breed of horse	0.0	No	RIGHT	814.8539000001165	RIGHT	664.9430999998458	RIGHT	2895.719999999983	RIGHT	2381.888900000149	11.4	0.3	Probable_Truth	LEFT	LEFT	1	1218.600300000162	22	2021-03-15 14:51:00.779029
105	Computer	S210315	0.5	2	1	1	2	0.2	1433.3333362	1000.000002	2500.000005	1650.0000033	Minor	Wrong_doings	52	You have been physically hurt to protect others	C1_1	0.0	Easy	I1_6	39	The Earth is round	0.777777777777778	No	RIGHT	608.9229000001524	LEFT	882.5749000000087	LEFT	2247.9192000000694	RIGHT	1120.063200000004	11.4	0.2	Probable_Truth	RIGHT	RIGHT	6	507.1212257987654	23	2021-03-15 14:51:25.291261
33	Self	S210315	0.8333333333333334	1	2	1	2	0.1	1216.6666691	1000.000002	1933.3333372	1933.3333372	Major	Good_deeds	22	You have provided shelter for stray animals	C1_49	0.0	Hard	I1_47	38	Singapore is a poor country	0.0555555555555556	Yes	RIGHT	1061.2464000000728	RIGHT	480.9379999999237	LEFT	1492.9583000000548	LEFT	1272.126999999955	11.5	0.1	Probable_Truth	RIGHT	RIGHT	3	1198.0585999999676	24	2021-03-15 14:51:49.450882
65	Self	S210315	0.6666666666666666	1	2	1	2	0.6	1350.0000027	1433.3333362	1783.3333369	2350.0000047	Minor	Wrong_doings	43	You have bribed a police officer	C1_12	0.95	Easy	I1_21	21	R. Amundsen discovered the South Pole	0.111111111111111	Yes	RIGHT	841.1278999999467	RIGHT	488.5917999999947	LEFT	1044.9614000001477	LEFT	2095.687700000098	12.1	0.6	Probable_Truth	LEFT	LEFT	2	1282.263900000089	25	2021-03-15 14:52:14.692246
47	Self	S210315	0.8333333333333334	2	1	2	1	0.8	1066.6666688	1150.0000023	2350.0000047	2216.6666711000003	Minor	Wrong_doings	40	You have switched off appliances when not in use	C1_40	0.05	Easy	I1_36	36	Christmas Day is in March	0.0	Yes	LEFT	751.0161000000153	RIGHT	956.24870000006	RIGHT	1592.2963000000436	LEFT	1442.1641000001273	11.3	0.8	Probable_Lie	RIGHT	RIGHT	1	1142.6520999998502	26	2021-03-15 14:52:39.930913
94	Self	S210315	0.8333333333333334	2	1	2	1	0.8	1000.000002	1433.3333362	2216.6666711000003	1783.3333369	Minor	Good_deeds	47	You have bought cocaine	C1_5	0.05	Hard	I2_21	2	Septicemia is a lung infection condition	0.944444444444444	Yes	RIGHT	407.84069999995154	RIGHT	719.9531000001116	LEFT	1167.344299999968	LEFT	2265.9237999998822	12.1	0.8	Probable_Truth	RIGHT	RIGHT	3	1382.4431999998978	27	2021-03-15 14:53:04.884453
76	Self	S210315	0.6666666666666666	2	1	2	1	0.5	1216.6666691	1216.6666691	1783.3333369	2066.6666708	Minor	Wrong_doings	13	You have helped your parents when asked to	C1_7	0.0	Hard	I1_10	11	There is typically 0.6 grams of mercury in glass thermometer	0.0	Yes	RIGHT	352.67290000001594	RIGHT	698.8650000000689	RIGHT	1839.9641999999403	RIGHT	2470.707000000175	12.6	0.5	Probable_Lie	LEFT	LEFT	3	1212.955200000124	28	2021-03-15 14:53:30.316149
63	Self	S210315	0.5	2	1	2	1	0.8	1500.000003	1066.6666688	2216.6666711000003	2066.6666708	Minor	Wrong_doings	60	You have engaged in arson	C1_57	1.0	Hard	I2_55	8	Polish is 20th most spoken language in the World	0.888888888888889	No	LEFT	599.6609999999691	RIGHT	999.7799000000214	LEFT	1200.26299999995	LEFT	2408.288599999878	11.8	0.8	Probable_Lie	RIGHT	LEFT	6	1120.9232999999583	29	2021-03-15 14:53:56.068080
87	Self	S210315	0.8333333333333334	1	2	2	1	0.1	1066.6666688	1433.3333362	1650.0000033	2500.000005	Major	Wrong_doings	16	You have engaged in underage smoking	C2_47	0.05	Easy	I1_23	50	Singapore is a country	0.166666666666667	Yes	RIGHT	895.7070000001295	RIGHT	960.2155999998558	LEFT	849.3753000000197	RIGHT	949.3815000000724	11.9	0.1	Probable_Truth	LEFT	LEFT	1	1211.7808000000423	30	2021-03-15 14:54:20.156759
131	Computer	S210315	0.8333333333333334	1	2	1	2	0.2	1433.3333362	1216.6666691	2500.000005	1783.3333369	Minor	Good_deeds	29	You have returned your trays in food courts	C1_22	1.0	Easy	I2_36	36	Milwaukee Art Museum is located in California	0.611111111111111	No	LEFT	766.8122000000039	LEFT	768.3647000001201	RIGHT	1117.2073000000182	RIGHT	1759.0041999999355	11.9	0.2	Probable_Lie	LEFT	RIGHT	1	543.892051606334	31	2021-03-15 14:54:44.620257
7	Self	S210315	0.5	1	2	2	1	0.3	1433.3333362	1350.0000027	2350.0000047	2066.6666708	Major	Wrong_doings	58	You have kidnapped someone	C2_40	0.95	Hard	I2_30	54	North Korea is more developed than South Korea	0.833333333333333	Yes	LEFT	1003.7256999999044	RIGHT	480.2141999998639	LEFT	927.0323999999164	LEFT	2086.442999999917	11.599999999999998	0.3	Probable_Lie	RIGHT	LEFT	6	1928.9450999999644	32	2021-03-15 14:55:10.818980
26	Self	S210315	0.6666666666666666	2	1	1	2	0.3	1283.3333359	1283.3333359	2350.0000047	1500.000003	Major	Wrong_doings	54	You have intentionally let others cut in line	C2_38	0.15	Easy	I2_2	31	Red is a color	0.0	No	LEFT	768.3110000000397	RIGHT	1083.7876000000506	RIGHT	2581.6337999999632	RIGHT	1398.8867000000482	11.299999999999995	0.3	Probable_Lie	LEFT	LEFT	5	1143.7467999999171	33	2021-03-15 14:55:36.787089
70	Self	S210315	0.6666666666666666	1	2	2	1	0.7	1500.000003	1283.3333359	2216.6666711000003	2066.6666708	Minor	Wrong_doings	45	You have given directions to a lost tourist	C2_19	0.95	Hard	I1_42	27	Earth's atmosphere extends up to 10,000km into space	0.0	Yes	LEFT	911.4443000000848	RIGHT	639.8386000000755	RIGHT	944.1377000000556	RIGHT	2037.2838999999203	10.599999999999998	0.7	Probable_Lie	RIGHT	RIGHT	1	1150.8586999998442	34	2021-03-15 14:56:02.115231
73	Self	S210315	0.6666666666666666	2	1	1	2	0.4	1433.3333362	1000.000002	2216.6666711000003	1500.000003	Major	Wrong_doings	53	You have helped a friend in need	C1_33	0.0	Hard	I1_4	52	There are 6 million animal species on Earth	0.888888888888889	Yes	LEFT	624.4168000000627	RIGHT	896.8940999998267	RIGHT	1333.5068999999748	LEFT	2576.580899999953	10.199999999999998	0.4	Probable_Lie	RIGHT	LEFT	4	2070.8426999999574	35	2021-03-15 14:56:28.338884
117	Computer	S210315	0.6666666666666666	1	2	2	1	0.8	1500.000003	1350.0000027	1650.0000033	1650.0000033	Minor	Wrong_doings	46	You have engaged in money laundering	C1_16	0.0	Easy	I1_19	3	The hyoid bone is the only jointless bone	0.0	Yes	LEFT	597.6638999998158	LEFT	407.3573000000579	LEFT	1072.046300000011	LEFT	2151.440400000183	10.199999999999998	0.8	Probable_Lie	LEFT	RIGHT	1	513.305240780404	36	2021-03-15 14:56:51.803887
141	Computer	S210315	0.8333333333333334	2	1	2	1	0.2	1350.0000027	1000.000002	2350.0000047	2216.6666711000003	Major	Good_deeds	13	You have shown your appreciation to your teachers	C2_28	0.85	Easy	I1_3	23	Chickens lay eggs	1.0	Yes	RIGHT	495.7253000000037	LEFT	989.3008999999892	RIGHT	1190.9825999998702	RIGHT	1237.879600000042	10.199999999999998	0.2	Probable_Truth	LEFT	LEFT	1	519.0852984866045	37	2021-03-15 14:57:15.731112
112	Computer	S210315	0.6666666666666666	1	2	1	2	0.2	1216.6666691	1283.3333359	1500.000003	2350.0000047	Minor	Wrong_doings	24	You have kept your promises	C2_36	0.0	Easy	I1_40	25	Obama is the USA president now	0.722222222222222	No	RIGHT	653.2750000001215	LEFT	785.8840000001237	RIGHT	971.800499999972	LEFT	1328.0679999998029	10.199999999999998	0.2	Probable_Truth	RIGHT	RIGHT	4	628.3450270813839	38	2021-03-15 14:57:39.018138
22	Self	S210315	0.6666666666666666	1	2	2	1	0.2	1000.000002	1066.6666688	1783.3333369	1650.0000033	Major	Wrong_doings	59	You have used a fake name online	C1_46	0.0	Easy	I2_5	14	Mozambique is the world's poorest country	0.666666666666667	Yes	LEFT	745.5053000001044	RIGHT	511.3944000001993	LEFT	1264.2754999999397	RIGHT	2383.0573000000186	9.999999999999998	0.2	Probable_Lie	RIGHT	RIGHT	2	2235.889000000043	39	2021-03-15 14:58:04.235142
81	Self	S210315	0.8333333333333334	1	2	1	2	0.7	1283.3333359	1150.0000023	2350.0000047	2350.0000047	Minor	Wrong_doings	37	You have lost everything just to help others	C2_23	0.0	Hard	I1_35	23	Some owl species hunt fish	0.0	Yes	RIGHT	850.2998999999818	RIGHT	367.83779999996113	LEFT	2469.534600000088	LEFT	2095.3142999999272	10.699999999999998	0.7	Probable_Truth	LEFT	LEFT	1	887.5623999999789	40	2021-03-15 14:58:30.611448
61	Self	S210315	0.5	2	1	2	1	0.7	1283.3333359	1150.0000023	1933.3333372	2350.0000047	Major	Wrong_doings	3	You have a non-judgmental attitude towards everyone	C1_17	0.5	Hard	I1_32	46	There are 30 hours in a day	0.944444444444444	No	LEFT	975.3782000000228	RIGHT	1109.1105000000423	RIGHT	1566.2144000000353	LEFT	1195.6175000000258	9.999999999999998	0.7	Probable_Lie	RIGHT	LEFT	4	1608.4966000000804	41	2021-03-15 14:58:56.354269
72	Self	S210315	0.6666666666666666	2	1	1	2	0.2	1350.0000027	1433.3333362	2500.000005	1650.0000033	Minor	Good_deeds	4	You have violated a traffic law	C2_11	0.05	Hard	I2_42	31	December is the last month of the year	0.833333333333333	Yes	LEFT	609.0388000000075	RIGHT	1165.2710999999272	LEFT	1304.922999999917	RIGHT	1247.2360000001572	9.8	0.2	Probable_Lie	LEFT	LEFT	6	1080.5295999998634	42	2021-03-15 14:59:21.267209
17	Self	S210315	0.6666666666666666	1	2	1	2	0.5	1150.0000023	1150.0000023	1500.000003	1783.3333369	Minor	Good_deeds	16	You have taken part in burglary	C2_46	0.85	Hard	I2_3	19	Cleopatra was born in Greece	0.833333333333333	Yes	RIGHT	811.4036000001761	RIGHT	775.7761999996546	LEFT	1257.2589999999764	LEFT	1639.6457000000737	10.3	0.5	Probable_Truth	LEFT	LEFT	2	986.2921000003552	43	2021-03-15 14:59:44.898525
102	Computer	S210315	0.5	1	2	2	1	0.5	1433.3333362	1350.0000027	1650.0000033	2066.6666708	Minor	Wrong_doings	6	You have offered a listening ear to a friend	C2_27	0.45	Easy	I2_53	53	February has 30 days	0.888888888888889	Yes	LEFT	693.1595999999445	LEFT	473.0687000001126	RIGHT	1223.112300000139	LEFT	1143.2073000000855	10.3	0.5	Probable_Lie	RIGHT	RIGHT	1	683.43374053594	44	2021-03-15 15:00:08.186454
130	Computer	S210315	0.8333333333333334	1	2	1	2	0.1	1283.3333359	1500.000003	1650.0000033	1933.3333372	Minor	Wrong_doings	42	You have made counterfeit money	C2_1	1.0	Easy	I2_22	24	Africa is the continent with the least rainfall	0.666666666666667	Yes	LEFT	1159.2532000004212	LEFT	440.4751000001852	LEFT	908.459899999798	RIGHT	2086.7787000001954	10.3	0.1	Probable_Lie	RIGHT	LEFT	2	759.0566655544133	45	2021-03-15 15:00:32.489802
101	Computer	S210315	0.5	1	2	2	1	0.1	1283.3333359	1150.0000023	2216.6666711000003	2500.000005	Major	Good_deeds	40	You have downloaded pirated movies	C1_6	0.0	Easy	I2_1	52	The first Olympic Games was held in the 5th century B.C	0.0	No	LEFT	815.9197999998469	LEFT	793.2670000000144	LEFT	1262.5129999996716	LEFT	2907.964200000152	10.3	0.1	Probable_Lie	RIGHT	LEFT	5	506.5882246043387	46	2021-03-15 15:00:58.490356
121	Computer	S210315	0.6666666666666666	2	1	1	2	0.1	1283.3333359	1350.0000027	1783.3333369	1783.3333369	Minor	Good_deeds	58	You have volunteered for a disaster-related humanitarian mission	C1_58	0.05	Easy	I2_24	43	There are 7 days in a week	0.944444444444444	Yes	LEFT	384.3140999997559	LEFT	876.5865000000304	LEFT	1704.7004000000925	RIGHT	1159.8705999999763	10.3	0.1	Probable_Lie	LEFT	LEFT	6	978.4557756715052	47	2021-03-15 15:01:22.370177
41	Self	S210315	0.8333333333333334	2	1	1	2	0.7	1000.000002	1216.6666691	1650.0000033	2066.6666708	Major	Good_deeds	39	You have blackmailed others for money	C2_2	0.0	Hard	I2_6	6	China is a part of Asia	0.0	No	LEFT	646.3082000000213	RIGHT	984.5177000001968	LEFT	981.6369000000122	RIGHT	1055.777500000204	9.6	0.7	Probable_Lie	LEFT	LEFT	6	1004.5893999999862	48	2021-03-15 15:02:36.041861
60	Self	S210315	0.5	2	1	2	1	0.4	1350.0000027	1500.000003	1500.000003	2216.6666711000003	Major	Wrong_doings	9	You have helped others to pick up their belongings	C1_3	0.0	Hard	I2_13	13	Nomophobia is the fear of being without a phone or computer	0.0	Yes	LEFT	360.55129999977	RIGHT	1084.1793999998115	RIGHT	1368.4078000001136	RIGHT	3159.505099999933	9.2	0.4	Probable_Lie	LEFT	LEFT	4	1123.4220000001187	49	2021-03-15 15:03:02.282141
4	Self	S210315	0.5	1	2	2	1	0.4	1150.0000023	1216.6666691	1500.000003	2500.000005	Minor	Good_deeds	18	You have been restricting your electricity consumption	C2_18	0.8	Hard	I1_28	1	Vegetarians can eat vegetable products	0.833333333333333	No	RIGHT	779.1806000000179	RIGHT	336.87319999989995	RIGHT	1207.1227999999792	RIGHT	1924.3838999996117	9.6	0.4	Probable_Truth	LEFT	RIGHT	5	1278.539500000079	50	2021-03-15 15:03:26.753887
29	Self	S210315	0.6666666666666666	2	1	2	1	0.2	1216.6666691	1066.6666688	1500.000003	2216.6666711000003	Minor	Wrong_doings	15	You have complimented others for good work	C2_54	0.55	Easy	I1_31	2	Fibers in oranges can be used to make fabric	0.0	Yes	RIGHT	320.34980000025826	RIGHT	771.7440000001261	RIGHT	807.9791000000114	LEFT	2646.1715999998887	9.8	0.2	Probable_Truth	LEFT	LEFT	1	1491.6887999997923	51	2021-03-15 15:03:51.371182
132	Computer	S210315	0.8333333333333334	1	2	2	1	0.7	1000.000002	1150.0000023	2216.6666711000003	1650.0000033	Major	Good_deeds	59	You have stopped using plastics completely	C2_57	0.0	Easy	I2_18	18	The Eiffel Tower is in Paris	0.666666666666667	No	LEFT	747.8591999997661	LEFT	392.7501000002849	RIGHT	1783.166500000334	RIGHT	993.1026999997812	9.8	0.7	Probable_Lie	LEFT	RIGHT	1	834.4869091758067	52	2021-03-15 15:04:14.706992
140	Computer	S210315	0.8333333333333334	2	1	2	1	0.8	1000.000002	1350.0000027	2500.000005	1933.3333372	Major	Good_deeds	31	You have donated a pay cheque to charity	C2_56	0.2	Easy	I1_29	3	There are 6000 spoken languages in the World	0.0	No	RIGHT	592.48290000005	LEFT	861.4179000001059	RIGHT	1455.3083999999217	RIGHT	3021.740200000295	9.8	0.8	Probable_Truth	RIGHT	RIGHT	6	839.8698279494093	53	2021-03-15 15:04:40.827628
54	Self	S210315	0.5	1	2	2	1	0.2	1150.0000023	1066.6666688	2350.0000047	2066.6666708	Major	Good_deeds	48	You have said sorry when you were rude	C1_23	0.05	Hard	I1_50	50	The first Grammy awards was held in 1959	0.0	Yes	RIGHT	818.8155000002553	RIGHT	384.7255000000587	RIGHT	1128.334300000006	RIGHT	1653.635000000122	9.999999999999998	0.2	Probable_Truth	LEFT	LEFT	1	2198.427299999821	54	2021-03-15 15:05:06.219665
124	Computer	S210315	0.6666666666666666	2	1	2	1	0.4	1150.0000023	1150.0000023	1933.3333372	2500.000005	Minor	Good_deeds	11	You have claimed doing things that you never did	C1_15	1.0	Hard	I1_9	15	Mexico's National Day is September 16	0.0	No	LEFT	385.30309999987367	LEFT	917.2367000001032	LEFT	2744.4272000002456	RIGHT	3116.8698999999838	9.999999999999998	0.4	Probable_Lie	RIGHT	LEFT	5	798.4055719220621	55	2021-03-15 15:05:33.481819
111	Computer	S210315	0.5	2	1	2	1	0.5	1000.000002	1350.0000027	2066.6666708	1500.000003	Major	Wrong_doings	3	You have cursed at others	C1_35	0.85	Hard	I2_60	60	Singapore has four seasons	0.722222222222222	No	RIGHT	359.8038000000088	LEFT	894.3203999997422	RIGHT	2112.188999999944	LEFT	1166.071799999827	9.999999999999998	0.5	Probable_Truth	LEFT	RIGHT	5	679.3797627225582	56	2021-03-15 15:05:57.185877
39	Self	S210315	0.8333333333333334	1	2	2	1	0.7	1000.000002	1066.6666688	2066.6666708	1783.3333369	Minor	Wrong_doings	57	You have assisted in a crime	C1_42	0.8	Hard	I1_60	47	Penguin can fly with their wings	0.0	Yes	RIGHT	653.2053999999334	RIGHT	640.5766999996558	LEFT	775.4397999997309	LEFT	2283.2501999996566	10.699999999999998	0.7	Probable_Truth	RIGHT	RIGHT	3	1148.541699999896	57	2021-03-15 15:06:21.179667
49	Self	S210315	0.5	1	2	1	2	0.8	1350.0000027	1000.000002	1500.000003	2500.000005	Minor	Good_deeds	38	You have bought cigarettes for a minor	C2_48	0.05	Easy	I2_54	54	The Amazon forest covers an area of 1 billion acres	0.0555555555555556	No	LEFT	892.9668999999194	RIGHT	552.9771999999866	LEFT	1406.1593999999786	RIGHT	1727.538900000127	9.899999999999997	0.8	Probable_Lie	RIGHT	RIGHT	3	1296.2163000001965	58	2021-03-15 15:06:45.978752
36	Self	S210315	0.8333333333333334	1	2	2	1	0.8	1066.6666688	1150.0000023	1783.3333369	2500.000005	Major	Good_deeds	59	You have stopped using plastics completely	C2_57	0.0	Easy	I2_18	18	The Eiffel Tower is in Paris	0.666666666666667	No	RIGHT	1258.3737999998448	RIGHT	784.8044000002119	RIGHT	1046.867799999745	RIGHT	1037.2221999996327	10.699999999999998	0.8	Probable_Truth	LEFT	LEFT	1	1357.0417000000816	59	2021-03-15 15:07:10.538779
127	Computer	S210315	0.6666666666666666	2	1	2	1	0.7	1350.0000027	1500.000003	1500.000003	1933.3333372	Major	Wrong_doings	17	You have sold illegal drugs	C1_11	0.0	Hard	I1_43	12	The Seine river is 50 feet above sea level	1.0	Yes	LEFT	398.6582000002272	LEFT	771.7843999998877	LEFT	1047.0872000000782	RIGHT	1973.2233999998243	10.699999999999998	0.7	Probable_Truth	LEFT	RIGHT	3	694.6075617435708	60	2021-03-15 15:07:34.282055
28	Self	S210315	0.6666666666666666	2	1	2	1	0.4	1150.0000023	1000.000002	2216.6666711000003	2500.000005	Minor	Good_deeds	11	You have claimed doing things that you never did	C1_15	1.0	Hard	I1_9	15	Mexico's National Day is September 16	0.0	No	LEFT	568.6651999999413	RIGHT	888.284399999975	LEFT	1903.5735999996175	RIGHT	1205.1280999999108	10.299999999999995	0.4	Probable_Lie	RIGHT	RIGHT	1	1144.9443000001338	61	2021-03-15 15:07:59.434106
133	Computer	S210315	0.8333333333333334	1	2	2	1	0.4	1500.000003	1433.3333362	1933.3333372	2066.6666708	Minor	Good_deeds	14	You have lied to your parents	C1_14	0.0	Easy	I1_17	60	Slavery was abolished in Cuba in 1886	1.0	No	RIGHT	746.2315000002491	LEFT	328.7458999998307	LEFT	991.5850000002138	RIGHT	3064.1351999997823	10.299999999999995	0.4	Probable_Truth	LEFT	LEFT	1	754.2632549529136	62	2021-03-15 15:08:24.817972
75	Self	S210315	0.6666666666666666	2	1	1	2	0.1	1283.3333359	1283.3333359	1933.3333372	2216.6666711000003	Major	Wrong_doings	34	You have been convicted in court	C1_4	0.75	Easy	I1_39	42	Lehman Brothers went bankrupt on 20th September	0.833333333333333	No	RIGHT	328.7470999998732	RIGHT	971.5331999996124	LEFT	865.2925999999752	RIGHT	4878.044500000215	10.399999999999997	0.1	Probable_Lie	LEFT	LEFT	4	1072.925099999793	63	2021-03-15 15:08:52.226589
13	Self	S210315	0.5	2	1	2	1	0.7	1283.3333359	1350.0000027	2066.6666708	2066.6666708	Major	Good_deeds	35	You have sorted your trash into recycling bin	C1_27	0.45	Easy	I1_37	49	Fishes can swim in water	0.0	Yes	RIGHT	359.6192999998493	RIGHT	710.5578999999125	RIGHT	1543.8070000000153	RIGHT	1710.602199999812	11.099999999999996	0.7	Probable_Truth	LEFT	LEFT	1	2282.328000000234	64	2021-03-15 15:09:18.178350
15	Self	S210315	0.5	2	1	2	1	0.4	1216.6666691	1000.000002	1933.3333372	1783.3333369	Major	Wrong_doings	3	You have cursed at others	C1_35	0.85	Hard	I2_60	60	Singapore has four seasons	0.722222222222222	No	LEFT	560.6692999999723	RIGHT	829.1427999997723	RIGHT	992.0187000002444	LEFT	938.5148999999728	10.699999999999996	0.4	Probable_Lie	RIGHT	LEFT	5	1834.274599999844	65	2021-03-15 15:09:41.842651
16	Self	S210315	0.6666666666666666	1	2	1	2	0.7	1066.6666688	1000.000002	2350.0000047	2500.000005	Minor	Wrong_doings	24	You have kept your promises	C2_36	0.0	Easy	I1_40	25	Obama is the USA president now	0.722222222222222	No	RIGHT	700.0563000001421	RIGHT	360.0431999998364	RIGHT	1308.3864000000176	LEFT	1023.701500000243	11.399999999999997	0.7	Probable_Truth	RIGHT	RIGHT	3	1380.3282999997464	66	2021-03-15 15:10:06.106496
23	Self	S210315	0.6666666666666666	1	2	2	1	0.1	1283.3333359	1433.3333362	1933.3333372	2066.6666708	Major	Wrong_doings	46	You have started an NGO using your savings	C1_59	0.95	Hard	I1_14	58	Cheese is an Asian staple	0.0	No	RIGHT	715.2365000001737	RIGHT	424.8539000000165	LEFT	1535.8566999998402	LEFT	2021.9579999998127	11.499999999999996	0.1	Probable_Truth	LEFT	LEFT	2	1428.446299999905	67	2021-03-15 15:10:31.529879
91	Self	S210315	0.8333333333333334	2	1	1	2	0.3	1066.6666688	1000.000002	1650.0000033	1500.000003	Major	Good_deeds	5	You have thrown your trash into the bin	C2_7	1.0	Easy	I2_59	59	Mageirocophobia is a fear of deathly disease	0.0	No	RIGHT	392.9137999998602	RIGHT	887.1870000002673	RIGHT	2079.32320000009	RIGHT	2143.392799999674	11.799999999999995	0.3	Probable_Truth	LEFT	LEFT	1	925.6202000001394	68	2021-03-15 15:10:55.746561
122	Computer	S210315	0.6666666666666666	2	1	1	2	0.6	1433.3333362	1000.000002	2216.6666711000003	2350.0000047	Major	Wrong_doings	54	You have intentionally let others cut in line	C2_38	0.15	Easy	I2_2	31	Red is a color	0.0	No	RIGHT	432.4854000001324	LEFT	796.2139999999636	RIGHT	1776.049900000089	RIGHT	1176.48730000019	11.799999999999995	0.6	Probable_Truth	RIGHT	RIGHT	5	539.9266317545258	69	2021-03-15 15:11:20.034616
48	Self	S210315	0.5	1	2	1	2	0.3	1433.3333362	1500.000003	1783.3333369	1500.000003	Minor	Wrong_doings	23	You have engaged in drink-driving	C2_45	0.1	Hard	I2_40	26	It is 20th Century now	0.777777777777778	Yes	RIGHT	738.2468999999219	RIGHT	311.939700000039	LEFT	1218.233500000224	LEFT	1125.2749000000222	12.099999999999996	0.3	Probable_Truth	LEFT	LEFT	2	1729.8373000003266	70	2021-03-15 15:11:43.953986
44	Self	S210315	0.8333333333333334	2	1	2	1	0.5	1350.0000027	1433.3333362	1500.000003	2350.0000047	Major	Good_deeds	31	You have donated a pay cheque to charity	C2_56	0.2	Easy	I1_29	3	There are 6000 spoken languages in the World	0.0	No	RIGHT	295.89179999993576	RIGHT	797.6722999997037	RIGHT	1167.81600000013	RIGHT	2610.2021000001514	12.599999999999996	0.5	Probable_Truth	RIGHT	RIGHT	2	836.7256999999881	71	2021-03-15 15:12:08.873950
45	Self	S210315	0.8333333333333334	2	1	2	1	0.1	1433.3333362	1350.0000027	2066.6666708	1783.3333369	Major	Good_deeds	13	You have shown your appreciation to your teachers	C2_28	0.85	Easy	I1_3	23	Chickens lay eggs	1.0	Yes	RIGHT	584.3457000000853	RIGHT	671.2054999998145	RIGHT	1142.850300000191	RIGHT	1841.2852999999811	12.699999999999996	0.1	Probable_Lie	LEFT	LEFT	4	1381.7708000001403	72	2021-03-15 15:12:33.705508
89	Self	S210315	0.8333333333333334	2	1	1	2	0.1	1350.0000027	1500.000003	1783.3333369	1650.0000033	Minor	Good_deeds	31	You have eaten something in the MRT train	C1_44	1.0	Easy	I1_2	11	A square has 3 corners	0.0	No	LEFT	613.7917999999445	RIGHT	1099.8497999999015	LEFT	1531.178600000203	LEFT	1319.6999000001597	12.599999999999996	0.1	Probable_Lie	LEFT	LEFT	6	741.005800000039	73	2021-03-15 15:12:57.866562
143	Computer	S210315	0.8333333333333334	2	1	2	1	0.5	1150.0000023	1216.6666691	1783.3333369	2500.000005	Minor	Wrong_doings	40	You have switched off appliances when not in use	C1_40	0.05	Easy	I1_36	36	Christmas Day is in March	0.0	Yes	LEFT	365.9795999997186	LEFT	1053.9656000000832	RIGHT	1152.287200000046	LEFT	965.4347000000598	12.599999999999996	0.5	Probable_Lie	RIGHT	RIGHT	1	549.91658634463	74	2021-03-15 15:13:21.178423
77	Self	S210315	0.6666666666666666	2	1	2	1	0.6	1066.6666688	1150.0000023	2350.0000047	2500.000005	Minor	Good_deeds	11	You have cheated on a test	C2_34	0.0	Hard	I2_31	10	French is Singapore's official language	0.0	Yes	RIGHT	319.8091999997814	RIGHT	689.8174999996627	LEFT	1231.087899999693	LEFT	1263.722600000165	13.199999999999996	0.6	Probable_Truth	RIGHT	RIGHT	3	1428.9983000003303	75	2021-03-15 15:13:45.754159
20	Self	S210315	0.6666666666666666	1	2	2	1	0.8	1350.0000027	1500.000003	1650.0000033	2350.0000047	Major	Good_deeds	36	You have pretended to be busy to avoid a social situation	C2_26	0.7	Easy	I2_25	5	Animals are living things	0.944444444444444	No	RIGHT	636.4507000002959	RIGHT	287.9527000000053	LEFT	1743.7715000000935	RIGHT	933.3486000000448	13.999999999999996	0.8	Probable_Lie	LEFT	LEFT	3	964.270000000397	76	2021-03-15 15:14:09.746192
128	Computer	S210315	0.8333333333333334	1	2	1	2	0.3	1150.0000023	1283.3333359	1500.000003	1500.000003	Major	Wrong_doings	49	You have helped with household chores	C2_59	0.2	Hard	I2_38	22	Most plants emit oxygen in the day	0.0555555555555556	Yes	LEFT	784.5621999999821	LEFT	320.56839999995645	RIGHT	901.8482999999832	RIGHT	3735.052300000007	13.999999999999996	0.3	Probable_Lie	RIGHT	LEFT	6	707.6282526949456	77	2021-03-15 15:14:34.201299
119	Computer	S210315	0.6666666666666666	1	2	2	1	0.6	1000.000002	1150.0000023	2216.6666711000003	2500.000005	Major	Wrong_doings	46	You have started an NGO using your savings	C1_59	0.95	Hard	I1_14	58	Cheese is an Asian staple	0.0	No	RIGHT	736.3606999997501	LEFT	862.7856000002794	LEFT	887.7533999998377	LEFT	1278.2467000001816	13.999999999999996	0.6	Probable_Truth	RIGHT	RIGHT	3	888.9377158826219	78	2021-03-15 15:14:58.290421
71	Self	S210315	0.6666666666666666	1	2	2	1	0.2	1150.0000023	1150.0000023	2066.6666708	1933.3333372	Minor	Good_deeds	12	You have organized a violent protest	C1_43	0.0	Easy	I2_8	27	A caterpillar has more muscle than a human	0.666666666666667	No	LEFT	662.381699999969	RIGHT	344.7578000000249	LEFT	1022.638200000074	LEFT	1563.6985000001005	13.799999999999995	0.2	Probable_Lie	RIGHT	RIGHT	1	1514.9506999996447	79	2021-03-15 15:15:22.273583
64	Self	S210315	0.6666666666666666	1	2	1	2	0.4	1066.6666688	1066.6666688	2350.0000047	2216.6666711000003	Major	Good_deeds	19	You have held the elevator doors for others	C1_45	0.05	Hard	I2_27	42	Beef comes from cows	0.0	No	RIGHT	818.2891000001291	RIGHT	336.25060000031226	RIGHT	1633.9587000002211	RIGHT	1136.771200000112	14.199999999999998	0.4	Probable_Truth	LEFT	LEFT	1	705.2776999998969	80	2021-03-15 15:15:46.179182
53	Self	S210315	0.5	1	2	2	1	0.5	1500.000003	1433.3333362	1650.0000033	1650.0000033	Minor	Wrong_doings	45	You have confessed to your mistake	C1_38	0.7	Hard	I1_12	12	A triangle has three sides	0.944444444444444	No	RIGHT	559.6972999996979	RIGHT	289.31069999998726	RIGHT	1143.387900000107	RIGHT	1678.797499999746	14.699999999999998	0.5	Probable_Truth	LEFT	LEFT	3	1872.9259000001548	81	2021-03-15 15:16:10.530014
137	Computer	S210315	0.8333333333333334	2	1	1	2	0.1	1066.6666688	1150.0000023	1500.000003	1500.000003	Major	Good_deeds	39	You have blackmailed others for money	C2_2	0.0	Hard	I2_6	6	China is a part of Asia	0.0	No	LEFT	321.2349999998878	LEFT	854.0243000002192	LEFT	901.6076999996584	RIGHT	895.0036999999611	14.699999999999998	0.1	Probable_Lie	LEFT	RIGHT	1	745.6499139935253	82	2021-03-15 15:16:32.041846
88	Self	S210315	0.8333333333333334	2	1	1	2	0.6	1216.6666691	1066.6666688	2350.0000047	2500.000005	Major	Good_deeds	7	You have said thank you when you have received help	C2_31	0.0	Hard	I2_46	46	A dog has four legs	0.944444444444444	Yes	RIGHT	431.9490000002588	RIGHT	954.3246999996882	RIGHT	949.6503000000304	RIGHT	959.3411999999262	15.299999999999995	0.6	Probable_Truth	RIGHT	RIGHT	3	1023.1564999999136	83	2021-03-15 15:16:56.074563
85	Self	S210315	0.8333333333333334	1	2	2	1	0.6	1216.6666691	1000.000002	2500.000005	1650.0000033	Minor	Wrong_doings	42	You have given way to the handicapped	C1_20	0.1	Easy	I1_48	48	Marijuana is legal in Singapore	0.722222222222222	No	RIGHT	731.4290999997866	RIGHT	464.7220999995625	RIGHT	935.162599999785	LEFT	1192.7521000002343	15.899999999999997	0.6	Probable_Lie	LEFT	LEFT	3	948.6790999999356	84	2021-03-15 15:17:19.289064
129	Computer	S210315	0.8333333333333334	1	2	1	2	0.8	1216.6666691	1350.0000027	2066.6666708	2500.000005	Major	Good_deeds	22	You have provided shelter for stray animals	C1_49	0.0	Hard	I1_47	38	Singapore is a poor country	0.0555555555555556	Yes	RIGHT	713.3264999997664	LEFT	288.9165999999932	LEFT	1173.1610000001638	LEFT	1016.7711999997664	15.899999999999997	0.8	Probable_Truth	LEFT	LEFT	1	720.515429650784	85	2021-03-15 15:17:42.904814
80	Self	S210315	0.8333333333333334	1	2	1	2	0.4	1350.0000027	1500.000003	1783.3333369	2066.6666708	Major	Good_deeds	48	You have followed instructions	C2_16	0.7	Easy	I1_26	56	South East Asia is currently free from polio	0.888888888888889	Yes	RIGHT	755.2537000001394	RIGHT	631.4124999998967	RIGHT	1093.7063999999737	RIGHT	1887.4733999996351	16.299999999999997	0.4	Probable_Truth	RIGHT	RIGHT	5	989.180099999885	86	2021-03-15 15:18:07.536967
35	Self	S210315	0.8333333333333334	1	2	1	2	0.5	1433.3333362	1433.3333362	2216.6666711000003	2216.6666711000003	Minor	Good_deeds	29	You have returned your trays in food courts	C1_22	1.0	Easy	I2_36	36	Milwaukee Art Museum is located in California	0.611111111111111	No	LEFT	863.8648999999532	RIGHT	360.6243999997787	RIGHT	993.9893000000666	LEFT	1231.5097999999125	15.799999999999995	0.5	Probable_Lie	RIGHT	RIGHT	1	789.668100000199	87	2021-03-15 15:18:31.650063
68	Self	S210315	0.6666666666666666	1	2	2	1	0.8	1000.000002	1350.0000027	1500.000003	1650.0000033	Minor	Wrong_doings	29	You have taken months off to volunteer	C2_10	0.0	Hard	I1_53	8	There are 10 continents in the World	0.777777777777778	No	RIGHT	715.4985000001943	RIGHT	408.3044999997583	RIGHT	1408.006099999966	LEFT	1293.5740999996597	16.599999999999998	0.8	Probable_Truth	RIGHT	RIGHT	6	1172.204899999997	88	2021-03-15 15:18:54.729456
30	Self	S210315	0.6666666666666666	2	1	2	1	0.7	1500.000003	1350.0000027	1650.0000033	2066.6666708	Major	Good_deeds	39	You have watched a pirated movie	C2_17	0.0	Easy	I2_12	9	Nanyang Technological University is in Australia	0.0	No	LEFT	592.3929000000498	RIGHT	886.9310000000041	RIGHT	1927.4020000002563	LEFT	1315.3747000001204	15.9	0.7	Probable_Lie	RIGHT	RIGHT	2	947.859200000039	89	2021-03-15 15:19:19.546522
14	Self	S210315	0.5	2	1	2	1	0.2	1150.0000023	1150.0000023	2216.6666711000003	1650.0000033	Minor	Wrong_doings	27	You have held the door open for a stranger	C2_3	0.65	Easy	I2_49	6	It takes 500 days to travel from Earth to Mars	0.0555555555555556	Yes	RIGHT	272.34279999993305	RIGHT	592.8327999999965	RIGHT	1400.2715999999964	RIGHT	1502.6542999999035	16.099999999999998	0.2	Probable_Truth	RIGHT	LEFT	1	1088.5385999999926	90	2021-03-15 15:19:43.146684
11	Self	S210315	0.5	2	1	1	2	0.1	1433.3333362	1066.6666688	1500.000003	2350.0000047	Major	Good_deeds	1	You have used heroin	C2_37	0.0	Easy	I1_25	33	The Franco-Prussian War occurred in the 19th century	0.0	No	LEFT	320.2517999998236	RIGHT	932.0949000002656	LEFT	875.4976999998689	RIGHT	2824.0882000000056	15.999999999999998	0.1	Probable_Lie	RIGHT	RIGHT	1	1747.6895999998303	91	2021-03-15 15:20:08.770080
110	Computer	S210315	0.5	2	1	2	1	0.6	1350.0000027	1283.3333359	2350.0000047	1783.3333369	Minor	Wrong_doings	27	You have held the door open for a stranger	C2_3	0.65	Easy	I2_49	6	It takes 500 days to travel from Earth to Mars	0.0555555555555556	Yes	RIGHT	400.1978000001145	LEFT	785.8413999997538	RIGHT	814.1180999996322	RIGHT	1160.8224999999948	15.999999999999998	0.6	Probable_Truth	LEFT	LEFT	3	736.4367277971191	92	2021-03-15 15:20:32.009415
5	Self	S210315	0.5	1	2	2	1	0.2	1283.3333359	1150.0000023	1933.3333372	1933.3333372	Major	Good_deeds	40	You have downloaded pirated movies	C1_6	0.0	Easy	I2_1	52	The first Olympic Games was held in the 5th century B.C	0.0	No	RIGHT	852.506799999901	RIGHT	239.7805000000517	LEFT	1166.9629000002717	RIGHT	1733.892200000355	16.2	0.2	Probable_Truth	LEFT	RIGHT	4	1397.6717999998982	93	2021-03-15 15:20:56.273072
142	Computer	S210315	0.8333333333333334	2	1	2	1	0.4	1500.000003	1500.000003	1933.3333372	1783.3333369	Major	Wrong_doings	30	You have failed to keep promises	C1_31	0.55	Hard	I2_44	44	It takes 112 years to build the Pisa Tower	0.0	No	RIGHT	439.25290000015593	LEFT	749.9437999999827	RIGHT	3574.604200000067	LEFT	2394.7242000003826	16.2	0.4	Probable_Truth	LEFT	LEFT	1	803.5155076037005	94	2021-03-15 15:21:23.520799
32	Self	S210315	0.8333333333333334	1	2	1	2	0.3	1350.0000027	1216.6666691	2350.0000047	1650.0000033	Major	Wrong_doings	49	You have helped with household chores	C2_59	0.2	Hard	I2_38	22	Most plants emit oxygen in the day	0.0555555555555556	Yes	LEFT	770.4913000002307	RIGHT	488.0756000002293	RIGHT	1069.2450999999892	RIGHT	1287.873600000239	15.9	0.3	Probable_Lie	RIGHT	RIGHT	1	936.150699999871	95	2021-03-15 15:21:47.217834
66	Self	S210315	0.6666666666666666	1	2	1	2	0.3	1216.6666691	1000.000002	2500.000005	1783.3333369	Major	Wrong_doings	43	You have drunk alcohol when you were underage	C2_35	0.05	Easy	I2_16	53	Last day of the year is 30th December	0.0555555555555556	Yes	RIGHT	662.0580999997401	RIGHT	752.7230999999119	LEFT	891.5009000002101	LEFT	2095.741499999804	16.2	0.3	Probable_Truth	RIGHT	RIGHT	6	1036.529999999857	96	2021-03-15 15:22:51.697049
78	Self	S210315	0.6666666666666666	2	1	2	1	0.3	1150.0000023	1066.6666688	1500.000003	2350.0000047	Major	Wrong_doings	33	You have cheated on a national exam	C2_13	0.65	Easy	I2_11	35	Singapore is in Africa	0.0	No	RIGHT	526.9113000003927	RIGHT	1445.2754999997524	LEFT	1023.7230000002456	LEFT	1401.5454000000318	16.5	0.3	Probable_Truth	RIGHT	RIGHT	5	1012.8385000002708	97	2021-03-15 15:23:15.753404
69	Self	S210315	0.6666666666666666	1	2	2	1	0.1	1433.3333362	1500.000003	1650.0000033	1500.000003	Major	Good_deeds	10	You have made someone cry	C1_29	0.55	Hard	I1_27	43	Beer is an alcoholic drink	0.722222222222222	No	RIGHT	872.0291999998153	RIGHT	768.1355999998232	RIGHT	1134.874299999865	RIGHT	1078.1146999997873	16.6	0.1	Probable_Truth	LEFT	LEFT	2	946.2158000001182	98	2021-03-15 15:23:39.209616
19	Self	S210315	0.6666666666666666	1	2	1	2	0.4	1500.000003	1350.0000027	2066.6666708	1933.3333372	Major	Good_deeds	26	You have attended all lectures as a student	C1_28	0.95	Hard	I1_58	40	The human's inner ear is larger than a pencil eraser	0.0	No	RIGHT	877.6851000002353	RIGHT	504.35410000000047	RIGHT	1924.1304000001944	RIGHT	3799.508900000092	17.0	0.4	Probable_Truth	RIGHT	RIGHT	6	906.5113000001476	99	2021-03-15 15:24:06.648419
42	Self	S210315	0.8333333333333334	2	1	1	2	0.3	1283.3333359	1283.3333359	1933.3333372	1650.0000033	Minor	Wrong_doings	2	You have gossiped about your best friend	C2_39	1.0	Hard	I2_23	29	There are 20 bones in the human skull	0.764705882352941	No	RIGHT	280.3296000001865	RIGHT	604.5838999998523	LEFT	2230.177200000071	LEFT	1895.3166000001147	17.3	0.3	Probable_Truth	RIGHT	RIGHT	6	1062.7339000002394	100	2021-03-15 15:24:31.449646
90	Self	S210315	0.8333333333333334	2	1	1	2	0.4	1150.0000023	1350.0000027	1933.3333372	1933.3333372	Major	Wrong_doings	33	You have stolen something	C2_25	0.0	Easy	I1_45	44	It is night time now	0.0555555555555556	No	RIGHT	303.7315999999919	RIGHT	788.8047000001279	LEFT	867.8052000000207	LEFT	1232.6201999999284	17.7	0.4	Probable_Truth	LEFT	LEFT	1	860.8565999998063	101	2021-03-15 15:24:54.441672
58	Self	S210315	0.5	2	1	1	2	0.6	1066.6666688	1283.3333359	2066.6666708	1650.0000033	Minor	Good_deeds	50	You have queued to enter the MRT train	C2_9	0.25	Easy	I1_1	32	Today is Sunday	0.0	No	RIGHT	287.3494999998911	RIGHT	1028.8525999999365	RIGHT	1238.2917999998426	LEFT	960.010499999953	18.3	0.6	Probable_Truth	LEFT	RIGHT	4	1782.314499999757	102	2021-03-15 15:25:18.385044
95	Self	S210315	0.8333333333333334	2	1	2	1	0.5	1283.3333359	1283.3333359	1500.000003	2216.6666711000003	Minor	Wrong_doings	44	You have sign up to sponsor a needy child	C1_47	0.85	Easy	I2_51	21	The Earth turns the closest to the sun in May	0.0	No	RIGHT	391.5133999998943	RIGHT	859.8577000002479	LEFT	1728.0689999997776	LEFT	3863.605099999859	18.8	0.5	Probable_Truth	RIGHT	RIGHT	3	873.1472999998005	103	2021-03-15 15:25:44.961435
1	Self	S210315	0.5	1	2	1	2	0.8	1350.0000027	1066.6666688	2216.6666711000003	1783.3333369	Minor	Good_deeds	53	You have told someone's secret to others	C1_19	0.0	Easy	I1_54	57	Airbags in cars are filled with sodium azide	0.0555555555555556	No	RIGHT	791.057500000079	RIGHT	456.1493000001065	LEFT	2090.366500000073	LEFT	2950.354300000072	19.6	0.8	Probable_Truth	RIGHT	RIGHT	5	1931.326699999772	104	2021-03-15 15:26:12.176796
138	Computer	S210315	0.8333333333333334	2	1	1	2	0.3	1283.3333359	1283.3333359	2066.6666708	2066.6666708	Minor	Wrong_doings	2	You have gossiped about your best friend	C2_39	1.0	Hard	I2_23	29	There are 20 bones in the human skull	0.764705882352941	No	LEFT	368.29190000025847	LEFT	769.7519999996985	LEFT	999.7158000001036	LEFT	1783.5131000001638	19.6	0.3	Probable_Lie	RIGHT	RIGHT	1	751.6532900265494	105	2021-03-15 15:26:36.121029
0	Self	S210315	0.5	1	2	1	2	0.5	1500.000003	1500.000003	2500.000005	2350.0000047	Minor	Wrong_doings	60	You have taken responsibility for your actions	C1_60	0.0	Hard	I2_52	13	The current century is 21st	0.0	Yes	LEFT	812.8590000001168	RIGHT	296.68069999979707	RIGHT	1028.2630000001518	RIGHT	848.616299999776	19.1	0.5	Probable_Lie	RIGHT	RIGHT	2	1932.2606999999152	106	2021-03-15 15:27:01.467833
74	Self	S210315	0.6666666666666666	2	1	1	2	0.8	1000.000002	1350.0000027	2066.6666708	1933.3333372	Major	Good_deeds	7	You have started a hotline for victims of bully	C2_53	1.0	Easy	I1_52	39	Summer is hotter than winter	0.0	No	LEFT	711.7637000001196	RIGHT	822.7895999998509	LEFT	1692.8298000002542	RIGHT	1536.119800000051	18.3	0.8	Probable_Lie	RIGHT	RIGHT	1	1138.975699999719	107	2021-03-15 15:27:26.297213
100	Computer	S210315	0.5	1	2	2	1	0.6	1150.0000023	1216.6666691	2066.6666708	2216.6666711000003	Minor	Good_deeds	18	You have been restricting your electricity consumption	C2_18	0.8	Hard	I1_28	1	Vegetarians can eat vegetable products	0.833333333333333	No	LEFT	792.8885999999693	LEFT	440.3553999995893	RIGHT	952.5065000002542	RIGHT	1408.4287999999106	18.3	0.6	Probable_Lie	LEFT	LEFT	5	611.1673738923088	108	2021-03-15 15:27:49.729900
93	Self	S210315	0.8333333333333334	2	1	2	1	0.2	1433.3333362	1150.0000023	2066.6666708	2350.0000047	Major	Wrong_doings	8	You have been sued	C2_33	0.65	Hard	I1_44	51	Singapore ranked 8th in World's smallest countries	0.777777777777778	Yes	LEFT	576.5761000002385	RIGHT	1076.8726999999672	LEFT	1031.8481999997855	LEFT	3028.831900000114	18.1	0.2	Probable_Lie	RIGHT	RIGHT	1	1060.8554999998887	109	2021-03-15 15:28:16.081548
59	Self	S210315	0.5	2	1	1	2	0.2	1150.0000023	1350.0000027	1783.3333369	1783.3333369	Minor	Good_deeds	17	You have bribed someone to improve a grade	C2_30	0.1	Easy	I1_8	55	Algeria is Africa's second largest country	0.0555555555555556	No	RIGHT	320.7015000002684	RIGHT	947.344499999872	LEFT	1442.0384999998532	RIGHT	2856.602700000167	18.3	0.2	Probable_Truth	RIGHT	LEFT	3	1494.7855000000343	110	2021-03-15 15:28:41.785320
55	Self	S210315	0.5	1	2	2	1	0.1	1000.000002	1350.0000027	2216.6666711000003	1783.3333369	Minor	Good_deeds	34	You have sheltered others from disasters	C1_24	0.95	Easy	I2_26	40	Malay is one of the races in Singapore	0.0	Yes	LEFT	791.8860999998287	RIGHT	424.01810000001205	RIGHT	2992.74000000014	RIGHT	1377.4238000000878	18.2	0.1	Probable_Lie	LEFT	LEFT	4	1056.52020000025	111	2021-03-15 15:29:07.353059
113	Computer	S210315	0.6666666666666666	1	2	1	2	0.4	1350.0000027	1433.3333362	2350.0000047	1500.000003	Minor	Good_deeds	16	You have taken part in burglary	C2_46	0.85	Hard	I2_3	19	Cleopatra was born in Greece	0.833333333333333	Yes	LEFT	847.5696000000426	LEFT	536.2718999999743	LEFT	798.5717999999906	LEFT	1432.6176999998097	18.2	0.4	Probable_Lie	RIGHT	LEFT	5	966.942681062318	112	2021-03-15 15:29:31.137431
123	Computer	S210315	0.6666666666666666	2	1	1	2	0.8	1066.6666688	1283.3333359	1650.0000033	1650.0000033	Minor	Good_deeds	38	You have volunteered every week for many years	C2_8	0.85	Hard	I1_15	24	Dutch is the 6th Europe's most widely spoken language	0.888888888888889	Yes	RIGHT	288.0733000001783	LEFT	804.2961000001014	LEFT	1956.9922999999108	RIGHT	2479.1433000000325	18.2	0.8	Probable_Truth	RIGHT	RIGHT	3	502.9826692991391	113	2021-03-15 15:29:55.392496
86	Self	S210315	0.8333333333333334	1	2	2	1	0.5	1500.000003	1283.3333359	1933.3333372	1500.000003	Minor	Good_deeds	47	You have watched an M18 movie when you were underage	C2_42	0.95	Hard	I2_34	34	Carnivore refers to meat-eater	0.777777777777778	No	RIGHT	667.963900000359	RIGHT	317.27120000005016	LEFT	2382.537400000274	RIGHT	1285.5743000000075	18.7	0.5	Probable_Truth	RIGHT	RIGHT	4	855.5303999996795	114	2021-03-15 15:30:19.697192
83	Self	S210315	0.8333333333333334	1	2	1	2	0.2	1000.000002	1216.6666691	2216.6666711000003	1783.3333369	Major	Wrong_doings	23	You have cursed at your loved ones	C1_48	0.65	Hard	I2_50	41	Kangaroos live in Africa	0.0	Yes	RIGHT	1048.395800000435	RIGHT	527.7464000000691	RIGHT	2084.055299999818	LEFT	1279.9322999999276	18.9	0.2	Probable_Truth	RIGHT	RIGHT	3	876.8546999999671	115	2021-03-15 15:30:44.305138
135	Computer	S210315	0.8333333333333334	1	2	2	1	0.6	1066.6666688	1066.6666688	1783.3333369	2350.0000047	Minor	Wrong_doings	57	You have assisted in a crime	C1_42	0.8	Hard	I1_60	47	Penguin can fly with their wings	0.0	Yes	LEFT	944.9589999999262	LEFT	696.4238999998997	LEFT	912.0413999999072	LEFT	1825.951299999815	18.9	0.6	Probable_Lie	LEFT	RIGHT	1	901.4181398892558	116	2021-03-15 15:31:08.425496
118	Computer	S210315	0.6666666666666666	1	2	2	1	0.7	1433.3333362	1500.000003	2066.6666708	2216.6666711000003	Major	Wrong_doings	59	You have used a fake name online	C1_46	0.0	Easy	I2_5	14	Mozambique is the world's poorest country	0.666666666666667	Yes	RIGHT	480.78540000005887	LEFT	384.6748999999363	LEFT	959.0014999998856	RIGHT	2203.755100000308	18.9	0.7	Probable_Lie	LEFT	LEFT	3	876.73669531464	117	2021-03-15 15:31:33.128915
51	Self	S210315	0.5	1	2	1	2	0.7	1066.6666688	1150.0000023	2066.6666708	2350.0000047	Major	Wrong_doings	24	You have signed up as a bone marrow donor	C2_14	0.9	Hard	I2_33	41	There are 9 rings in the Olympic flag	0.666666666666667	Yes	LEFT	614.9185000003854	RIGHT	344.4131000001107	RIGHT	1732.9392000001462	LEFT	1768.1570999998255	18.2	0.7	Probable_Lie	LEFT	LEFT	4	1100.7667999997466	118	2021-03-15 15:31:57.897320
125	Computer	S210315	0.6666666666666666	2	1	2	1	0.2	1500.000003	1433.3333362	2500.000005	2216.6666711000003	Minor	Wrong_doings	15	You have complimented others for good work	C2_54	0.55	Easy	I1_31	2	Fibers in oranges can be used to make fabric	0.0	Yes	RIGHT	382.3222000000897	LEFT	763.9411999998629	RIGHT	814.8544000000584	LEFT	1545.400200000131	18.2	0.2	Probable_Truth	RIGHT	RIGHT	6	682.9477127706502	119	2021-03-15 15:32:22.312225
134	Computer	S210315	0.8333333333333334	1	2	2	1	0.5	1350.0000027	1000.000002	2350.0000047	2216.6666711000003	Major	Wrong_doings	1	You have borrowed things and never returned	C2_29	1.0	Hard	I1_24	17	Hot chocolate was created by the Mayan culture	0.0555555555555556	No	RIGHT	1039.596999999958	LEFT	800.7150000003094	LEFT	1567.3122000002877	RIGHT	1968.421600000056	18.2	0.5	Probable_Truth	LEFT	LEFT	1	979.9059378079868	120	2021-03-15 15:32:48.161302
126	Computer	S210315	0.6666666666666666	2	1	2	1	0.5	1000.000002	1216.6666691	2350.0000047	1500.000003	Major	Good_deeds	39	You have watched a pirated movie	C2_17	0.0	Easy	I2_12	9	Nanyang Technological University is in Australia	0.0	No	LEFT	416.1035000001903	LEFT	915.4825999999048	LEFT	878.3991000000242	LEFT	1092.9945999996562	18.2	0.5	Probable_Lie	LEFT	LEFT	5	784.6102778410182	121	2021-03-15 15:33:10.889568
27	Self	S210315	0.6666666666666666	2	1	1	2	0.5	1066.6666688	1500.000003	1933.3333372	2350.0000047	Minor	Good_deeds	38	You have volunteered every week for many years	C2_8	0.85	Hard	I1_15	24	Dutch is the 6th Europe's most widely spoken language	0.888888888888889	Yes	RIGHT	303.8942999996834	RIGHT	1068.6114000000089	LEFT	939.2903999996634	RIGHT	1215.9320000000662	18.7	0.5	Probable_Truth	LEFT	LEFT	2	1324.7157999999215	122	2021-03-15 15:33:35.168498
114	Computer	S210315	0.6666666666666666	1	2	1	2	0.3	1066.6666688	1066.6666688	2500.000005	1933.3333372	Minor	Good_deeds	28	You have given up your seat in the MRT	C2_24	0.2	Hard	I2_58	58	Statute of Liberty is in New York	0.111111111111111	Yes	RIGHT	600.6858999999167	LEFT	713.2448000002114	RIGHT	940.8909000003404	LEFT	2535.343499999726	18.7	0.3	Probable_Truth	RIGHT	RIGHT	4	932.6444126591822	123	2021-03-15 15:34:00.033210
31	Self	S210315	0.6666666666666666	2	1	2	1	0.1	1433.3333362	1150.0000023	2500.000005	1783.3333369	Major	Wrong_doings	17	You have sold illegal drugs	C1_11	0.0	Hard	I1_43	12	The Seine river is 50 feet above sea level	1.0	Yes	RIGHT	247.1125000001848	RIGHT	806.0308000003715	LEFT	769.1450999991503	RIGHT	1443.309400000544	18.8	0.1	Probable_Truth	RIGHT	RIGHT	6	796.2233999996897	124	2021-03-15 15:34:23.536782
50	Self	S210315	0.5	1	2	1	2	0.4	1216.6666691	1216.6666691	1933.3333372	2216.6666711000003	Major	Good_deeds	20	You have coveted things that belong to others	C1_34	0.15	Easy	I1_5	33	Bears have the biggest eyes among mammals	0.611111111111111	No	RIGHT	763.3728999999221	RIGHT	1080.3986000000805	RIGHT	2319.8781999999483	RIGHT	2358.490999999958	19.2	0.4	Probable_Truth	RIGHT	RIGHT	5	1924.563500000659	125	2021-03-15 15:34:51.143897
139	Computer	S210315	0.8333333333333334	2	1	1	2	0.6	1433.3333362	1066.6666688	2216.6666711000003	2350.0000047	Minor	Wrong_doings	56	You have adopted a zero-waste lifestyle	C1_13	0.9	Easy	I2_4	38	Pyramid of Giza is 468 feet tall	0.944444444444444	Yes	RIGHT	504.2822999994314	LEFT	951.2959999992744	RIGHT	1345.954399999755	LEFT	1392.5521999999546	19.2	0.6	Probable_Lie	LEFT	LEFT	3	923.0046461309212	126	2021-03-15 15:35:15.896090
40	Self	S210315	0.8333333333333334	2	1	1	2	0.6	1500.000003	1500.000003	2216.6666711000003	1933.3333372	Minor	Good_deeds	28	You have extorted money from anyone	C1_30	0.05	Hard	I1_38	4	It is snowing outside now	0.888888888888889	Yes	RIGHT	280.53989999989426	RIGHT	846.7632000001686	LEFT	1028.7705000000642	LEFT	992.226300000766	19.8	0.6	Probable_Truth	LEFT	LEFT	1	743.3549999996103	127	2021-03-15 15:35:39.511914
109	Computer	S210315	0.5	2	1	2	1	0.7	1150.0000023	1216.6666691	1650.0000033	2066.6666708	Major	Good_deeds	35	You have sorted your trash into recycling bin	C1_27	0.45	Easy	I1_37	49	Fishes can swim in water	0.0	Yes	RIGHT	287.57709999990766	LEFT	683.8354000001345	RIGHT	807.4538000000757	RIGHT	1254.3525999999474	19.8	0.7	Probable_Truth	RIGHT	RIGHT	4	886.2540947893156	128	2021-03-15 15:36:02.088917
92	Self	S210315	0.8333333333333334	2	1	2	1	0.7	1500.000003	1216.6666691	2500.000005	2066.6666708	Minor	Wrong_doings	25	You have risked your life to save another person's life	C1_8	0.05	Hard	I1_11	45	Brazil is in South America	0.833333333333333	Yes	RIGHT	625.0079000001278	RIGHT	701.3967000002594	LEFT	2039.886300000035	RIGHT	1711.5568999997777	20.5	0.7	Probable_Truth	LEFT	LEFT	1	910.8375000005252	129	2021-03-15 15:36:27.936090
103	Computer	S210315	0.5	1	2	2	1	0.8	1000.000002	1433.3333362	1783.3333369	1500.000003	Major	Wrong_doings	58	You have kidnapped someone	C2_40	0.95	Hard	I2_30	54	North Korea is more developed than South Korea	0.833333333333333	Yes	LEFT	770.4137999999148	LEFT	761.0899000001154	LEFT	680.9895000005781	LEFT	884.6616999999242	20.5	0.8	Probable_Lie	LEFT	LEFT	5	852.1308878901294	130	2021-03-15 15:36:50.168225
99	Computer	S210315	0.5	1	2	1	2	0.7	1216.6666691	1000.000002	2350.0000047	2350.0000047	Major	Good_deeds	27	You have been arrested	C2_58	0.7	Easy	I1_57	30	"Statue of Liberty is 151 feet tall"	0.0	No	RIGHT	591.2493999994695	LEFT	416.5769999999611	LEFT	804.516700000022	RIGHT	2007.827099999304	20.5	0.7	Probable_Truth	RIGHT	RIGHT	4	789.925027448184	131	2021-03-15 15:37:14.256101
8	Self	S210315	0.5	2	1	1	2	0.8	1500.000003	1283.3333359	1783.3333369	1500.000003	Minor	Good_deeds	36	You have started a movement to support a cause	C2_52	0.0	Hard	I2_45	45	Feijoa is a type of grape	0.888888888888889	Yes	LEFT	328.63869999982853	RIGHT	938.3096000001387	LEFT	1946.797399999923	LEFT	1359.2501999992237	19.7	0.8	Probable_Lie	LEFT	LEFT	4	2343.305700000201	132	2021-03-15 15:37:39.817134
46	Self	S210315	0.8333333333333334	2	1	2	1	0.2	1216.6666691	1000.000002	1783.3333369	1500.000003	Major	Wrong_doings	30	You have failed to keep promises	C1_31	0.55	Hard	I2_44	44	It takes 112 years to build the Pisa Tower	0.0	No	RIGHT	343.72239999993326	RIGHT	851.0461000005307	RIGHT	1431.5658000004987	LEFT	1973.76340000028	19.9	0.2	Probable_Truth	LEFT	LEFT	1	765.3876000003947	133	2021-03-15 15:38:03.264636
38	Self	S210315	0.8333333333333334	1	2	2	1	0.6	1283.3333359	1500.000003	1500.000003	2066.6666708	Major	Wrong_doings	1	You have borrowed things and never returned	C2_29	1.0	Hard	I1_24	17	Hot chocolate was created by the Mayan culture	0.0555555555555556	No	LEFT	875.4187000004094	RIGHT	221.2082999994891	LEFT	1360.387499999888	RIGHT	1246.7334000002666	19.3	0.6	Probable_Lie	RIGHT	RIGHT	1	1064.1255000000456	134	2021-03-15 15:38:26.969560
115	Computer	S210315	0.6666666666666666	1	2	1	2	0.5	1283.3333359	1216.6666691	1783.3333369	1783.3333369	Major	Good_deeds	26	You have attended all lectures as a student	C1_28	0.95	Hard	I1_58	40	The human's inner ear is larger than a pencil eraser	0.0	No	RIGHT	786.9259999997666	LEFT	1296.317100000124	RIGHT	1143.5019000000466	RIGHT	1862.678899999992	19.3	0.5	Probable_Truth	RIGHT	LEFT	1	506.9026843245189	135	2021-03-15 15:38:51.200008
10	Self	S210315	0.5	2	1	1	2	0.5	1350.0000027	1500.000003	2350.0000047	2216.6666711000003	Major	Good_deeds	6	You have deceived a loved one	C2_6	0.95	Hard	I1_33	25	It sometimes snows in Singapore	0.0	Yes	RIGHT	278.93850000054954	RIGHT	827.8143999996246	LEFT	1377.147100000002	LEFT	1279.35830000024	19.8	0.5	Probable_Truth	LEFT	RIGHT	4	1163.8639000002513	136	2021-03-15 15:39:16.120444
120	Computer	S210315	0.6666666666666666	2	1	1	2	0.3	1216.6666691	1066.6666688	2066.6666708	2066.6666708	Major	Wrong_doings	8	You have taken part in violent demonstration	C1_39	0.95	Hard	I2_48	48	The sun rises at night	0.611111111111111	No	LEFT	271.83140000033745	LEFT	758.7271000002147	LEFT	1109.4877000005	LEFT	1127.6379999999335	19.8	0.3	Probable_Lie	LEFT	LEFT	6	775.203179155123	137	2021-03-15 15:39:39.144163
24	Self	S210315	0.6666666666666666	2	1	1	2	0.6	1350.0000027	1433.3333362	2066.6666708	1933.3333372	Major	Wrong_doings	8	You have taken part in violent demonstration	C1_39	0.95	Hard	I2_48	48	The sun rises at night	0.611111111111111	No	RIGHT	216.6402000002563	RIGHT	829.7294999993028	LEFT	923.1417000000874	LEFT	671.377399999983	20.4	0.6	Probable_Truth	LEFT	LEFT	2	1425.1495999997132	138	2021-03-15 15:40:02.567796
107	Computer	S210315	0.5	2	1	1	2	0.1	1283.3333359	1433.3333362	1783.3333369	2216.6666711000003	Major	Good_deeds	1	You have used heroin	C2_37	0.0	Easy	I1_25	33	The Franco-Prussian War occurred in the 19th century	0.0	No	RIGHT	351.97490000064136	LEFT	1136.190500000339	LEFT	741.6364999999132	RIGHT	1448.2315000004746	20.4	0.1	Probable_Truth	LEFT	RIGHT	6	746.9765215107684	139	2021-03-15 15:40:26.287376
57	Self	S210315	0.5	2	1	1	2	0.1	1000.000002	1433.3333362	2500.000005	1933.3333372	Major	Wrong_doings	50	You have done something against your values	C2_50	0.9	Easy	I2_17	17	Today is a weekday	0.0	Yes	RIGHT	288.52290000031644	RIGHT	707.4491000003036	LEFT	1434.5898000001398	RIGHT	1063.84750000052	20.5	0.1	Probable_Truth	RIGHT	LEFT	2	2381.778399999348	140	2021-03-15 15:40:51.608215
25	Self	S210315	0.6666666666666666	2	1	1	2	0.8	1000.000002	1216.6666691	1783.3333369	1650.0000033	Minor	Good_deeds	58	You have volunteered for a disaster-related humanitarian mission	C1_58	0.05	Easy	I2_24	43	There are 7 days in a week	0.944444444444444	Yes	LEFT	368.4782000000269	RIGHT	875.1521000003777	LEFT	1119.5346000004065	RIGHT	1046.2483999999677	19.7	0.8	Probable_Lie	RIGHT	RIGHT	1	1155.920100000003	141	2021-03-15 15:41:14.400033
97	Computer	S210315	0.5	1	2	1	2	0.2	1500.000003	1066.6666688	1933.3333372	1933.3333372	Minor	Good_deeds	53	You have told someone's secret to others	C1_19	0.0	Easy	I1_54	57	Airbags in cars are filled with sodium azide	0.0555555555555556	No	RIGHT	725.9109999995417	LEFT	343.7969999995403	LEFT	1884.8891000006915	LEFT	1703.7657000000763	19.7	0.2	Probable_Truth	LEFT	RIGHT	4	803.4808841265244	142	2021-03-15 15:41:38.864595
6	Self	S210315	0.5	1	2	2	1	0.7	1000.000002	1283.3333359	2066.6666708	1650.0000033	Minor	Wrong_doings	6	You have offered a listening ear to a friend	C2_27	0.45	Easy	I2_53	53	February has 30 days	0.888888888888889	Yes	LEFT	733.8435000001482	RIGHT	513.3547999994335	RIGHT	967.8701000002548	LEFT	1593.2121000005282	19.0	0.7	Probable_Lie	LEFT	LEFT	4	1626.0080000001835	143	2021-03-15 15:42:02.872556
