"Participant"	"Task"	"Stimulus_Side"	"Response"	"RT"	"ITI"	"Previous_Response"	"Previous_RT"	"Stop_Signal"	"Stop_Signal_RT"	"Conflict"	"Cue_Response"	"Cue_Response_RT"	"Trial_Onset"	"Trial_End"	"Trial_Order"	"Duration"
"S200121"	"Conflict_Resolution"	"LEFT"	"Time_Max_Exceeded"	1500.11830000005	1350.0000027	""	n/a	n/a	n/a	"True"	n/a	n/a	"2020-01-21 13:09:24.229374"	"2020-01-21 13:09:25.730173"	1	5.70395968333333
"S200121"	"Conflict_Resolution"	"RIGHT"	"RIGHT"	637.69759999991	1050.0000021	""	n/a	n/a	n/a	"False"	n/a	n/a	"2020-01-21 13:09:26.799686"	"2020-01-21 13:09:27.644620"	2	5.70395968333333
"S200121"	"Conflict_Resolution"	"RIGHT"	"Time_Max_Exceeded"	1500.05620000002	1233.3333358	""	n/a	n/a	n/a	"True"	n/a	n/a	"2020-01-21 13:09:28.896864"	"2020-01-21 13:09:30.397709"	3	5.70395968333333
"S200121"	"Conflict_Resolution"	"RIGHT"	"RIGHT"	419.458200000008	1033.3333354	""	n/a	n/a	n/a	"False"	n/a	n/a	"2020-01-21 13:09:31.450555"	"2020-01-21 13:09:32.077564"	4	5.70395968333333
"S200121"	"Conflict_Resolution"	"RIGHT"	"Time_Max_Exceeded"	1500.0788000001	800.0000016	""	n/a	n/a	n/a	"True"	n/a	n/a	"2020-01-21 13:09:32.896475"	"2020-01-21 13:09:34.397355"	5	5.70395968333333
"S200121"	"Conflict_Resolution"	"LEFT"	"Time_Max_Exceeded"	1500.11170000005	950.0000019	""	n/a	n/a	n/a	"True"	n/a	n/a	"2020-01-21 13:09:35.367174"	"2020-01-21 13:09:36.867110"	6	5.70395968333333
"S200121"	"Conflict_Resolution"	"RIGHT"	"RIGHT"	1465.82909999995	1083.3333355	""	n/a	n/a	n/a	"True"	n/a	n/a	"2020-01-21 13:09:37.971917"	"2020-01-21 13:09:39.645827"	7	5.70395968333333
"S200121"	"Conflict_Resolution"	"LEFT"	"LEFT"	1121.60070000004	1300.0000026	""	n/a	n/a	n/a	"True"	n/a	n/a	"2020-01-21 13:09:40.963217"	"2020-01-21 13:09:42.293457"	8	5.70395968333333
"S200121"	"Conflict_Resolution"	"RIGHT"	"RIGHT"	689.075699999989	1333.333336	""	n/a	n/a	n/a	"False"	n/a	n/a	"2020-01-21 13:09:43.644031"	"2020-01-21 13:09:44.542961"	9	5.70395968333333
"S200121"	"Conflict_Resolution"	"RIGHT"	"RIGHT"	564.901500000019	800.0000016	""	n/a	n/a	n/a	"False"	n/a	n/a	"2020-01-21 13:09:45.361039"	"2020-01-21 13:09:46.134729"	10	5.70395968333333
"S200121"	"Conflict_Resolution"	"LEFT"	"LEFT"	884.2803	533.3333344	""	n/a	n/a	n/a	"True"	n/a	n/a	"2020-01-21 13:09:46.688719"	"2020-01-21 13:09:47.781945"	11	5.70395968333333
"S200121"	"Conflict_Resolution"	"RIGHT"	"RIGHT"	1280.96549999998	1216.6666691	""	n/a	n/a	n/a	"True"	n/a	n/a	"2020-01-21 13:09:49.020895"	"2020-01-21 13:09:50.509848"	12	5.70395968333333
"S200121"	"Conflict_Resolution"	"LEFT"	"LEFT"	623.441699999944	916.6666685	""	n/a	n/a	n/a	"False"	n/a	n/a	"2020-01-21 13:09:51.446066"	"2020-01-21 13:09:52.276435"	13	5.70395968333333
"S200121"	"Conflict_Resolution"	"LEFT"	"LEFT"	568.200899999965	1150.0000023	""	n/a	n/a	n/a	"False"	n/a	n/a	"2020-01-21 13:09:53.445087"	"2020-01-21 13:09:54.221757"	14	5.70395968333333
"S200121"	"Conflict_Resolution"	"LEFT"	"Time_Max_Exceeded"	1500.07589999996	1500.000003	""	n/a	n/a	n/a	"True"	n/a	n/a	"2020-01-21 13:09:55.740325"	"2020-01-21 13:09:57.240967"	15	5.70395968333333
"S200121"	"Conflict_Resolution"	"RIGHT"	"RIGHT"	550.90580000001	650.0000013	"LEFT"	-386.958	n/a	n/a	"False"	n/a	n/a	"2020-01-21 13:09:57.911147"	"2020-01-21 13:09:58.670372"	16	5.70395968333333
"S200121"	"Conflict_Resolution"	"LEFT"	"LEFT"	515.463400000044	1416.6666695	""	n/a	n/a	n/a	"False"	n/a	n/a	"2020-01-21 13:10:00.105703"	"2020-01-21 13:10:00.830023"	17	5.70395968333333
"S200121"	"Conflict_Resolution"	"RIGHT"	"RIGHT"	944.018700000015	500.000001	""	n/a	n/a	n/a	"True"	n/a	n/a	"2020-01-21 13:10:01.349199"	"2020-01-21 13:10:02.502036"	18	5.70395968333333
"S200121"	"Conflict_Resolution"	"RIGHT"	"RIGHT"	865.705800000001	650.0000013	""	n/a	n/a	n/a	"True"	n/a	n/a	"2020-01-21 13:10:03.172215"	"2020-01-21 13:10:04.245926"	19	5.70395968333333
"S200121"	"Conflict_Resolution"	"LEFT"	"LEFT"	618.140499999981	850.0000017	""	n/a	n/a	n/a	"False"	n/a	n/a	"2020-01-21 13:10:05.115279"	"2020-01-21 13:10:05.940571"	20	5.70395968333333
"S200121"	"Conflict_Resolution"	"RIGHT"	"RIGHT"	484.573899999987	633.3333346	""	n/a	n/a	n/a	"False"	n/a	n/a	"2020-01-21 13:10:06.593345"	"2020-01-21 13:10:07.285860"	21	5.70395968333333
"S200121"	"Conflict_Resolution"	"RIGHT"	"RIGHT"	451.875500000028	850.0000017	""	n/a	n/a	n/a	"False"	n/a	n/a	"2020-01-21 13:10:08.153057"	"2020-01-21 13:10:08.812438"	22	5.70395968333333
"S200121"	"Conflict_Resolution"	"LEFT"	"LEFT"	728.828300000032	516.6666677	""	n/a	n/a	n/a	"True"	n/a	n/a	"2020-01-21 13:10:09.348533"	"2020-01-21 13:10:10.285415"	23	5.70395968333333
"S200121"	"Conflict_Resolution"	"LEFT"	"LEFT"	516.184299999964	566.6666678	""	n/a	n/a	n/a	"False"	n/a	n/a	"2020-01-21 13:10:10.873608"	"2020-01-21 13:10:11.597771"	24	5.70395968333333
"S200121"	"Conflict_Resolution"	"RIGHT"	"RIGHT"	488.210099999947	933.3333352	""	n/a	n/a	n/a	"False"	n/a	n/a	"2020-01-21 13:10:12.548798"	"2020-01-21 13:10:13.245239"	25	5.70395968333333
"S200121"	"Conflict_Resolution"	"LEFT"	"LEFT"	465.597199999934	900.0000018	""	n/a	n/a	n/a	"False"	n/a	n/a	"2020-01-21 13:10:14.164351"	"2020-01-21 13:10:14.837231"	26	5.70395968333333
"S200121"	"Conflict_Resolution"	"LEFT"	"LEFT"	670.313199999896	1366.6666694	""	n/a	n/a	n/a	"True"	n/a	n/a	"2020-01-21 13:10:16.222904"	"2020-01-21 13:10:17.101591"	27	5.70395968333333
"S200121"	"Conflict_Resolution"	"RIGHT"	"RIGHT"	609.606999999983	1050.0000021	""	n/a	n/a	n/a	"True"	n/a	n/a	"2020-01-21 13:10:18.172303"	"2020-01-21 13:10:18.990994"	28	5.70395968333333
"S200121"	"Conflict_Resolution"	"LEFT"	"LEFT"	497.653300000025	1066.6666688	""	n/a	n/a	n/a	"False"	n/a	n/a	"2020-01-21 13:10:20.076090"	"2020-01-21 13:10:20.780366"	29	5.70395968333333
"S200121"	"Conflict_Resolution"	"LEFT"	"LEFT"	414.900500000044	766.6666682	""	n/a	n/a	n/a	"False"	n/a	n/a	"2020-01-21 13:10:21.566338"	"2020-01-21 13:10:22.190661"	30	5.70395968333333
"S200121"	"Conflict_Resolution"	"RIGHT"	"RIGHT"	425.220099999933	1266.6666692	""	n/a	n/a	n/a	"False"	n/a	n/a	"2020-01-21 13:10:23.476074"	"2020-01-21 13:10:24.108394"	31	5.70395968333333
"S200121"	"Conflict_Resolution"	"RIGHT"	"RIGHT"	535.892600000011	1150.0000023	""	n/a	n/a	n/a	"True"	n/a	n/a	"2020-01-21 13:10:25.278191"	"2020-01-21 13:10:26.021861"	32	5.70395968333333
"S200121"	"Conflict_Resolution"	"LEFT"	"LEFT"	383.760499999994	1300.0000026	""	n/a	n/a	n/a	"False"	n/a	n/a	"2020-01-21 13:10:27.341098"	"2020-01-21 13:10:27.933805"	33	5.70395968333333
"S200121"	"Conflict_Resolution"	"LEFT"	"LEFT"	808.668000000011	733.3333348	""	n/a	n/a	n/a	"True"	n/a	n/a	"2020-01-21 13:10:28.684973"	"2020-01-21 13:10:29.701593"	34	5.70395968333333
"S200121"	"Conflict_Resolution"	"LEFT"	"LEFT"	384.290200000009	1116.6666689	""	n/a	n/a	n/a	"False"	n/a	n/a	"2020-01-21 13:10:30.837438"	"2020-01-21 13:10:31.430854"	35	5.70395968333333
"S200121"	"Conflict_Resolution"	"LEFT"	"LEFT"	485.299499999996	1350.0000027	""	n/a	n/a	n/a	"False"	n/a	n/a	"2020-01-21 13:10:32.800413"	"2020-01-21 13:10:33.493810"	36	5.70395968333333
"S200121"	"Conflict_Resolution"	"RIGHT"	"RIGHT"	438.04949999992	983.3333353	""	n/a	n/a	n/a	"False"	n/a	n/a	"2020-01-21 13:10:34.495560"	"2020-01-21 13:10:35.141478"	37	5.70395968333333
"S200121"	"Conflict_Resolution"	"LEFT"	"LEFT"	634.940599999936	683.3333347	""	n/a	n/a	n/a	"True"	n/a	n/a	"2020-01-21 13:10:35.843037"	"2020-01-21 13:10:36.685324"	38	5.70395968333333
"S200121"	"Conflict_Resolution"	"LEFT"	"LEFT"	396.449299999972	1400.0000028	""	n/a	n/a	n/a	"False"	n/a	n/a	"2020-01-21 13:10:38.105237"	"2020-01-21 13:10:38.710868"	39	5.70395968333333
"S200121"	"Conflict_Resolution"	"LEFT"	"LEFT"	850.528000000054	1416.6666695	""	n/a	n/a	n/a	"True"	n/a	n/a	"2020-01-21 13:10:40.146418"	"2020-01-21 13:10:41.205656"	40	5.70395968333333
"S200121"	"Conflict_Resolution"	"RIGHT"	"RIGHT"	661.328300000037	583.3333345	""	n/a	n/a	n/a	"True"	n/a	n/a	"2020-01-21 13:10:41.808045"	"2020-01-21 13:10:42.677941"	41	5.70395968333333
"S200121"	"Conflict_Resolution"	"LEFT"	"LEFT"	386.423400000012	1250.0000025	""	n/a	n/a	n/a	"False"	n/a	n/a	"2020-01-21 13:10:43.947426"	"2020-01-21 13:10:44.541741"	42	5.70395968333333
"S200121"	"Conflict_Resolution"	"LEFT"	"LEFT"	438.594899999998	950.0000019	""	n/a	n/a	n/a	"False"	n/a	n/a	"2020-01-21 13:10:45.510830"	"2020-01-21 13:10:46.156527"	43	5.70395968333333
"S200121"	"Conflict_Resolution"	"RIGHT"	"RIGHT"	558.434499999976	783.3333349	""	n/a	n/a	n/a	"True"	n/a	n/a	"2020-01-21 13:10:46.959289"	"2020-01-21 13:10:47.725568"	44	5.70395968333333
"S200121"	"Conflict_Resolution"	"LEFT"	"LEFT"	387.387399999966	616.6666679	""	n/a	n/a	n/a	"False"	n/a	n/a	"2020-01-21 13:10:48.361555"	"2020-01-21 13:10:48.957142"	45	5.70395968333333
"S200121"	"Conflict_Resolution"	"RIGHT"	"RIGHT"	513.236399999982	1283.3333359	""	n/a	n/a	n/a	"True"	n/a	n/a	"2020-01-21 13:10:50.259982"	"2020-01-21 13:10:50.981380"	46	5.70395968333333
"S200121"	"Conflict_Resolution"	"LEFT"	"LEFT"	350.494700000013	1166.666669	""	n/a	n/a	n/a	"False"	n/a	n/a	"2020-01-21 13:10:52.167328"	"2020-01-21 13:10:52.725354"	47	5.70395968333333
"S200121"	"Conflict_Resolution"	"RIGHT"	"RIGHT"	610.321999999996	500.000001	""	n/a	n/a	n/a	"False"	n/a	n/a	"2020-01-21 13:10:53.243968"	"2020-01-21 13:10:54.061429"	48	5.70395968333333
"S200121"	"Conflict_Resolution"	"LEFT"	"LEFT"	338.183200000003	1050.0000021	""	n/a	n/a	n/a	"False"	n/a	n/a	"2020-01-21 13:10:55.131679"	"2020-01-21 13:10:55.676817"	49	5.70395968333333
"S200121"	"Conflict_Resolution"	"RIGHT"	"RIGHT"	358.727900000076	950.0000019	""	n/a	n/a	n/a	"False"	n/a	n/a	"2020-01-21 13:10:56.646346"	"2020-01-21 13:10:57.212409"	50	5.70395968333333
"S200121"	"Conflict_Resolution"	"RIGHT"	"RIGHT"	665.466600000059	1316.6666693	""	n/a	n/a	n/a	"True"	n/a	n/a	"2020-01-21 13:10:58.548072"	"2020-01-21 13:10:59.421748"	51	5.70395968333333
"S200121"	"Conflict_Resolution"	"LEFT"	"LEFT"	419.60389999997	633.3333346	""	n/a	n/a	n/a	"False"	n/a	n/a	"2020-01-21 13:11:00.074048"	"2020-01-21 13:11:00.701770"	52	5.70395968333333
"S200121"	"Conflict_Resolution"	"RIGHT"	"RIGHT"	422.068299999978	583.3333345	""	n/a	n/a	n/a	"False"	n/a	n/a	"2020-01-21 13:11:01.303164"	"2020-01-21 13:11:01.934017"	53	5.70395968333333
"S200121"	"Conflict_Resolution"	"RIGHT"	"RIGHT"	545.350099999951	1466.6666696	""	n/a	n/a	n/a	"True"	n/a	n/a	"2020-01-21 13:11:03.419606"	"2020-01-21 13:11:04.172201"	54	5.70395968333333
"S200121"	"Conflict_Resolution"	"RIGHT"	"RIGHT"	452.970700000037	1416.6666695	""	n/a	n/a	n/a	"False"	n/a	n/a	"2020-01-21 13:11:05.608500"	"2020-01-21 13:11:06.268623"	55	5.70395968333333
"S200121"	"Conflict_Resolution"	"RIGHT"	"RIGHT"	594.573099999934	1483.3333363	""	n/a	n/a	n/a	"True"	n/a	n/a	"2020-01-21 13:11:07.771054"	"2020-01-21 13:11:08.573557"	56	5.70395968333333
"S200121"	"Conflict_Resolution"	"LEFT"	"LEFT"	400.717600000007	1500.000003	""	n/a	n/a	n/a	"False"	n/a	n/a	"2020-01-21 13:11:10.092310"	"2020-01-21 13:11:10.700162"	57	5.70395968333333
"S200121"	"Conflict_Resolution"	"RIGHT"	"RIGHT"	466.293300000075	883.3333351	""	n/a	n/a	n/a	"True"	n/a	n/a	"2020-01-21 13:11:11.602990"	"2020-01-21 13:11:12.277191"	58	5.70395968333333
"S200121"	"Conflict_Resolution"	"LEFT"	"LEFT"	469.967999999994	783.3333349	""	n/a	n/a	n/a	"False"	n/a	n/a	"2020-01-21 13:11:13.079240"	"2020-01-21 13:11:13.757636"	59	5.70395968333333
"S200121"	"Conflict_Resolution"	"RIGHT"	"RIGHT"	354.483699999946	833.333335	""	n/a	n/a	n/a	"False"	n/a	n/a	"2020-01-21 13:11:14.610849"	"2020-01-21 13:11:15.173394"	60	5.70395968333333
"S200121"	"Conflict_Resolution"	"LEFT"	"RIGHT"	648.685999999998	1116.6666689	""	n/a	n/a	n/a	"True"	n/a	n/a	"2020-01-21 13:11:16.309200"	"2020-01-21 13:11:17.166398"	61	5.70395968333333
"S200121"	"Conflict_Resolution"	"LEFT"	"LEFT"	480.11699999995	1316.6666693	""	n/a	n/a	n/a	"False"	n/a	n/a	"2020-01-21 13:11:18.501344"	"2020-01-21 13:11:19.189728"	62	5.70395968333333
"S200121"	"Conflict_Resolution"	"RIGHT"	"RIGHT"	453.415100000029	783.3333349	""	n/a	n/a	n/a	"False"	n/a	n/a	"2020-01-21 13:11:19.992299"	"2020-01-21 13:11:20.653258"	63	5.70395968333333
"S200121"	"Conflict_Resolution"	"RIGHT"	"RIGHT"	599.856499999987	933.3333352	""	n/a	n/a	n/a	"True"	n/a	n/a	"2020-01-21 13:11:21.605797"	"2020-01-21 13:11:22.413311"	64	5.70395968333333
"S200121"	"Conflict_Resolution"	"LEFT"	"LEFT"	767.87760000002	1316.6666693	""	n/a	n/a	n/a	"True"	n/a	n/a	"2020-01-21 13:11:23.750408"	"2020-01-21 13:11:24.726204"	65	5.70395968333333
"S200121"	"Conflict_Resolution"	"LEFT"	"LEFT"	677.82150000005	583.3333345	""	n/a	n/a	n/a	"True"	n/a	n/a	"2020-01-21 13:11:25.327865"	"2020-01-21 13:11:26.212577"	66	5.70395968333333
"S200121"	"Conflict_Resolution"	"RIGHT"	"RIGHT"	596.4788	633.3333346	""	n/a	n/a	n/a	"True"	n/a	n/a	"2020-01-21 13:11:26.864849"	"2020-01-21 13:11:27.669960"	67	5.70395968333333
"S200121"	"Conflict_Resolution"	"RIGHT"	"RIGHT"	485.373600000003	1383.3333361	""	n/a	n/a	n/a	"False"	n/a	n/a	"2020-01-21 13:11:29.072261"	"2020-01-21 13:11:29.765964"	68	5.70395968333333
"S200121"	"Conflict_Resolution"	"LEFT"	"LEFT"	616.761799999949	1466.6666696	""	n/a	n/a	n/a	"True"	n/a	n/a	"2020-01-21 13:11:31.253170"	"2020-01-21 13:11:32.078140"	69	5.70395968333333
"S200121"	"Conflict_Resolution"	"LEFT"	"LEFT"	470.040499999982	733.3333348	""	n/a	n/a	n/a	"False"	n/a	n/a	"2020-01-21 13:11:32.831195"	"2020-01-21 13:11:33.509980"	70	5.70395968333333
"S200121"	"Conflict_Resolution"	"LEFT"	"LEFT"	467.838999999913	1216.6666691	""	n/a	n/a	n/a	"False"	n/a	n/a	"2020-01-21 13:11:34.745452"	"2020-01-21 13:11:35.421115"	71	5.70395968333333
"S200121"	"Conflict_Resolution"	"RIGHT"	"RIGHT"	513.761399999908	683.3333347	""	n/a	n/a	n/a	"True"	n/a	n/a	"2020-01-21 13:11:36.123367"	"2020-01-21 13:11:36.846033"	72	5.70395968333333
"S200121"	"Conflict_Resolution"	"LEFT"	"LEFT"	546.99549999998	633.3333346	""	n/a	n/a	n/a	"True"	n/a	n/a	"2020-01-21 13:11:37.498469"	"2020-01-21 13:11:38.253819"	73	5.70395968333333
"S200121"	"Conflict_Resolution"	"LEFT"	"LEFT"	599.926699999969	916.6666685	""	n/a	n/a	n/a	"True"	n/a	n/a	"2020-01-21 13:11:39.189939"	"2020-01-21 13:11:39.996408"	74	5.70395968333333
"S200121"	"Conflict_Resolution"	"LEFT"	"LEFT"	563.925500000096	683.3333347	""	n/a	n/a	n/a	"False"	n/a	n/a	"2020-01-21 13:11:40.698018"	"2020-01-21 13:11:41.469527"	75	5.70395968333333
"S200121"	"Conflict_Resolution"	"RIGHT"	"RIGHT"	422.830900000008	1366.6666694	""	n/a	n/a	n/a	"False"	n/a	n/a	"2020-01-21 13:11:42.855133"	"2020-01-21 13:11:43.485799"	76	5.70395968333333
"S200121"	"Conflict_Resolution"	"LEFT"	"LEFT"	624.968599999988	900.0000018	""	n/a	n/a	n/a	"True"	n/a	n/a	"2020-01-21 13:11:44.406180"	"2020-01-21 13:11:45.240005"	77	5.70395968333333
"S200121"	"Conflict_Resolution"	"RIGHT"	"RIGHT"	592.861500000026	1466.6666696	""	n/a	n/a	n/a	"False"	n/a	n/a	"2020-01-21 13:11:46.724695"	"2020-01-21 13:11:47.525808"	78	5.70395968333333
"S200121"	"Conflict_Resolution"	"LEFT"	"LEFT"	558.827400000041	533.3333344	""	n/a	n/a	n/a	"False"	n/a	n/a	"2020-01-21 13:11:48.078987"	"2020-01-21 13:11:48.845705"	79	5.70395968333333
"S200121"	"Conflict_Resolution"	"RIGHT"	"RIGHT"	502.699099999973	1133.3333356	""	n/a	n/a	n/a	"False"	n/a	n/a	"2020-01-21 13:11:49.998547"	"2020-01-21 13:11:50.709992"	80	5.70395968333333
"S200121"	"Conflict_Resolution"	"RIGHT"	"RIGHT"	472.88709999998	700.0000014	""	n/a	n/a	n/a	"False"	n/a	n/a	"2020-01-21 13:11:51.428486"	"2020-01-21 13:11:52.109699"	81	5.70395968333333
"S200121"	"Conflict_Resolution"	"LEFT"	"LEFT"	402.086800000006	1466.6666696	""	n/a	n/a	n/a	"False"	n/a	n/a	"2020-01-21 13:11:53.595062"	"2020-01-21 13:11:54.205904"	82	5.70395968333333
"S200121"	"Conflict_Resolution"	"RIGHT"	"RIGHT"	640.931399999999	900.0000018	""	n/a	n/a	n/a	"True"	n/a	n/a	"2020-01-21 13:11:55.125990"	"2020-01-21 13:11:55.974848"	83	5.70395968333333
"S200121"	"Conflict_Resolution"	"LEFT"	"LEFT"	663.682999999992	1266.6666692	""	n/a	n/a	n/a	"True"	n/a	n/a	"2020-01-21 13:11:57.261574"	"2020-01-21 13:11:58.133614"	84	5.70395968333333
"S200121"	"Conflict_Resolution"	"RIGHT"	"RIGHT"	456.2363	683.3333347	""	n/a	n/a	n/a	"False"	n/a	n/a	"2020-01-21 13:11:58.837505"	"2020-01-21 13:11:59.501729"	85	5.70395968333333
"S200121"	"Conflict_Resolution"	"RIGHT"	"RIGHT"	409.824500000013	1083.3333355	""	n/a	n/a	n/a	"False"	n/a	n/a	"2020-01-21 13:12:00.603542"	"2020-01-21 13:12:01.220286"	86	5.70395968333333
"S200121"	"Conflict_Resolution"	"RIGHT"	"RIGHT"	997.946899999988	600.0000012	""	n/a	n/a	n/a	"True"	n/a	n/a	"2020-01-21 13:12:01.839785"	"2020-01-21 13:12:03.044540"	87	5.70395968333333
"S200121"	"Conflict_Resolution"	"RIGHT"	"RIGHT"	588.72180000003	1033.3333354	""	n/a	n/a	n/a	"True"	n/a	n/a	"2020-01-21 13:12:04.097443"	"2020-01-21 13:12:04.893878"	88	5.70395968333333
"S200121"	"Conflict_Resolution"	"RIGHT"	"RIGHT"	449.58639999993	1483.3333363	""	n/a	n/a	n/a	"False"	n/a	n/a	"2020-01-21 13:12:06.396832"	"2020-01-21 13:12:07.055076"	89	5.70395968333333
"S200121"	"Conflict_Resolution"	"LEFT"	"LEFT"	430.73650000008	1100.0000022	""	n/a	n/a	n/a	"False"	n/a	n/a	"2020-01-21 13:12:08.174589"	"2020-01-21 13:12:08.813890"	90	5.70395968333333
"S200121"	"Conflict_Resolution"	"LEFT"	"LEFT"	651.80799999996	1016.6666687	""	n/a	n/a	n/a	"True"	n/a	n/a	"2020-01-21 13:12:09.849686"	"2020-01-21 13:12:10.709515"	91	5.70395968333333
"S200121"	"Conflict_Resolution"	"RIGHT"	"RIGHT"	646.470700000009	533.3333344	""	n/a	n/a	n/a	"False"	n/a	n/a	"2020-01-21 13:12:11.263024"	"2020-01-21 13:12:12.118760"	92	5.70395968333333
"S200121"	"Conflict_Resolution"	"LEFT"	"LEFT"	617.506000000049	866.6666684	""	n/a	n/a	n/a	"True"	n/a	n/a	"2020-01-21 13:12:13.004053"	"2020-01-21 13:12:13.830878"	93	5.70395968333333
"S200121"	"Conflict_Resolution"	"RIGHT"	"RIGHT"	439.125999999987	550.0000011	""	n/a	n/a	n/a	"False"	n/a	n/a	"2020-01-21 13:12:14.398161"	"2020-01-21 13:12:15.045695"	94	5.70395968333333
"S200121"	"Conflict_Resolution"	"RIGHT"	"RIGHT"	399.746299999947	1316.6666693	""	n/a	n/a	n/a	"False"	n/a	n/a	"2020-01-21 13:12:16.381569"	"2020-01-21 13:12:16.990105"	95	5.70395968333333
"S200121"	"Conflict_Resolution"	"LEFT"	"LEFT"	511.388499999953	716.6666681	""	n/a	n/a	n/a	"False"	n/a	n/a	"2020-01-21 13:12:17.726506"	"2020-01-21 13:12:18.445393"	96	5.70395968333333
"S200121"	"Conflict_Resolution"	"LEFT"	"LEFT"	466.114300000072	1266.6666692	""	n/a	n/a	n/a	"False"	n/a	n/a	"2020-01-21 13:12:19.731463"	"2020-01-21 13:12:20.405114"	97	5.70395968333333
"S200121"	"Conflict_Resolution"	"LEFT"	"LEFT"	449.562299999911	516.6666677	""	n/a	n/a	n/a	"False"	n/a	n/a	"2020-01-21 13:12:20.939535"	"2020-01-21 13:12:21.596361"	98	5.70395968333333
"S200121"	"Conflict_Resolution"	"RIGHT"	"RIGHT"	602.168800000072	1100.0000022	""	n/a	n/a	n/a	"True"	n/a	n/a	"2020-01-21 13:12:22.715154"	"2020-01-21 13:12:23.525995"	99	5.70395968333333
"S200121"	"Conflict_Resolution"	"LEFT"	"LEFT"	665.353999999979	1066.6666688	""	n/a	n/a	n/a	"True"	n/a	n/a	"2020-01-21 13:12:24.612094"	"2020-01-21 13:12:25.486564"	100	5.70395968333333
"S200121"	"Conflict_Resolution"	"LEFT"	"LEFT"	524.601500000017	583.3333345	""	n/a	n/a	n/a	"False"	n/a	n/a	"2020-01-21 13:12:26.088966"	"2020-01-21 13:12:26.821981"	101	5.70395968333333
"S200121"	"Conflict_Resolution"	"LEFT"	"LEFT"	444.294600000035	816.6666683	""	n/a	n/a	n/a	"False"	n/a	n/a	"2020-01-21 13:12:27.657871"	"2020-01-21 13:12:28.309998"	102	5.70395968333333
"S200121"	"Conflict_Resolution"	"RIGHT"	"RIGHT"	610.703999999942	1416.6666695	""	n/a	n/a	n/a	"True"	n/a	n/a	"2020-01-21 13:12:29.746603"	"2020-01-21 13:12:30.565412"	103	5.70395968333333
"S200121"	"Conflict_Resolution"	"LEFT"	"LEFT"	849.101799999971	1100.0000022	""	n/a	n/a	n/a	"True"	n/a	n/a	"2020-01-21 13:12:31.684382"	"2020-01-21 13:12:32.742693"	104	5.70395968333333
"S200121"	"Conflict_Resolution"	"RIGHT"	"RIGHT"	424.563199999966	900.0000018	""	n/a	n/a	n/a	"False"	n/a	n/a	"2020-01-21 13:12:33.660966"	"2020-01-21 13:12:34.293337"	105	5.70395968333333
"S200121"	"Conflict_Resolution"	"RIGHT"	"RIGHT"	429.023599999937	1216.6666691	""	n/a	n/a	n/a	"False"	n/a	n/a	"2020-01-21 13:12:35.528793"	"2020-01-21 13:12:36.165921"	106	5.70395968333333
"S200121"	"Conflict_Resolution"	"RIGHT"	"RIGHT"	702.51010000004	1133.3333356	""	n/a	n/a	n/a	"True"	n/a	n/a	"2020-01-21 13:12:37.319458"	"2020-01-21 13:12:38.230053"	107	5.70395968333333
"S200121"	"Conflict_Resolution"	"RIGHT"	"RIGHT"	560.552600000051	700.0000014	""	n/a	n/a	n/a	"True"	n/a	n/a	"2020-01-21 13:12:38.948603"	"2020-01-21 13:12:39.717136"	108	5.70395968333333
"S200121"	"Conflict_Resolution"	"RIGHT"	"RIGHT"	458.210300000019	1283.3333359	""	n/a	n/a	n/a	"False"	n/a	n/a	"2020-01-21 13:12:41.019478"	"2020-01-21 13:12:41.685272"	109	5.70395968333333
"S200121"	"Conflict_Resolution"	"LEFT"	"LEFT"	668.088900000043	1050.0000021	""	n/a	n/a	n/a	"True"	n/a	n/a	"2020-01-21 13:12:42.753602"	"2020-01-21 13:12:43.629772"	110	5.70395968333333
"S200121"	"Conflict_Resolution"	"RIGHT"	"RIGHT"	455.975399999943	750.0000015	""	n/a	n/a	n/a	"False"	n/a	n/a	"2020-01-21 13:12:44.399101"	"2020-01-21 13:12:45.062605"	111	5.70395968333333
"S200121"	"Conflict_Resolution"	"RIGHT"	"RIGHT"	674.077900000043	833.333335	""	n/a	n/a	n/a	"True"	n/a	n/a	"2020-01-21 13:12:45.916137"	"2020-01-21 13:12:46.797146"	112	5.70395968333333
"S200121"	"Conflict_Resolution"	"RIGHT"	"RIGHT"	599.997700000017	1366.6666694	""	n/a	n/a	n/a	"True"	n/a	n/a	"2020-01-21 13:12:48.182167"	"2020-01-21 13:12:48.990738"	113	5.70395968333333
"S200121"	"Conflict_Resolution"	"LEFT"	"RIGHT"	444.011499999988	783.3333349	""	n/a	n/a	n/a	"True"	n/a	n/a	"2020-01-21 13:12:49.793216"	"2020-01-21 13:12:50.445952"	114	5.70395968333333
"S200121"	"Conflict_Resolution"	"RIGHT"	"RIGHT"	556.685799999968	1183.3333357	""	n/a	n/a	n/a	"True"	n/a	n/a	"2020-01-21 13:12:51.649068"	"2020-01-21 13:12:52.413084"	115	5.70395968333333
"S200121"	"Conflict_Resolution"	"LEFT"	"LEFT"	442.293800000016	1450.0000029	""	n/a	n/a	n/a	"False"	n/a	n/a	"2020-01-21 13:12:53.882802"	"2020-01-21 13:12:54.533875"	116	5.70395968333333
"S200121"	"Conflict_Resolution"	"LEFT"	"LEFT"	759.080899999958	716.6666681	""	n/a	n/a	n/a	"True"	n/a	n/a	"2020-01-21 13:12:55.270113"	"2020-01-21 13:12:56.237780"	117	5.70395968333333
"S200121"	"Conflict_Resolution"	"LEFT"	"LEFT"	678.027600000064	616.6666679	""	n/a	n/a	n/a	"True"	n/a	n/a	"2020-01-21 13:12:56.871862"	"2020-01-21 13:12:57.757286"	118	5.70395968333333
"S200121"	"Conflict_Resolution"	"LEFT"	"LEFT"	557.395799999995	1166.666669	""	n/a	n/a	n/a	"True"	n/a	n/a	"2020-01-21 13:12:58.944016"	"2020-01-21 13:12:59.709231"	119	5.70395968333333
"S200121"	"Conflict_Resolution"	"LEFT"	"LEFT"	502.598999999918	766.6666682	""	n/a	n/a	n/a	"True"	n/a	n/a	"2020-01-21 13:13:00.494698"	"2020-01-21 13:13:01.205122"	120	5.70395968333333
"S200121"	"Conflict_Resolution"	"RIGHT"	"RIGHT"	920.25359999991	1333.333336	""	n/a	n/a	n/a	"True"	n/a	n/a	"2020-01-21 13:13:02.557338"	"2020-01-21 13:13:03.685328"	121	5.70395968333333
"S200121"	"Conflict_Resolution"	"RIGHT"	"RIGHT"	671.424799999954	750.0000015	""	n/a	n/a	n/a	"True"	n/a	n/a	"2020-01-21 13:13:04.454004"	"2020-01-21 13:13:05.334691"	122	5.70395968333333
"S200121"	"Conflict_Resolution"	"LEFT"	"LEFT"	571.449899999948	1000.000002	""	n/a	n/a	n/a	"False"	n/a	n/a	"2020-01-21 13:13:06.353967"	"2020-01-21 13:13:07.133989"	123	5.70395968333333
"S200121"	"Conflict_Resolution"	"LEFT"	"LEFT"	613.683900000069	1150.0000023	""	n/a	n/a	n/a	"True"	n/a	n/a	"2020-01-21 13:13:08.303770"	"2020-01-21 13:13:09.125732"	124	5.70395968333333
"S200121"	"Conflict_Resolution"	"LEFT"	"LEFT"	768.232399999988	566.6666678	""	n/a	n/a	n/a	"True"	n/a	n/a	"2020-01-21 13:13:09.710207"	"2020-01-21 13:13:10.686780"	125	5.70395968333333
"S200121"	"Conflict_Resolution"	"RIGHT"	"RIGHT"	623.164700000075	733.3333348	""	n/a	n/a	n/a	"False"	n/a	n/a	"2020-01-21 13:13:11.439490"	"2020-01-21 13:13:12.270315"	126	5.70395968333333
"S200121"	"Conflict_Resolution"	"LEFT"	"LEFT"	642.114199999924	666.666668	""	n/a	n/a	n/a	"True"	n/a	n/a	"2020-01-21 13:13:12.955673"	"2020-01-21 13:13:13.806141"	127	5.70395968333333
"S200121"	"Conflict_Resolution"	"LEFT"	"LEFT"	809.933899999919	1450.0000029	""	n/a	n/a	n/a	"True"	n/a	n/a	"2020-01-21 13:13:15.275561"	"2020-01-21 13:13:16.293325"	128	5.70395968333333
"S200121"	"Conflict_Resolution"	"LEFT"	"LEFT"	650.462300000072	1250.0000025	""	n/a	n/a	n/a	"True"	n/a	n/a	"2020-01-21 13:13:17.563740"	"2020-01-21 13:13:18.421305"	129	5.70395968333333
"S200121"	"Conflict_Resolution"	"LEFT"	"LEFT"	731.528400000002	850.0000017	""	n/a	n/a	n/a	"True"	n/a	n/a	"2020-01-21 13:13:19.290067"	"2020-01-21 13:13:20.230635"	130	5.70395968333333
"S200121"	"Conflict_Resolution"	"RIGHT"	"RIGHT"	751.871599999959	533.3333344	""	n/a	n/a	n/a	"True"	n/a	n/a	"2020-01-21 13:13:20.781163"	"2020-01-21 13:13:21.740504"	131	5.70395968333333
"S200121"	"Conflict_Resolution"	"LEFT"	"LEFT"	518.98760000006	1200.0000024	""	n/a	n/a	n/a	"False"	n/a	n/a	"2020-01-21 13:13:22.959929"	"2020-01-21 13:13:23.686586"	132	5.70395968333333
"S200121"	"Conflict_Resolution"	"LEFT"	"LEFT"	829.029400000081	966.6666686	""	n/a	n/a	n/a	"True"	n/a	n/a	"2020-01-21 13:13:24.672966"	"2020-01-21 13:13:25.710031"	133	5.70395968333333
"S200121"	"Conflict_Resolution"	"RIGHT"	"RIGHT"	526.043200000004	1150.0000023	""	n/a	n/a	n/a	"False"	n/a	n/a	"2020-01-21 13:13:26.879506"	"2020-01-21 13:13:27.613255"	134	5.70395968333333
"S200121"	"Conflict_Resolution"	"LEFT"	"LEFT"	570.936200000006	666.666668	""	n/a	n/a	n/a	"False"	n/a	n/a	"2020-01-21 13:13:28.299070"	"2020-01-21 13:13:29.077147"	135	5.70395968333333
"S200121"	"Conflict_Resolution"	"LEFT"	"LEFT"	669.320500000026	1000.000002	""	n/a	n/a	n/a	"True"	n/a	n/a	"2020-01-21 13:13:30.096784"	"2020-01-21 13:13:30.974083"	136	5.70395968333333
"S200121"	"Conflict_Resolution"	"LEFT"	"LEFT"	472.674300000108	866.6666684	""	n/a	n/a	n/a	"False"	n/a	n/a	"2020-01-21 13:13:31.860905"	"2020-01-21 13:13:32.541190"	137	5.70395968333333
"S200121"	"Conflict_Resolution"	"RIGHT"	"RIGHT"	500.359700000217	1433.3333362	""	n/a	n/a	n/a	"False"	n/a	n/a	"2020-01-21 13:13:33.993511"	"2020-01-21 13:13:34.701619"	138	5.70395968333333
"S200121"	"Conflict_Resolution"	"RIGHT"	"RIGHT"	404.602300000079	1233.3333358	""	n/a	n/a	n/a	"False"	n/a	n/a	"2020-01-21 13:13:35.953224"	"2020-01-21 13:13:36.565992"	139	5.70395968333333
"S200121"	"Conflict_Resolution"	"RIGHT"	"RIGHT"	819.898700000067	850.0000017	""	n/a	n/a	n/a	"True"	n/a	n/a	"2020-01-21 13:13:37.434302"	"2020-01-21 13:13:38.463063"	140	5.70395968333333
"S200121"	"Conflict_Resolution"	"LEFT"	"LEFT"	595.768500000077	816.6666683	""	n/a	n/a	n/a	"True"	n/a	n/a	"2020-01-21 13:13:39.297713"	"2020-01-21 13:13:40.100547"	141	5.70395968333333
"S200121"	"Conflict_Resolution"	"RIGHT"	"RIGHT"	606.270600000016	983.3333353	""	n/a	n/a	n/a	"True"	n/a	n/a	"2020-01-21 13:13:41.103538"	"2020-01-21 13:13:41.917948"	142	5.70395968333333
"S200121"	"Conflict_Resolution"	"RIGHT"	"RIGHT"	493.24270000011	600.0000012	""	n/a	n/a	n/a	"False"	n/a	n/a	"2020-01-21 13:13:42.536899"	"2020-01-21 13:13:43.237323"	143	5.70395968333333
"S200121"	"Conflict_Resolution"	"LEFT"	"LEFT"	555.576400000064	1216.6666691	""	n/a	n/a	n/a	"True"	n/a	n/a	"2020-01-21 13:13:44.473598"	"2020-01-21 13:13:45.238505"	144	5.70395968333333
"S200121"	"Conflict_Resolution"	"RIGHT"	"RIGHT"	575.127099999918	950.0000019	""	n/a	n/a	n/a	"True"	n/a	n/a	"2020-01-21 13:13:46.206054"	"2020-01-21 13:13:46.990953"	145	5.70395968333333
"S200121"	"Conflict_Resolution"	"RIGHT"	"RIGHT"	396.506199999976	1183.3333357	""	n/a	n/a	n/a	"False"	n/a	n/a	"2020-01-21 13:13:48.193068"	"2020-01-21 13:13:48.798615"	146	5.70395968333333
"S200121"	"Conflict_Resolution"	"RIGHT"	"RIGHT"	685.148499999968	550.0000011	""	n/a	n/a	n/a	"True"	n/a	n/a	"2020-01-21 13:13:49.368110"	"2020-01-21 13:13:50.261542"	147	5.70395968333333
"S200121"	"Conflict_Resolution"	"LEFT"	"RIGHT"	395.427799999879	1200.0000024	""	n/a	n/a	n/a	"True"	n/a	n/a	"2020-01-21 13:13:51.482399"	"2020-01-21 13:13:52.085791"	148	5.70395968333333
"S200121"	"Conflict_Resolution"	"LEFT"	"LEFT"	508.041299999832	1016.6666687	""	n/a	n/a	n/a	"False"	n/a	n/a	"2020-01-21 13:13:53.121818"	"2020-01-21 13:13:53.838902"	149	5.70395968333333
"S200121"	"Conflict_Resolution"	"RIGHT"	"RIGHT"	600.884499999893	1433.3333362	""	n/a	n/a	n/a	"True"	n/a	n/a	"2020-01-21 13:13:55.292818"	"2020-01-21 13:13:56.101400"	150	5.70395968333333
"S200121"	"Conflict_Resolution"	"LEFT"	"LEFT"	564.259199999924	1400.0000028	""	n/a	n/a	n/a	"True"	n/a	n/a	"2020-01-21 13:13:57.521410"	"2020-01-21 13:13:58.293493"	151	5.70395968333333
"S200121"	"Conflict_Resolution"	"RIGHT"	"RIGHT"	466.905300000008	883.3333351	""	n/a	n/a	n/a	"False"	n/a	n/a	"2020-01-21 13:13:59.195119"	"2020-01-21 13:13:59.869746"	152	5.70395968333333
"S200121"	"Conflict_Resolution"	"RIGHT"	"RIGHT"	672.631600000159	1266.6666692	""	n/a	n/a	n/a	"True"	n/a	n/a	"2020-01-21 13:14:01.157581"	"2020-01-21 13:14:02.038797"	153	5.70395968333333
"S200121"	"Conflict_Resolution"	"RIGHT"	"RIGHT"	437.016299999868	1000.000002	""	n/a	n/a	n/a	"False"	n/a	n/a	"2020-01-21 13:14:03.056966"	"2020-01-21 13:14:03.701239"	154	5.70395968333333
"S200121"	"Conflict_Resolution"	"RIGHT"	"RIGHT"	661.09490000008	1000.000002	""	n/a	n/a	n/a	"True"	n/a	n/a	"2020-01-21 13:14:04.720496"	"2020-01-21 13:14:05.589995"	155	5.70395968333333
"S200121"	"Conflict_Resolution"	"RIGHT"	"RIGHT"	544.631799999934	1100.0000022	""	n/a	n/a	n/a	"False"	n/a	n/a	"2020-01-21 13:14:06.709375"	"2020-01-21 13:14:07.462916"	156	5.70395968333333
"S200121"	"Conflict_Resolution"	"RIGHT"	"RIGHT"	617.987500000027	1383.3333361	""	n/a	n/a	n/a	"True"	n/a	n/a	"2020-01-21 13:14:08.867514"	"2020-01-21 13:14:09.693978"	157	5.70395968333333
"S200121"	"Conflict_Resolution"	"LEFT"	"LEFT"	452.578899999935	966.6666686	""	n/a	n/a	n/a	"False"	n/a	n/a	"2020-01-21 13:14:10.680848"	"2020-01-21 13:14:11.342074"	158	5.70395968333333
"S200121"	"Conflict_Resolution"	"RIGHT"	"RIGHT"	615.230699999984	733.3333348	""	n/a	n/a	n/a	"True"	n/a	n/a	"2020-01-21 13:14:12.095036"	"2020-01-21 13:14:12.918096"	159	5.70395968333333
"S200121"	"Conflict_Resolution"	"LEFT"	"LEFT"	438.005700000076	1366.6666694	""	n/a	n/a	n/a	"False"	n/a	n/a	"2020-01-21 13:14:14.304012"	"2020-01-21 13:14:14.949125"	160	5.70395968333333
"S200121"	"Processing_Speed"	"RIGHT"	"DOWN"	319.310899999991	500.000001	""	n/a	n/a	n/a	n/a	n/a	n/a	"2020-01-21 12:58:27.021423"	"2020-01-21 12:58:27.560604"	1	1.95972266666667
"S200121"	"Processing_Speed"	"RIGHT"	"DOWN"	936.646799999991	1266.6666692	"LEFT"	-162.154	n/a	n/a	n/a	n/a	n/a	"2020-01-21 12:58:28.836206"	"2020-01-21 12:58:29.980855"	2	1.95972266666667
"S200121"	"Processing_Speed"	"LEFT"	"DOWN"	409.774299999995	533.3333344	""	n/a	n/a	n/a	n/a	n/a	n/a	"2020-01-21 12:58:30.522715"	"2020-01-21 12:58:31.140185"	3	1.95972266666667
"S200121"	"Processing_Speed"	"LEFT"	"DOWN"	371.996199999998	1500.000003	""	n/a	n/a	n/a	n/a	n/a	n/a	"2020-01-21 12:58:32.648259"	"2020-01-21 12:58:33.228725"	4	1.95972266666667
"S200121"	"Processing_Speed"	"LEFT"	"DOWN"	274.913499999997	916.6666685	""	n/a	n/a	n/a	n/a	n/a	n/a	"2020-01-21 12:58:34.154301"	"2020-01-21 12:58:34.637574"	5	1.95972266666667
"S200121"	"Processing_Speed"	"RIGHT"	"DOWN"	285.972799999996	816.6666683	""	n/a	n/a	n/a	n/a	n/a	n/a	"2020-01-21 12:58:35.463578"	"2020-01-21 12:58:35.956346"	6	1.95972266666667
"S200121"	"Processing_Speed"	"RIGHT"	"DOWN"	251.376900000025	883.3333351	""	n/a	n/a	n/a	n/a	n/a	n/a	"2020-01-21 12:58:36.849029"	"2020-01-21 12:58:37.309916"	7	1.95972266666667
"S200121"	"Processing_Speed"	"RIGHT"	"DOWN"	251.310599999982	666.666668	""	n/a	n/a	n/a	n/a	n/a	n/a	"2020-01-21 12:58:37.984688"	"2020-01-21 12:58:38.444461"	8	1.95972266666667
"S200121"	"Processing_Speed"	"LEFT"	"DOWN"	259.300699999983	1300.0000026	""	n/a	n/a	n/a	n/a	n/a	n/a	"2020-01-21 12:58:39.752922"	"2020-01-21 12:58:40.220664"	9	1.95972266666667
"S200121"	"Processing_Speed"	"LEFT"	"DOWN"	279.220399999986	1400.0000028	""	n/a	n/a	n/a	n/a	n/a	n/a	"2020-01-21 12:58:41.629347"	"2020-01-21 12:58:42.117043"	10	1.95972266666667
"S200121"	"Processing_Speed"	"LEFT"	"DOWN"	289.535199999989	1116.6666689	""	n/a	n/a	n/a	n/a	n/a	n/a	"2020-01-21 12:58:43.243081"	"2020-01-21 12:58:43.741756"	11	1.95972266666667
"S200121"	"Processing_Speed"	"RIGHT"	"DOWN"	290.861899999982	1300.0000026	""	n/a	n/a	n/a	n/a	n/a	n/a	"2020-01-21 12:58:45.050089"	"2020-01-21 12:58:45.548754"	12	1.95972266666667
"S200121"	"Processing_Speed"	"LEFT"	"DOWN"	451.549400000005	500.000001	""	n/a	n/a	n/a	n/a	n/a	n/a	"2020-01-21 12:58:46.057505"	"2020-01-21 12:58:46.716529"	13	1.95972266666667
"S200121"	"Processing_Speed"	"LEFT"	"DOWN"	278.588299999996	1016.6666687	""	n/a	n/a	n/a	n/a	n/a	n/a	"2020-01-21 12:58:47.741453"	"2020-01-21 12:58:48.228805"	14	1.95972266666667
"S200121"	"Processing_Speed"	"RIGHT"	"DOWN"	251.786699999997	1083.3333355	""	n/a	n/a	n/a	n/a	n/a	n/a	"2020-01-21 12:58:49.320485"	"2020-01-21 12:58:49.781731"	15	1.95972266666667
"S200121"	"Processing_Speed"	"RIGHT"	"DOWN"	288.992400000012	733.3333348	""	n/a	n/a	n/a	n/a	n/a	n/a	"2020-01-21 12:58:50.523522"	"2020-01-21 12:58:51.020797"	16	1.95972266666667
"S200121"	"Processing_Speed"	"LEFT"	"DOWN"	290.1813	1333.333336	""	n/a	n/a	n/a	n/a	n/a	n/a	"2020-01-21 12:58:52.362083"	"2020-01-21 12:58:52.861737"	17	1.95972266666667
"S200121"	"Processing_Speed"	"RIGHT"	"DOWN"	255.341399999992	1183.3333357	""	n/a	n/a	n/a	n/a	n/a	n/a	"2020-01-21 12:58:54.053748"	"2020-01-21 12:58:54.516268"	18	1.95972266666667
"S200121"	"Processing_Speed"	"RIGHT"	"DOWN"	287.309800000003	1216.6666691	""	n/a	n/a	n/a	n/a	n/a	n/a	"2020-01-21 12:58:55.741917"	"2020-01-21 12:58:56.237600"	19	1.95972266666667
"S200121"	"Processing_Speed"	"LEFT"	"DOWN"	326.739900000007	783.3333349	""	n/a	n/a	n/a	n/a	n/a	n/a	"2020-01-21 12:58:57.029788"	"2020-01-21 12:58:57.563366"	20	1.95972266666667
"S200121"	"Processing_Speed"	"RIGHT"	"DOWN"	276.664299999993	916.6666685	""	n/a	n/a	n/a	n/a	n/a	n/a	"2020-01-21 12:58:58.488469"	"2020-01-21 12:58:58.973907"	21	1.95972266666667
"S200121"	"Processing_Speed"	"LEFT"	"DOWN"	334.794399999993	566.6666678	""	n/a	n/a	n/a	n/a	n/a	n/a	"2020-01-21 12:58:59.549634"	"2020-01-21 12:59:00.092338"	22	1.95972266666667
"S200121"	"Processing_Speed"	"RIGHT"	"DOWN"	240.799600000003	983.3333353	""	n/a	n/a	n/a	n/a	n/a	n/a	"2020-01-21 12:59:01.083733"	"2020-01-21 12:59:01.532531"	23	1.95972266666667
"S200121"	"Processing_Speed"	"RIGHT"	"DOWN"	266.659900000008	1116.6666689	""	n/a	n/a	n/a	n/a	n/a	n/a	"2020-01-21 12:59:02.657517"	"2020-01-21 12:59:03.132281"	24	1.95972266666667
"S200121"	"Processing_Speed"	"RIGHT"	"DOWN"	249.152000000009	1366.6666694	""	n/a	n/a	n/a	n/a	n/a	n/a	"2020-01-21 12:59:04.507441"	"2020-01-21 12:59:04.965241"	25	1.95972266666667
"S200121"	"Processing_Speed"	"LEFT"	"DOWN"	275.700099999995	1466.6666696	""	n/a	n/a	n/a	n/a	n/a	n/a	"2020-01-21 12:59:06.440846"	"2020-01-21 12:59:06.924745"	26	1.95972266666667
"S200121"	"Processing_Speed"	"RIGHT"	"DOWN"	266.047900000018	1333.333336	""	n/a	n/a	n/a	n/a	n/a	n/a	"2020-01-21 12:59:08.266462"	"2020-01-21 12:59:08.740229"	27	1.95972266666667
"S200121"	"Processing_Speed"	"RIGHT"	"DOWN"	366.056400000019	633.3333346	""	n/a	n/a	n/a	n/a	n/a	n/a	"2020-01-21 12:59:09.382822"	"2020-01-21 12:59:09.956977"	28	1.95972266666667
"S200121"	"Processing_Speed"	"LEFT"	"DOWN"	267.567200000002	1083.3333355	""	n/a	n/a	n/a	n/a	n/a	n/a	"2020-01-21 12:59:11.048992"	"2020-01-21 12:59:11.523421"	29	1.95972266666667
"S200121"	"Processing_Speed"	"RIGHT"	"DOWN"	315.849100000008	700.0000014	""	n/a	n/a	n/a	n/a	n/a	n/a	"2020-01-21 12:59:12.232518"	"2020-01-21 12:59:12.756000"	30	1.95972266666667
"S200121"	"Processing_Speed"	"LEFT"	"DOWN"	245.286199999981	1266.6666692	""	n/a	n/a	n/a	n/a	n/a	n/a	"2020-01-21 12:59:14.030918"	"2020-01-21 12:59:14.484741"	31	1.95972266666667
"S200121"	"Processing_Speed"	"RIGHT"	"DOWN"	334.518500000001	600.0000012	""	n/a	n/a	n/a	n/a	n/a	n/a	"2020-01-21 12:59:15.094367"	"2020-01-21 12:59:15.637695"	32	1.95972266666667
"S200121"	"Processing_Speed"	"LEFT"	"DOWN"	263.089000000008	983.3333353	""	n/a	n/a	n/a	n/a	n/a	n/a	"2020-01-21 12:59:16.629840"	"2020-01-21 12:59:17.099902"	33	1.95972266666667
"S200121"	"Processing_Speed"	"RIGHT"	"DOWN"	279.775999999998	783.3333349	""	n/a	n/a	n/a	n/a	n/a	n/a	"2020-01-21 12:59:17.892677"	"2020-01-21 12:59:18.379707"	34	1.95972266666667
"S200121"	"Processing_Speed"	"RIGHT"	"DOWN"	238.0742	1050.0000021	""	n/a	n/a	n/a	n/a	n/a	n/a	"2020-01-21 12:59:19.438525"	"2020-01-21 12:59:19.884333"	35	1.95972266666667
"S200121"	"Processing_Speed"	"RIGHT"	"DOWN"	267.464999999987	1500.000003	""	n/a	n/a	n/a	n/a	n/a	n/a	"2020-01-21 12:59:21.393265"	"2020-01-21 12:59:21.869589"	36	1.95972266666667
"S200121"	"Processing_Speed"	"RIGHT"	"DOWN"	320.352100000008	566.6666678	""	n/a	n/a	n/a	n/a	n/a	n/a	"2020-01-21 12:59:22.444578"	"2020-01-21 12:59:22.973907"	37	1.95972266666667
"S200121"	"Processing_Speed"	"RIGHT"	"DOWN"	237.208400000014	1400.0000028	""	n/a	n/a	n/a	n/a	n/a	n/a	"2020-01-21 12:59:24.383020"	"2020-01-21 12:59:24.828312"	38	1.95972266666667
"S200121"	"Processing_Speed"	"RIGHT"	"DOWN"	322.515899999985	533.3333344	""	n/a	n/a	n/a	n/a	n/a	n/a	"2020-01-21 12:59:25.370510"	"2020-01-21 12:59:25.900709"	39	1.95972266666667
"S200121"	"Processing_Speed"	"LEFT"	"DOWN"	327.113900000001	1216.6666691	""	n/a	n/a	n/a	n/a	n/a	n/a	"2020-01-21 12:59:27.125920"	"2020-01-21 12:59:27.661641"	40	1.95972266666667
"S200121"	"Processing_Speed"	"RIGHT"	"DOWN"	251.616200000001	850.0000017	""	n/a	n/a	n/a	n/a	n/a	n/a	"2020-01-21 12:59:28.521532"	"2020-01-21 12:59:28.980322"	41	1.95972266666667
"S200121"	"Processing_Speed"	"LEFT"	"DOWN"	304.757100000018	1183.3333357	""	n/a	n/a	n/a	n/a	n/a	n/a	"2020-01-21 12:59:30.172351"	"2020-01-21 12:59:30.684474"	42	1.95972266666667
"S200121"	"Processing_Speed"	"LEFT"	"DOWN"	373.35779999998	666.666668	""	n/a	n/a	n/a	n/a	n/a	n/a	"2020-01-21 12:59:31.359899"	"2020-01-21 12:59:31.940350"	43	1.95972266666667
"S200121"	"Processing_Speed"	"LEFT"	"DOWN"	286.240400000025	1433.3333362	""	n/a	n/a	n/a	n/a	n/a	n/a	"2020-01-21 12:59:33.382444"	"2020-01-21 12:59:33.876126"	44	1.95972266666667
"S200121"	"Processing_Speed"	"LEFT"	"DOWN"	260.686800000002	883.3333351	""	n/a	n/a	n/a	n/a	n/a	n/a	"2020-01-21 12:59:34.767438"	"2020-01-21 12:59:35.236439"	45	1.95972266666667
"S200121"	"Processing_Speed"	"LEFT"	"DOWN"	270.928600000019	816.6666683	""	n/a	n/a	n/a	n/a	n/a	n/a	"2020-01-21 12:59:36.061617"	"2020-01-21 12:59:36.540215"	46	1.95972266666667
"S200121"	"Processing_Speed"	"RIGHT"	"DOWN"	239.087299999994	1016.6666687	""	n/a	n/a	n/a	n/a	n/a	n/a	"2020-01-21 12:59:37.566013"	"2020-01-21 12:59:38.012899"	47	1.95972266666667
"S200121"	"Processing_Speed"	"RIGHT"	"DOWN"	248.6332	950.0000019	""	n/a	n/a	n/a	n/a	n/a	n/a	"2020-01-21 12:59:38.972106"	"2020-01-21 12:59:39.429347"	48	1.95972266666667
"S200121"	"Processing_Speed"	"LEFT"	"DOWN"	318.577199999993	600.0000012	""	n/a	n/a	n/a	n/a	n/a	n/a	"2020-01-21 12:59:40.037920"	"2020-01-21 12:59:40.564326"	49	1.95972266666667
"S200121"	"Processing_Speed"	"RIGHT"	"DOWN"	286.262600000015	1433.3333362	""	n/a	n/a	n/a	n/a	n/a	n/a	"2020-01-21 12:59:42.006361"	"2020-01-21 12:59:42.501076"	50	1.95972266666667
"S200121"	"Processing_Speed"	"LEFT"	"DOWN"	610.174999999998	733.3333348	""	n/a	n/a	n/a	n/a	n/a	n/a	"2020-01-21 12:59:43.243643"	"2020-01-21 12:59:44.061653"	51	1.95972266666667
"S200121"	"Processing_Speed"	"LEFT"	"DOWN"	288.713599999994	1150.0000023	""	n/a	n/a	n/a	n/a	n/a	n/a	"2020-01-21 12:59:45.219620"	"2020-01-21 12:59:45.717623"	52	1.95972266666667
"S200121"	"Processing_Speed"	"RIGHT"	"DOWN"	248.534100000001	1150.0000023	""	n/a	n/a	n/a	n/a	n/a	n/a	"2020-01-21 12:59:46.876383"	"2020-01-21 12:59:47.332420"	53	1.95972266666667
"S200121"	"Processing_Speed"	"LEFT"	"DOWN"	256.763999999976	1366.6666694	""	n/a	n/a	n/a	n/a	n/a	n/a	"2020-01-21 12:59:48.707612"	"2020-01-21 12:59:49.173044"	54	1.95972266666667
"S200121"	"Processing_Speed"	"LEFT"	"DOWN"	397.744099999983	633.3333346	""	n/a	n/a	n/a	n/a	n/a	n/a	"2020-01-21 12:59:49.815191"	"2020-01-21 12:59:50.421808"	55	1.95972266666667
"S200121"	"Processing_Speed"	"LEFT"	"DOWN"	280.449199999993	950.0000019	""	n/a	n/a	n/a	n/a	n/a	n/a	"2020-01-21 12:59:51.379689"	"2020-01-21 12:59:51.869385"	56	1.95972266666667
"S200121"	"Processing_Speed"	"LEFT"	"DOWN"	317.111299999993	1050.0000021	""	n/a	n/a	n/a	n/a	n/a	n/a	"2020-01-21 12:59:52.927516"	"2020-01-21 12:59:53.453687"	57	1.95972266666667
"S200121"	"Processing_Speed"	"LEFT"	"DOWN"	276.203600000002	850.0000017	""	n/a	n/a	n/a	n/a	n/a	n/a	"2020-01-21 12:59:54.312254"	"2020-01-21 12:59:54.796299"	58	1.95972266666667
"S200121"	"Processing_Speed"	"RIGHT"	"DOWN"	252.957299999991	1466.6666696	""	n/a	n/a	n/a	n/a	n/a	n/a	"2020-01-21 12:59:56.272361"	"2020-01-21 12:59:56.733707"	59	1.95972266666667
"S200121"	"Processing_Speed"	"LEFT"	"DOWN"	314.318299999996	700.0000014	""	n/a	n/a	n/a	n/a	n/a	n/a	"2020-01-21 12:59:57.442052"	"2020-01-21 12:59:57.965217"	60	1.95972266666667
"S200121"	"Response_Inhibition"	"LEFT"	"Time_Max_Exceeded"	1500.04973349998	1233.3333358	n/a	n/a	n/a	n/a	n/a	n/a	n/a	"2020-01-21 13:03:03.763789"	"2020-01-21 13:03:05.267484"	1	5.9727797
"S200121"	"Response_Inhibition"	"RIGHT"	"Time_Max_Exceeded"	1500.0899669	950.0000019	n/a	n/a	n/a	n/a	n/a	n/a	n/a	"2020-01-21 13:03:06.227155"	"2020-01-21 13:03:07.730585"	2	5.9727797
"S200121"	"Response_Inhibition"	"RIGHT"	"RIGHT"	454.819633699992	1033.3333354	n/a	n/a	n/a	n/a	n/a	n/a	n/a	"2020-01-21 13:03:08.772666"	"2020-01-21 13:03:09.437549"	3	5.9727797
"S200121"	"Response_Inhibition"	"LEFT"	"Time_Max_Exceeded"	1500.05860049999	883.3333351	n/a	n/a	n/a	n/a	n/a	n/a	n/a	"2020-01-21 13:03:10.330773"	"2020-01-21 13:03:11.833741"	4	5.9727797
"S200121"	"Response_Inhibition"	"RIGHT"	"RIGHT"	988.801200000012	933.3333352	n/a	n/a	n/a	n/a	n/a	n/a	n/a	"2020-01-21 13:03:12.776572"	"2020-01-21 13:03:13.972132"	5	5.9727797
"S200121"	"Response_Inhibition"	"LEFT"	"LEFT"	645.993199999964	1450.0000029	n/a	n/a	n/a	n/a	n/a	n/a	n/a	"2020-01-21 13:03:15.431170"	"2020-01-21 13:03:16.284378"	6	5.9727797
"S200121"	"Response_Inhibition"	"LEFT"	"Time_Max_Exceeded"	1500.05180010004	1200.0000024	n/a	n/a	n/a	n/a	n/a	n/a	n/a	"2020-01-21 13:03:17.493112"	"2020-01-21 13:03:18.996339"	7	5.9727797
"S200121"	"Response_Inhibition"	"RIGHT"	"RIGHT"	777.847899999983	733.3333348	n/a	n/a	n/a	n/a	n/a	n/a	n/a	"2020-01-21 13:03:19.738927"	"2020-01-21 13:03:20.725089"	8	5.9727797
"S200121"	"Response_Inhibition"	"LEFT"	"Time_Max_Exceeded"	1500.05200020002	1083.3333355	n/a	n/a	n/a	n/a	n/a	n/a	n/a	"2020-01-21 13:03:21.816675"	"2020-01-21 13:03:23.320091"	9	5.9727797
"S200121"	"Response_Inhibition"	"RIGHT"	"RIGHT"	391.127100000006	900.0000018	n/a	n/a	n/a	n/a	n/a	n/a	n/a	"2020-01-21 13:03:24.229973"	"2020-01-21 13:03:24.829473"	10	5.9727797
"S200121"	"Response_Inhibition"	"RIGHT"	"Time_Max_Exceeded"	1500.09913370004	600.0000012	n/a	n/a	n/a	n/a	n/a	n/a	n/a	"2020-01-21 13:03:25.437982"	"2020-01-21 13:03:26.941646"	11	5.9727797
"S200121"	"Response_Inhibition"	"LEFT"	"LEFT"	381.553166999977	750.0000015	n/a	n/a	n/a	n/a	n/a	n/a	n/a	"2020-01-21 13:03:27.699724"	"2020-01-21 13:03:28.293866"	12	5.9727797
"S200121"	"Response_Inhibition"	"RIGHT"	"Time_Max_Exceeded"	1500.06569999999	783.3333349	n/a	n/a	n/a	n/a	n/a	n/a	n/a	"2020-01-21 13:03:29.085785"	"2020-01-21 13:03:30.585690"	13	5.9727797
"S200121"	"Response_Inhibition"	"LEFT"	"LEFT"	517.941399999984	900.0000018	n/a	n/a	n/a	n/a	n/a	n/a	n/a	"2020-01-21 13:03:31.495452"	"2020-01-21 13:03:32.221655"	14	5.9727797
"S200121"	"Response_Inhibition"	"RIGHT"	"RIGHT"	805.191100000002	1416.6666695	n/a	n/a	n/a	n/a	n/a	n/a	n/a	"2020-01-21 13:03:33.647979"	"2020-01-21 13:03:34.660636"	15	5.9727797
"S200121"	"Response_Inhibition"	"LEFT"	"Time_Max_Exceeded"	1500.0739002	733.3333348	n/a	n/a	n/a	n/a	n/a	n/a	n/a	"2020-01-21 13:03:35.403541"	"2020-01-21 13:03:36.906919"	16	5.9727797
"S200121"	"Response_Inhibition"	"RIGHT"	"RIGHT"	444.831800000031	1100.0000022	n/a	n/a	n/a	n/a	n/a	n/a	n/a	"2020-01-21 13:03:38.016031"	"2020-01-21 13:03:38.668446"	17	5.9727797
"S200121"	"Response_Inhibition"	"RIGHT"	"RIGHT"	782.400699999982	1050.0000021	n/a	n/a	n/a	n/a	n/a	n/a	n/a	"2020-01-21 13:03:39.727375"	"2020-01-21 13:03:40.717880"	18	5.9727797
"S200121"	"Response_Inhibition"	"RIGHT"	"RIGHT"	668.126199999961	1083.3333355	n/a	n/a	n/a	n/a	n/a	n/a	n/a	"2020-01-21 13:03:41.810327"	"2020-01-21 13:03:42.685527"	19	5.9727797
"S200121"	"Response_Inhibition"	"RIGHT"	"RIGHT"	652.39859999997	1466.6666696	n/a	n/a	n/a	n/a	n/a	n/a	n/a	"2020-01-21 13:03:44.160743"	"2020-01-21 13:03:45.020570"	20	5.9727797
"S200121"	"Response_Inhibition"	"RIGHT"	"RIGHT"	585.059199999989	1150.0000023	n/a	n/a	n/a	n/a	n/a	n/a	n/a	"2020-01-21 13:03:46.179545"	"2020-01-21 13:03:46.974028"	21	5.9727797
"S200121"	"Response_Inhibition"	"LEFT"	"Time_Max_Exceeded"	1500.0539001	666.666668	n/a	n/a	n/a	n/a	n/a	n/a	n/a	"2020-01-21 13:03:47.650260"	"2020-01-21 13:03:49.153028"	22	5.9727797
"S200121"	"Response_Inhibition"	"RIGHT"	"RIGHT"	601.374099999987	616.6666679	n/a	n/a	n/a	n/a	n/a	n/a	n/a	"2020-01-21 13:03:49.779560"	"2020-01-21 13:03:50.588505"	23	5.9727797
"S200121"	"Response_Inhibition"	"RIGHT"	"RIGHT"	627.943800000025	1316.6666693	n/a	n/a	n/a	n/a	n/a	n/a	n/a	"2020-01-21 13:03:51.913903"	"2020-01-21 13:03:52.749466"	24	5.9727797
"S200121"	"Response_Inhibition"	"LEFT"	"Time_Max_Exceeded"	1500.0565669	633.3333346	n/a	n/a	n/a	n/a	n/a	n/a	n/a	"2020-01-21 13:03:53.391477"	"2020-01-21 13:03:54.894745"	25	5.9727797
"S200121"	"Response_Inhibition"	"RIGHT"	"RIGHT"	487.362499999961	533.3333344	n/a	n/a	n/a	n/a	n/a	n/a	n/a	"2020-01-21 13:03:55.437730"	"2020-01-21 13:03:56.132449"	26	5.9727797
"S200121"	"Response_Inhibition"	"RIGHT"	"RIGHT"	650.460800000019	750.0000015	n/a	n/a	n/a	n/a	n/a	n/a	n/a	"2020-01-21 13:03:56.891763"	"2020-01-21 13:03:57.749219"	27	5.9727797
"S200121"	"Response_Inhibition"	"LEFT"	"LEFT"	640.244299999949	983.3333353	n/a	n/a	n/a	n/a	n/a	n/a	n/a	"2020-01-21 13:03:58.741000"	"2020-01-21 13:03:59.588571"	28	5.9727797
"S200121"	"Response_Inhibition"	"RIGHT"	"RIGHT"	414.571034000031	950.0000019	n/a	n/a	n/a	n/a	n/a	n/a	n/a	"2020-01-21 13:04:00.546883"	"2020-01-21 13:04:01.172359"	29	5.9727797
"S200121"	"Response_Inhibition"	"RIGHT"	"RIGHT"	858.764300000018	533.3333344	n/a	n/a	n/a	n/a	n/a	n/a	n/a	"2020-01-21 13:04:01.714611"	"2020-01-21 13:04:02.780338"	30	5.9727797
"S200121"	"Response_Inhibition"	"RIGHT"	"RIGHT"	648.657000000014	983.3333353	n/a	n/a	n/a	n/a	n/a	n/a	n/a	"2020-01-21 13:04:03.772277"	"2020-01-21 13:04:04.628542"	31	5.9727797
"S200121"	"Response_Inhibition"	"LEFT"	"LEFT"	670.844100000011	1216.6666691	n/a	n/a	n/a	n/a	n/a	n/a	n/a	"2020-01-21 13:04:05.853667"	"2020-01-21 13:04:06.732841"	32	5.9727797
"S200121"	"Response_Inhibition"	"RIGHT"	"Time_Max_Exceeded"	1500.04600040001	733.3333348	n/a	n/a	n/a	n/a	n/a	n/a	n/a	"2020-01-21 13:04:07.475870"	"2020-01-21 13:04:08.978598"	33	5.9727797
"S200121"	"Response_Inhibition"	"RIGHT"	"Time_Max_Exceeded"	1500.05136669999	1383.3333361	n/a	n/a	n/a	n/a	n/a	n/a	n/a	"2020-01-21 13:04:10.371432"	"2020-01-21 13:04:11.874805"	34	5.9727797
"S200121"	"Response_Inhibition"	"LEFT"	"LEFT"	692.52449999999	516.6666677	n/a	n/a	n/a	n/a	n/a	n/a	n/a	"2020-01-21 13:04:12.400941"	"2020-01-21 13:04:13.302283"	35	5.9727797
"S200121"	"Response_Inhibition"	"LEFT"	"LEFT"	655.650900000012	1366.6666694	n/a	n/a	n/a	n/a	n/a	n/a	n/a	"2020-01-21 13:04:14.677452"	"2020-01-21 13:04:15.541975"	36	5.9727797
"S200121"	"Response_Inhibition"	"RIGHT"	"RIGHT"	566.184700000008	1000.000002	n/a	n/a	n/a	n/a	n/a	n/a	n/a	"2020-01-21 13:04:16.551095"	"2020-01-21 13:04:17.325025"	37	5.9727797
"S200121"	"Response_Inhibition"	"RIGHT"	"RIGHT"	754.605700000013	716.6666681	n/a	n/a	n/a	n/a	n/a	n/a	n/a	"2020-01-21 13:04:18.050152"	"2020-01-21 13:04:19.012939"	38	5.9727797
"S200121"	"Response_Inhibition"	"RIGHT"	"RIGHT"	592.801500000007	1366.6666694	n/a	n/a	n/a	n/a	n/a	n/a	n/a	"2020-01-21 13:04:20.387906"	"2020-01-21 13:04:21.188282"	39	5.9727797
"S200121"	"Response_Inhibition"	"LEFT"	"LEFT"	370.634400000029	1133.3333356	n/a	n/a	n/a	n/a	n/a	n/a	n/a	"2020-01-21 13:04:22.330539"	"2020-01-21 13:04:22.908990"	40	5.9727797
"S200121"	"Response_Inhibition"	"RIGHT"	"RIGHT"	661.591499999986	1050.0000021	n/a	n/a	n/a	n/a	n/a	n/a	n/a	"2020-01-21 13:04:23.967838"	"2020-01-21 13:04:24.837644"	41	5.9727797
"S200121"	"Response_Inhibition"	"LEFT"	"Time_Max_Exceeded"	1500.04663340004	833.333335	n/a	n/a	n/a	n/a	n/a	n/a	n/a	"2020-01-21 13:04:25.679419"	"2020-01-21 13:04:27.183277"	42	5.9727797
"S200121"	"Response_Inhibition"	"RIGHT"	"RIGHT"	445.234000000028	1216.6666691	n/a	n/a	n/a	n/a	n/a	n/a	n/a	"2020-01-21 13:04:28.409218"	"2020-01-21 13:04:29.061506"	43	5.9727797
"S200121"	"Response_Inhibition"	"LEFT"	"LEFT"	699.50399999999	1300.0000026	n/a	n/a	n/a	n/a	n/a	n/a	n/a	"2020-01-21 13:04:30.369697"	"2020-01-21 13:04:31.277620"	44	5.9727797
"S200121"	"Response_Inhibition"	"LEFT"	"LEFT"	665.717900000004	716.6666681	n/a	n/a	n/a	n/a	n/a	n/a	n/a	"2020-01-21 13:04:32.003258"	"2020-01-21 13:04:32.875564"	45	5.9727797
"S200121"	"Response_Inhibition"	"LEFT"	"LEFT"	685.526599999946	1483.3333363	n/a	n/a	n/a	n/a	n/a	n/a	n/a	"2020-01-21 13:04:34.367355"	"2020-01-21 13:04:35.260537"	46	5.9727797
"S200121"	"Response_Inhibition"	"RIGHT"	"RIGHT"	695.624699999996	783.3333349	n/a	n/a	n/a	n/a	n/a	n/a	n/a	"2020-01-21 13:04:36.053644"	"2020-01-21 13:04:36.957877"	47	5.9727797
"S200121"	"Response_Inhibition"	"LEFT"	"Time_Max_Exceeded"	1500.05020059996	1333.333336	n/a	n/a	n/a	n/a	n/a	n/a	n/a	"2020-01-21 13:04:38.301085"	"2020-01-21 13:04:39.804446"	48	5.9727797
"S200121"	"Response_Inhibition"	"LEFT"	"Time_Max_Exceeded"	1500.04856710005	1183.3333357	n/a	n/a	n/a	n/a	n/a	n/a	n/a	"2020-01-21 13:04:40.997166"	"2020-01-21 13:04:42.500677"	49	5.9727797
"S200121"	"Response_Inhibition"	"LEFT"	"LEFT"	844.653899999969	1066.6666688	n/a	n/a	n/a	n/a	n/a	n/a	n/a	"2020-01-21 13:04:43.577007"	"2020-01-21 13:04:44.629132"	50	5.9727797
"S200121"	"Response_Inhibition"	"RIGHT"	"Time_Max_Exceeded"	1500.06026710001	1316.6666693	n/a	n/a	n/a	n/a	n/a	n/a	n/a	"2020-01-21 13:04:45.954628"	"2020-01-21 13:04:47.458585"	51	5.9727797
"S200121"	"Response_Inhibition"	"LEFT"	"LEFT"	666.515100000026	1383.3333361	n/a	n/a	n/a	n/a	n/a	n/a	n/a	"2020-01-21 13:04:48.850168"	"2020-01-21 13:04:49.724828"	52	5.9727797
"S200121"	"Response_Inhibition"	"LEFT"	"Time_Max_Exceeded"	1500.04643360003	783.3333349	n/a	n/a	n/a	n/a	n/a	n/a	n/a	"2020-01-21 13:04:50.518015"	"2020-01-21 13:04:52.021833"	53	5.9727797
"S200121"	"Response_Inhibition"	"LEFT"	"LEFT"	825.866099999985	700.0000014	n/a	n/a	n/a	n/a	n/a	n/a	n/a	"2020-01-21 13:04:52.731200"	"2020-01-21 13:04:53.764509"	54	5.9727797
"S200121"	"Response_Inhibition"	"LEFT"	"LEFT"	723.48199999999	1116.6666689	n/a	n/a	n/a	n/a	n/a	n/a	n/a	"2020-01-21 13:04:54.890299"	"2020-01-21 13:04:55.820595"	55	5.9727797
"S200121"	"Response_Inhibition"	"LEFT"	"LEFT"	702.420099999983	1433.3333362	n/a	n/a	n/a	n/a	n/a	n/a	n/a	"2020-01-21 13:04:57.262724"	"2020-01-21 13:04:58.172787"	56	5.9727797
"S200121"	"Response_Inhibition"	"LEFT"	"Time_Max_Exceeded"	1500.05126670002	1050.0000021	n/a	n/a	n/a	n/a	n/a	n/a	n/a	"2020-01-21 13:04:59.231108"	"2020-01-21 13:05:00.734861"	57	5.9727797
"S200121"	"Response_Inhibition"	"LEFT"	"LEFT"	661.179800000014	583.3333345	n/a	n/a	n/a	n/a	n/a	n/a	n/a	"2020-01-21 13:05:01.327880"	"2020-01-21 13:05:02.197599"	58	5.9727797
"S200121"	"Response_Inhibition"	"LEFT"	"LEFT"	640.285100000028	766.6666682	n/a	n/a	n/a	n/a	n/a	n/a	n/a	"2020-01-21 13:05:02.972687"	"2020-01-21 13:05:03.821915"	59	5.9727797
"S200121"	"Response_Inhibition"	"RIGHT"	"Time_Max_Exceeded"	1500.1021999999	1150.0000023	n/a	n/a	n/a	n/a	n/a	n/a	n/a	"2020-01-21 13:05:04.980746"	"2020-01-21 13:05:06.480848"	60	5.9727797
"S200121"	"Response_Inhibition"	"RIGHT"	"RIGHT"	625.332999999955	633.3333346	n/a	n/a	n/a	n/a	n/a	n/a	n/a	"2020-01-21 13:05:07.123944"	"2020-01-21 13:05:07.956577"	61	5.9727797
"S200121"	"Response_Inhibition"	"LEFT"	"LEFT"	597.760700000094	850.0000017	n/a	n/a	n/a	n/a	n/a	n/a	n/a	"2020-01-21 13:05:08.815889"	"2020-01-21 13:05:09.622595"	62	5.9727797
"S200121"	"Response_Inhibition"	"RIGHT"	"RIGHT"	709.491100000037	1400.0000028	n/a	n/a	n/a	n/a	n/a	n/a	n/a	"2020-01-21 13:05:11.031929"	"2020-01-21 13:05:11.949054"	63	5.9727797
"S200121"	"Response_Inhibition"	"RIGHT"	"RIGHT"	731.292899999971	683.3333347	n/a	n/a	n/a	n/a	n/a	n/a	n/a	"2020-01-21 13:05:12.641353"	"2020-01-21 13:05:13.582570"	64	5.9727797
"S200121"	"Response_Inhibition"	"RIGHT"	"Time_Max_Exceeded"	1500.05860030001	516.6666677	n/a	n/a	n/a	n/a	n/a	n/a	n/a	"2020-01-21 13:05:14.108488"	"2020-01-21 13:05:15.612031"	65	5.9727797
"S200121"	"Response_Inhibition"	"RIGHT"	"RIGHT"	707.812099999956	900.0000018	n/a	n/a	n/a	n/a	n/a	n/a	n/a	"2020-01-21 13:05:16.521309"	"2020-01-21 13:05:17.437374"	66	5.9727797
"S200121"	"Response_Inhibition"	"RIGHT"	"Time_Max_Exceeded"	1500.04836710006	550.0000011	n/a	n/a	n/a	n/a	n/a	n/a	n/a	"2020-01-21 13:05:17.995486"	"2020-01-21 13:05:19.498514"	67	5.9727797
"S200121"	"Response_Inhibition"	"LEFT"	"LEFT"	634.080999999924	566.6666678	n/a	n/a	n/a	n/a	n/a	n/a	n/a	"2020-01-21 13:05:20.074782"	"2020-01-21 13:05:20.916806"	68	5.9727797
"S200121"	"Response_Inhibition"	"LEFT"	"LEFT"	660.471500000085	866.6666684	n/a	n/a	n/a	n/a	n/a	n/a	n/a	"2020-01-21 13:05:21.792221"	"2020-01-21 13:05:22.660929"	69	5.9727797
"S200121"	"Response_Inhibition"	"RIGHT"	"Time_Max_Exceeded"	1500.05630010003	1233.3333358	n/a	n/a	n/a	n/a	n/a	n/a	n/a	"2020-01-21 13:05:23.903041"	"2020-01-21 13:05:25.405904"	70	5.9727797
"S200121"	"Response_Inhibition"	"RIGHT"	"RIGHT"	555.390700000089	1266.6666692	n/a	n/a	n/a	n/a	n/a	n/a	n/a	"2020-01-21 13:05:26.681530"	"2020-01-21 13:05:27.445765"	71	5.9727797
"S200121"	"Response_Inhibition"	"RIGHT"	"Time_Max_Exceeded"	1500.05323390004	1183.3333357	n/a	n/a	n/a	n/a	n/a	n/a	n/a	"2020-01-21 13:05:28.637994"	"2020-01-21 13:05:30.141345"	72	5.9727797
"S200121"	"Response_Inhibition"	"LEFT"	"LEFT"	700.451599999951	850.0000017	n/a	n/a	n/a	n/a	n/a	n/a	n/a	"2020-01-21 13:05:31.000921"	"2020-01-21 13:05:31.909452"	73	5.9727797
"S200121"	"Response_Inhibition"	"RIGHT"	"Time_Max_Exceeded"	1500.05280059998	833.333335	n/a	n/a	n/a	n/a	n/a	n/a	n/a	"2020-01-21 13:05:32.751322"	"2020-01-21 13:05:34.254255"	74	5.9727797
"S200121"	"Response_Inhibition"	"RIGHT"	"RIGHT"	726.540500000056	766.6666682	n/a	n/a	n/a	n/a	n/a	n/a	n/a	"2020-01-21 13:05:35.031064"	"2020-01-21 13:05:35.966596"	75	5.9727797
"S200121"	"Response_Inhibition"	"RIGHT"	"RIGHT"	602.071600000045	916.6666685	n/a	n/a	n/a	n/a	n/a	n/a	n/a	"2020-01-21 13:05:36.891292"	"2020-01-21 13:05:37.701835"	76	5.9727797
"S200121"	"Response_Inhibition"	"RIGHT"	"RIGHT"	648.162800000023	1366.6666694	n/a	n/a	n/a	n/a	n/a	n/a	n/a	"2020-01-21 13:05:39.076609"	"2020-01-21 13:05:39.933772"	77	5.9727797
"S200121"	"Response_Inhibition"	"LEFT"	"LEFT"	771.455199999991	1266.6666692	n/a	n/a	n/a	n/a	n/a	n/a	n/a	"2020-01-21 13:05:41.209737"	"2020-01-21 13:05:42.188245"	78	5.9727797
"S200121"	"Response_Inhibition"	"RIGHT"	"RIGHT"	734.073600000102	850.0000017	n/a	n/a	n/a	n/a	n/a	n/a	n/a	"2020-01-21 13:05:43.047588"	"2020-01-21 13:05:43.989806"	79	5.9727797
"S200121"	"Response_Inhibition"	"RIGHT"	"RIGHT"	719.552100000101	1166.666669	n/a	n/a	n/a	n/a	n/a	n/a	n/a	"2020-01-21 13:05:45.165974"	"2020-01-21 13:05:46.093647"	80	5.9727797
"S200121"	"Response_Inhibition"	"RIGHT"	"RIGHT"	715.085300000055	1483.3333363	n/a	n/a	n/a	n/a	n/a	n/a	n/a	"2020-01-21 13:05:47.585800"	"2020-01-21 13:05:48.509940"	81	5.9727797
"S200121"	"Response_Inhibition"	"LEFT"	"Time_Max_Exceeded"	1500.04860029992	1150.0000023	n/a	n/a	n/a	n/a	n/a	n/a	n/a	"2020-01-21 13:05:49.669519"	"2020-01-21 13:05:51.172123"	82	5.9727797
"S200121"	"Response_Inhibition"	"LEFT"	"LEFT"	667.422699999975	1500.000003	n/a	n/a	n/a	n/a	n/a	n/a	n/a	"2020-01-21 13:05:52.681509"	"2020-01-21 13:05:53.557154"	83	5.9727797
"S200121"	"Response_Inhibition"	"LEFT"	"LEFT"	827.613499999984	900.0000018	n/a	n/a	n/a	n/a	n/a	n/a	n/a	"2020-01-21 13:05:54.465791"	"2020-01-21 13:05:55.502142"	84	5.9727797
"S200121"	"Response_Inhibition"	"RIGHT"	"RIGHT"	718.813999999952	1200.0000024	n/a	n/a	n/a	n/a	n/a	n/a	n/a	"2020-01-21 13:05:56.710693"	"2020-01-21 13:05:57.636402"	85	5.9727797
"S200121"	"Response_Inhibition"	"LEFT"	"Time_Max_Exceeded"	1500.05230049999	1000.000002	n/a	n/a	n/a	n/a	n/a	n/a	n/a	"2020-01-21 13:05:58.644892"	"2020-01-21 13:06:00.148360"	86	5.9727797
"S200121"	"Response_Inhibition"	"LEFT"	"LEFT"	773.378600000001	650.0000013	n/a	n/a	n/a	n/a	n/a	n/a	n/a	"2020-01-21 13:06:00.807884"	"2020-01-21 13:06:01.789672"	87	5.9727797
"S200121"	"Response_Inhibition"	"LEFT"	"LEFT"	713.879300000031	1100.0000022	n/a	n/a	n/a	n/a	n/a	n/a	n/a	"2020-01-21 13:06:02.899744"	"2020-01-21 13:06:03.820524"	88	5.9727797
"S200121"	"Response_Inhibition"	"RIGHT"	"Time_Max_Exceeded"	1500.04983360005	1350.0000027	n/a	n/a	n/a	n/a	n/a	n/a	n/a	"2020-01-21 13:06:05.178697"	"2020-01-21 13:06:06.682279"	89	5.9727797
"S200121"	"Response_Inhibition"	"RIGHT"	"RIGHT"	582.127400000104	500.000001	n/a	n/a	n/a	n/a	n/a	n/a	n/a	"2020-01-21 13:06:07.191497"	"2020-01-21 13:06:07.982038"	90	5.9727797
"S200121"	"Response_Inhibition"	"RIGHT"	"RIGHT"	706.656899999984	1300.0000026	n/a	n/a	n/a	n/a	n/a	n/a	n/a	"2020-01-21 13:06:09.290469"	"2020-01-21 13:06:10.205374"	91	5.9727797
"S200121"	"Response_Inhibition"	"LEFT"	"LEFT"	826.028900000097	533.3333344	n/a	n/a	n/a	n/a	n/a	n/a	n/a	"2020-01-21 13:06:10.746707"	"2020-01-21 13:06:11.781149"	92	5.9727797
"S200121"	"Response_Inhibition"	"RIGHT"	"RIGHT"	662.326699999994	816.6666683	n/a	n/a	n/a	n/a	n/a	n/a	n/a	"2020-01-21 13:06:12.607152"	"2020-01-21 13:06:13.477791"	93	5.9727797
"S200121"	"Response_Inhibition"	"RIGHT"	"RIGHT"	742.17950000002	1216.6666691	n/a	n/a	n/a	n/a	n/a	n/a	n/a	"2020-01-21 13:06:14.703502"	"2020-01-21 13:06:15.653656"	94	5.9727797
"S200121"	"Response_Inhibition"	"RIGHT"	"RIGHT"	876.660800000082	850.0000017	n/a	n/a	n/a	n/a	n/a	n/a	n/a	"2020-01-21 13:06:16.513133"	"2020-01-21 13:06:17.597283"	95	5.9727797
"S200121"	"Response_Inhibition"	"LEFT"	"LEFT"	398.662399999921	1416.6666695	n/a	n/a	n/a	n/a	n/a	n/a	n/a	"2020-01-21 13:06:19.022157"	"2020-01-21 13:06:19.629173"	96	5.9727797
"S200121"	"Response_Inhibition"	"RIGHT"	"Time_Max_Exceeded"	1500.0557668	866.6666684	n/a	n/a	n/a	n/a	n/a	n/a	n/a	"2020-01-21 13:06:20.504248"	"2020-01-21 13:06:22.008090"	97	5.9727797
"S200121"	"Response_Inhibition"	"LEFT"	"LEFT"	629.35559999994	1150.0000023	n/a	n/a	n/a	n/a	n/a	n/a	n/a	"2020-01-21 13:06:23.168127"	"2020-01-21 13:06:24.004457"	98	5.9727797
"S200121"	"Response_Inhibition"	"RIGHT"	"RIGHT"	631.442600000014	800.0000016	n/a	n/a	n/a	n/a	n/a	n/a	n/a	"2020-01-21 13:06:24.813904"	"2020-01-21 13:06:25.653135"	99	5.9727797
"S200121"	"Response_Inhibition"	"RIGHT"	"Time_Max_Exceeded"	1500.05403380006	666.666668	n/a	n/a	n/a	n/a	n/a	n/a	n/a	"2020-01-21 13:06:26.328050"	"2020-01-21 13:06:27.831791"	100	5.9727797
"S200121"	"Response_Inhibition"	"RIGHT"	"Time_Max_Exceeded"	1500.08693339995	883.3333351	n/a	n/a	n/a	n/a	n/a	n/a	n/a	"2020-01-21 13:06:28.725025"	"2020-01-21 13:06:30.228972"	101	5.9727797
"S200121"	"Response_Inhibition"	"LEFT"	"Time_Max_Exceeded"	1500.05526729994	1283.3333359	n/a	n/a	n/a	n/a	n/a	n/a	n/a	"2020-01-21 13:06:31.520956"	"2020-01-21 13:06:33.024658"	102	5.9727797
"S200121"	"Response_Inhibition"	"RIGHT"	"Time_Max_Exceeded"	1500.05443359995	633.3333346	n/a	n/a	n/a	n/a	n/a	n/a	n/a	"2020-01-21 13:06:33.668251"	"2020-01-21 13:06:35.171279"	103	5.9727797
"S200121"	"Response_Inhibition"	"LEFT"	"LEFT"	587.222999999994	733.3333348	n/a	n/a	n/a	n/a	n/a	n/a	n/a	"2020-01-21 13:06:35.914366"	"2020-01-21 13:06:36.709874"	104	5.9727797
"S200121"	"Response_Inhibition"	"LEFT"	"Time_Max_Exceeded"	1500.05343339997	950.0000019	n/a	n/a	n/a	n/a	n/a	n/a	n/a	"2020-01-21 13:06:37.669388"	"2020-01-21 13:06:39.172898"	105	5.9727797
"S200121"	"Response_Inhibition"	"LEFT"	"LEFT"	606.947999999988	600.0000012	n/a	n/a	n/a	n/a	n/a	n/a	n/a	"2020-01-21 13:06:39.781969"	"2020-01-21 13:06:40.597495"	106	5.9727797
"S200121"	"Response_Inhibition"	"LEFT"	"Time_Max_Exceeded"	1500.09833399994	550.0000011	n/a	n/a	n/a	n/a	n/a	n/a	n/a	"2020-01-21 13:06:41.156225"	"2020-01-21 13:06:42.659518"	107	5.9727797
"S200121"	"Response_Inhibition"	"LEFT"	"LEFT"	687.577799999985	1216.6666691	n/a	n/a	n/a	n/a	n/a	n/a	n/a	"2020-01-21 13:06:43.885965"	"2020-01-21 13:06:44.781679"	108	5.9727797
"S200121"	"Response_Inhibition"	"RIGHT"	"RIGHT"	700.585400000023	650.0000013	n/a	n/a	n/a	n/a	n/a	n/a	n/a	"2020-01-21 13:06:45.440523"	"2020-01-21 13:06:46.348340"	109	5.9727797
"S200121"	"Response_Inhibition"	"RIGHT"	"RIGHT"	689.970099999982	566.6666678	n/a	n/a	n/a	n/a	n/a	n/a	n/a	"2020-01-21 13:06:46.923031"	"2020-01-21 13:06:47.821544"	110	5.9727797
"S200121"	"Response_Inhibition"	"RIGHT"	"RIGHT"	492.822299999943	1250.0000025	n/a	n/a	n/a	n/a	n/a	n/a	n/a	"2020-01-21 13:06:49.080300"	"2020-01-21 13:06:49.780416"	111	5.9727797
"S200121"	"Response_Inhibition"	"RIGHT"	"RIGHT"	599.45909999999	1416.6666695	n/a	n/a	n/a	n/a	n/a	n/a	n/a	"2020-01-21 13:06:51.205787"	"2020-01-21 13:06:52.013575"	112	5.9727797
"S200121"	"Response_Inhibition"	"LEFT"	"Time_Max_Exceeded"	1500.0465335	583.3333345	n/a	n/a	n/a	n/a	n/a	n/a	n/a	"2020-01-21 13:06:52.605587"	"2020-01-21 13:06:54.109426"	113	5.9727797
"S200121"	"Response_Inhibition"	"LEFT"	"Time_Max_Exceeded"	1500.0522669	916.6666685	n/a	n/a	n/a	n/a	n/a	n/a	n/a	"2020-01-21 13:06:55.034593"	"2020-01-21 13:06:56.537945"	114	5.9727797
"S200121"	"Response_Inhibition"	"LEFT"	"Time_Max_Exceeded"	1500.05036680004	1400.0000028	n/a	n/a	n/a	n/a	n/a	n/a	n/a	"2020-01-21 13:06:57.947282"	"2020-01-21 13:06:59.451335"	115	5.9727797
"S200121"	"Response_Inhibition"	"RIGHT"	"RIGHT"	385.646100000031	966.6666686	n/a	n/a	n/a	n/a	n/a	n/a	n/a	"2020-01-21 13:07:00.427879"	"2020-01-21 13:07:01.020311"	116	5.9727797
"S200121"	"Response_Inhibition"	"RIGHT"	"RIGHT"	403.409099999976	1116.6666689	n/a	n/a	n/a	n/a	n/a	n/a	n/a	"2020-01-21 13:07:02.146017"	"2020-01-21 13:07:02.756116"	117	5.9727797
"S200121"	"Response_Inhibition"	"LEFT"	"Time_Max_Exceeded"	1500.05176720008	966.6666686	n/a	n/a	n/a	n/a	n/a	n/a	n/a	"2020-01-21 13:07:03.732641"	"2020-01-21 13:07:05.235953"	118	5.9727797
"S200121"	"Response_Inhibition"	"RIGHT"	"RIGHT"	421.603499999947	1450.0000029	n/a	n/a	n/a	n/a	n/a	n/a	n/a	"2020-01-21 13:07:06.695641"	"2020-01-21 13:07:07.324328"	119	5.9727797
"S200121"	"Response_Inhibition"	"RIGHT"	"RIGHT"	413.680599999907	1266.6666692	n/a	n/a	n/a	n/a	n/a	n/a	n/a	"2020-01-21 13:07:08.599836"	"2020-01-21 13:07:09.221186"	120	5.9727797
"S200121"	"Response_Inhibition"	"LEFT"	"LEFT"	452.44630000002	1250.0000025	n/a	n/a	n/a	n/a	n/a	n/a	n/a	"2020-01-21 13:07:10.480408"	"2020-01-21 13:07:11.140197"	121	5.9727797
"S200121"	"Response_Inhibition"	"RIGHT"	"RIGHT"	352.646367000075	1500.000003	n/a	n/a	n/a	n/a	n/a	n/a	n/a	"2020-01-21 13:07:12.649847"	"2020-01-21 13:07:13.212166"	122	5.9727797
"S200121"	"Response_Inhibition"	"LEFT"	"LEFT"	725.579700000026	683.3333347	n/a	n/a	n/a	n/a	n/a	n/a	n/a	"2020-01-21 13:07:13.904100"	"2020-01-21 13:07:14.837859"	123	5.9727797
"S200121"	"Response_Inhibition"	"RIGHT"	"RIGHT"	726.833800000009	1000.000002	n/a	n/a	n/a	n/a	n/a	n/a	n/a	"2020-01-21 13:07:15.846812"	"2020-01-21 13:07:16.780475"	124	5.9727797
"S200121"	"Response_Inhibition"	"RIGHT"	"Time_Max_Exceeded"	1500.04780040002	1283.3333359	n/a	n/a	n/a	n/a	n/a	n/a	n/a	"2020-01-21 13:07:18.072826"	"2020-01-21 13:07:19.576330"	125	5.9727797
"S200121"	"Response_Inhibition"	"LEFT"	"LEFT"	515.478099999996	1033.3333354	n/a	n/a	n/a	n/a	n/a	n/a	n/a	"2020-01-21 13:07:20.618714"	"2020-01-21 13:07:21.342595"	126	5.9727797
"S200121"	"Response_Inhibition"	"LEFT"	"LEFT"	579.941099999928	1016.6666687	n/a	n/a	n/a	n/a	n/a	n/a	n/a	"2020-01-21 13:07:22.369445"	"2020-01-21 13:07:23.158010"	127	5.9727797
"S200121"	"Response_Inhibition"	"LEFT"	"LEFT"	916.368900000066	633.3333346	n/a	n/a	n/a	n/a	n/a	n/a	n/a	"2020-01-21 13:07:23.801362"	"2020-01-21 13:07:24.925755"	128	5.9727797
"S200121"	"Response_Inhibition"	"LEFT"	"Time_Max_Exceeded"	1500.0558004	533.3333344	n/a	n/a	n/a	n/a	n/a	n/a	n/a	"2020-01-21 13:07:25.468143"	"2020-01-21 13:07:26.971429"	129	5.9727797
"S200121"	"Response_Inhibition"	"RIGHT"	"Time_Max_Exceeded"	1500.06396730002	1016.6666687	n/a	n/a	n/a	n/a	n/a	n/a	n/a	"2020-01-21 13:07:27.997872"	"2020-01-21 13:07:29.500391"	130	5.9727797
"S200121"	"Response_Inhibition"	"LEFT"	"LEFT"	666.497100000015	1316.6666693	n/a	n/a	n/a	n/a	n/a	n/a	n/a	"2020-01-21 13:07:30.826526"	"2020-01-21 13:07:31.701819"	131	5.9727797
"S200121"	"Response_Inhibition"	"LEFT"	"LEFT"	750.579599999924	816.6666683	n/a	n/a	n/a	n/a	n/a	n/a	n/a	"2020-01-21 13:07:32.526906"	"2020-01-21 13:07:33.484336"	132	5.9727797
"S200121"	"Response_Inhibition"	"RIGHT"	"RIGHT"	755.002300000001	1333.333336	n/a	n/a	n/a	n/a	n/a	n/a	n/a	"2020-01-21 13:07:34.826591"	"2020-01-21 13:07:35.789302"	133	5.9727797
"S200121"	"Response_Inhibition"	"LEFT"	"Time_Max_Exceeded"	1500.05316699996	1366.6666694	n/a	n/a	n/a	n/a	n/a	n/a	n/a	"2020-01-21 13:07:37.165296"	"2020-01-21 13:07:38.669096"	134	5.9727797
"S200121"	"Response_Inhibition"	"RIGHT"	"Time_Max_Exceeded"	1500.06483349997	1066.6666688	n/a	n/a	n/a	n/a	n/a	n/a	n/a	"2020-01-21 13:07:39.745042"	"2020-01-21 13:07:41.248993"	135	5.9727797
"S200121"	"Response_Inhibition"	"LEFT"	"LEFT"	775.110300000051	1316.6666693	n/a	n/a	n/a	n/a	n/a	n/a	n/a	"2020-01-21 13:07:42.573707"	"2020-01-21 13:07:43.557682"	136	5.9727797
"S200121"	"Response_Inhibition"	"LEFT"	"LEFT"	696.593699999994	1350.0000027	n/a	n/a	n/a	n/a	n/a	n/a	n/a	"2020-01-21 13:07:44.916188"	"2020-01-21 13:07:45.821642"	137	5.9727797
"S200121"	"Response_Inhibition"	"LEFT"	"Time_Max_Exceeded"	1500.05680059997	1416.6666695	n/a	n/a	n/a	n/a	n/a	n/a	n/a	"2020-01-21 13:07:47.247750"	"2020-01-21 13:07:48.751210"	138	5.9727797
"S200121"	"Response_Inhibition"	"LEFT"	"LEFT"	1422.07599999995	783.3333349	n/a	n/a	n/a	n/a	n/a	n/a	n/a	"2020-01-21 13:07:49.542853"	"2020-01-21 13:07:51.172485"	139	5.9727797
"S200121"	"Response_Inhibition"	"RIGHT"	"Time_Max_Exceeded"	1500.11633389996	700.0000014	n/a	n/a	n/a	n/a	n/a	n/a	n/a	"2020-01-21 13:07:51.880592"	"2020-01-21 13:07:53.384572"	140	5.9727797
"S200121"	"Response_Inhibition"	"LEFT"	"LEFT"	807.410600000026	500.000001	n/a	n/a	n/a	n/a	n/a	n/a	n/a	"2020-01-21 13:07:53.893697"	"2020-01-21 13:07:54.908112"	141	5.9727797
"S200121"	"Response_Inhibition"	"LEFT"	"LEFT"	530.924700000014	950.0000019	n/a	n/a	n/a	n/a	n/a	n/a	n/a	"2020-01-21 13:07:55.866611"	"2020-01-21 13:07:56.604177"	142	5.9727797
"S200121"	"Response_Inhibition"	"RIGHT"	"RIGHT"	441.04690000006	583.3333345	n/a	n/a	n/a	n/a	n/a	n/a	n/a	"2020-01-21 13:07:57.195666"	"2020-01-21 13:07:57.844521"	143	5.9727797
"S200121"	"Response_Inhibition"	"RIGHT"	"Time_Max_Exceeded"	1500.06053379999	1133.3333356	n/a	n/a	n/a	n/a	n/a	n/a	n/a	"2020-01-21 13:07:58.987478"	"2020-01-21 13:08:00.490564"	144	5.9727797
"S200121"	"Response_Inhibition"	"LEFT"	"LEFT"	590.205500000025	683.3333347	n/a	n/a	n/a	n/a	n/a	n/a	n/a	"2020-01-21 13:08:01.183254"	"2020-01-21 13:08:01.981699"	145	5.9727797
"S200121"	"Response_Inhibition"	"LEFT"	"LEFT"	436.966999999981	1050.0000021	n/a	n/a	n/a	n/a	n/a	n/a	n/a	"2020-01-21 13:08:03.040842"	"2020-01-21 13:08:03.685126"	146	5.9727797
"S200121"	"Response_Inhibition"	"LEFT"	"LEFT"	449.420433900027	1466.6666696	n/a	n/a	n/a	n/a	n/a	n/a	n/a	"2020-01-21 13:08:05.161115"	"2020-01-21 13:08:05.820466"	147	5.9727797
"S200121"	"Response_Inhibition"	"LEFT"	"LEFT"	788.350500000092	1100.0000022	n/a	n/a	n/a	n/a	n/a	n/a	n/a	"2020-01-21 13:08:06.929069"	"2020-01-21 13:08:07.925072"	148	5.9727797
"S200121"	"Response_Inhibition"	"RIGHT"	"Time_Max_Exceeded"	1500.04870049998	1466.6666696	n/a	n/a	n/a	n/a	n/a	n/a	n/a	"2020-01-21 13:08:09.400005"	"2020-01-21 13:08:10.903623"	149	5.9727797
"S200121"	"Response_Inhibition"	"LEFT"	"LEFT"	537.432500000023	1266.6666692	n/a	n/a	n/a	n/a	n/a	n/a	n/a	"2020-01-21 13:08:12.180019"	"2020-01-21 13:08:12.926060"	150	5.9727797
"S200121"	"Response_Inhibition"	"LEFT"	"LEFT"	675.686199999973	1466.6666696	n/a	n/a	n/a	n/a	n/a	n/a	n/a	"2020-01-21 13:08:14.401908"	"2020-01-21 13:08:15.284225"	151	5.9727797
"S200121"	"Response_Inhibition"	"LEFT"	"LEFT"	714.557799999966	933.3333352	n/a	n/a	n/a	n/a	n/a	n/a	n/a	"2020-01-21 13:08:16.226744"	"2020-01-21 13:08:17.148551"	152	5.9727797
"S200121"	"Response_Inhibition"	"RIGHT"	"RIGHT"	1104.72879999998	583.3333345	n/a	n/a	n/a	n/a	n/a	n/a	n/a	"2020-01-21 13:08:17.740620"	"2020-01-21 13:08:19.053652"	153	5.9727797
"S200121"	"Response_Inhibition"	"RIGHT"	"RIGHT"	666.698699999984	1100.0000022	n/a	n/a	n/a	n/a	n/a	n/a	n/a	"2020-01-21 13:08:20.162568"	"2020-01-21 13:08:21.037148"	154	5.9727797
"S200121"	"Response_Inhibition"	"LEFT"	"LEFT"	662.763999999925	1000.000002	n/a	n/a	n/a	n/a	n/a	n/a	n/a	"2020-01-21 13:08:22.047026"	"2020-01-21 13:08:22.916405"	155	5.9727797
"S200121"	"Response_Inhibition"	"RIGHT"	"RIGHT"	700.647899999922	683.3333347	n/a	n/a	n/a	n/a	n/a	n/a	n/a	"2020-01-21 13:08:23.608548"	"2020-01-21 13:08:24.517811"	156	5.9727797
"S200121"	"Response_Inhibition"	"RIGHT"	"Time_Max_Exceeded"	1500.19336719997	1433.3333362	n/a	n/a	n/a	n/a	n/a	n/a	n/a	"2020-01-21 13:08:25.959421"	"2020-01-21 13:08:27.463669"	157	5.9727797
"S200121"	"Response_Inhibition"	"LEFT"	"LEFT"	660.040200000026	616.6666679	n/a	n/a	n/a	n/a	n/a	n/a	n/a	"2020-01-21 13:08:28.089709"	"2020-01-21 13:08:28.956474"	158	5.9727797
"S200121"	"Response_Inhibition"	"LEFT"	"LEFT"	642.315899999971	1166.666669	n/a	n/a	n/a	n/a	n/a	n/a	n/a	"2020-01-21 13:08:30.131460"	"2020-01-21 13:08:30.981498"	159	5.9727797
"S200121"	"Response_Inhibition"	"LEFT"	"LEFT"	631.27350000002	800.0000016	n/a	n/a	n/a	n/a	n/a	n/a	n/a	"2020-01-21 13:08:31.789874"	"2020-01-21 13:08:32.629639"	160	5.9727797
"S200121"	"Response_Selection"	"LEFT"	"LEFT"	332.008299999984	1266.6666692	n/a	n/a	n/a	n/a	n/a	n/a	n/a	"2020-01-21 13:00:30.993042"	"2020-01-21 13:00:31.533819"	1	2.57243565
"S200121"	"Response_Selection"	"LEFT"	"LEFT"	334.205700000012	783.3333349	n/a	n/a	n/a	n/a	n/a	n/a	n/a	"2020-01-21 13:00:32.326704"	"2020-01-21 13:00:32.868282"	2	2.57243565
"S200121"	"Response_Selection"	"LEFT"	"LEFT"	319.680000000005	800.0000016	n/a	n/a	n/a	n/a	n/a	n/a	n/a	"2020-01-21 13:00:33.676911"	"2020-01-21 13:00:34.204853"	3	2.57243565
"S200121"	"Response_Selection"	"RIGHT"	"RIGHT"	322.584599999999	683.3333347	n/a	n/a	n/a	n/a	n/a	n/a	n/a	"2020-01-21 13:00:34.898252"	"2020-01-21 13:00:35.428294"	4	2.57243565
"S200121"	"Response_Selection"	"RIGHT"	"RIGHT"	305.497800000012	1366.6666694	n/a	n/a	n/a	n/a	n/a	n/a	n/a	"2020-01-21 13:00:36.802946"	"2020-01-21 13:00:37.317569"	5	2.57243565
"S200121"	"Response_Selection"	"LEFT"	"LEFT"	419.096000000025	883.3333351	n/a	n/a	n/a	n/a	n/a	n/a	n/a	"2020-01-21 13:00:38.209505"	"2020-01-21 13:00:38.836869"	6	2.57243565
"S200121"	"Response_Selection"	"LEFT"	"LEFT"	305.717399999992	933.3333352	n/a	n/a	n/a	n/a	n/a	n/a	n/a	"2020-01-21 13:00:39.779256"	"2020-01-21 13:00:40.293729"	7	2.57243565
"S200121"	"Response_Selection"	"LEFT"	"LEFT"	336.563200000001	750.0000015	n/a	n/a	n/a	n/a	n/a	n/a	n/a	"2020-01-21 13:00:41.052715"	"2020-01-21 13:00:41.596373"	8	2.57243565
"S200121"	"Response_Selection"	"LEFT"	"LEFT"	304.33690000001	966.6666686	n/a	n/a	n/a	n/a	n/a	n/a	n/a	"2020-01-21 13:00:42.572068"	"2020-01-21 13:00:43.084731"	9	2.57243565
"S200121"	"Response_Selection"	"RIGHT"	"RIGHT"	231.179399999974	1216.6666691	n/a	n/a	n/a	n/a	n/a	n/a	n/a	"2020-01-21 13:00:44.310728"	"2020-01-21 13:00:44.749553"	10	2.57243565
"S200121"	"Response_Selection"	"LEFT"	"LEFT"	314.047499999958	1316.6666693	n/a	n/a	n/a	n/a	n/a	n/a	n/a	"2020-01-21 13:00:46.074541"	"2020-01-21 13:00:46.596191"	11	2.57243565
"S200121"	"Response_Selection"	"RIGHT"	"RIGHT"	287.24010000002	1416.6666695	n/a	n/a	n/a	n/a	n/a	n/a	n/a	"2020-01-21 13:00:48.021867"	"2020-01-21 13:00:48.516552"	12	2.57243565
"S200121"	"Response_Selection"	"RIGHT"	"RIGHT"	363.807199999997	700.0000014	n/a	n/a	n/a	n/a	n/a	n/a	n/a	"2020-01-21 13:00:49.225390"	"2020-01-21 13:00:49.797006"	13	2.57243565
"S200121"	"Response_Selection"	"LEFT"	"LEFT"	265.348599999982	1350.0000027	n/a	n/a	n/a	n/a	n/a	n/a	n/a	"2020-01-21 13:00:51.155824"	"2020-01-21 13:00:51.629165"	14	2.57243565
"S200121"	"Response_Selection"	"RIGHT"	"RIGHT"	348.116500000003	1466.6666696	n/a	n/a	n/a	n/a	n/a	n/a	n/a	"2020-01-21 13:00:53.104666"	"2020-01-21 13:00:53.661960"	15	2.57243565
"S200121"	"Response_Selection"	"LEFT"	"LEFT"	316.458499999953	1416.6666695	n/a	n/a	n/a	n/a	n/a	n/a	n/a	"2020-01-21 13:00:55.088549"	"2020-01-21 13:00:55.612197"	16	2.57243565
"S200121"	"Response_Selection"	"RIGHT"	"RIGHT"	332.016500000009	1500.000003	n/a	n/a	n/a	n/a	n/a	n/a	n/a	"2020-01-21 13:00:57.120205"	"2020-01-21 13:00:57.661848"	17	2.57243565
"S200121"	"Response_Selection"	"LEFT"	"LEFT"	299.243600000011	1066.6666688	n/a	n/a	n/a	n/a	n/a	n/a	n/a	"2020-01-21 13:00:58.737964"	"2020-01-21 13:00:59.245671"	18	2.57243565
"S200121"	"Response_Selection"	"RIGHT"	"RIGHT"	340.678700000012	650.0000013	n/a	n/a	n/a	n/a	n/a	n/a	n/a	"2020-01-21 13:00:59.904415"	"2020-01-21 13:01:00.453943"	19	2.57243565
"S200121"	"Response_Selection"	"LEFT"	"LEFT"	287.433399999998	1366.6666694	n/a	n/a	n/a	n/a	n/a	n/a	n/a	"2020-01-21 13:01:01.829523"	"2020-01-21 13:01:02.324775"	20	2.57243565
"S200121"	"Response_Selection"	"RIGHT"	"RIGHT"	457.701900000018	750.0000015	n/a	n/a	n/a	n/a	n/a	n/a	n/a	"2020-01-21 13:01:03.083343"	"2020-01-21 13:01:03.749959"	21	2.57243565
"S200121"	"Response_Selection"	"RIGHT"	"RIGHT"	368.905699999971	733.3333348	n/a	n/a	n/a	n/a	n/a	n/a	n/a	"2020-01-21 13:01:04.491524"	"2020-01-21 13:01:05.069578"	22	2.57243565
"S200121"	"Response_Selection"	"LEFT"	"LEFT"	408.745699999997	550.0000011	n/a	n/a	n/a	n/a	n/a	n/a	n/a	"2020-01-21 13:01:05.627634"	"2020-01-21 13:01:06.245949"	23	2.57243565
"S200121"	"Response_Selection"	"LEFT"	"LEFT"	365.382099999977	1016.6666687	n/a	n/a	n/a	n/a	n/a	n/a	n/a	"2020-01-21 13:01:07.270958"	"2020-01-21 13:01:07.844141"	24	2.57243565
"S200121"	"Response_Selection"	"LEFT"	"LEFT"	318.733100000031	833.333335	n/a	n/a	n/a	n/a	n/a	n/a	n/a	"2020-01-21 13:01:08.685927"	"2020-01-21 13:01:09.213452"	25	2.57243565
"S200121"	"Response_Selection"	"RIGHT"	"RIGHT"	313.779399999987	916.6666685	n/a	n/a	n/a	n/a	n/a	n/a	n/a	"2020-01-21 13:01:10.138561"	"2020-01-21 13:01:10.660216"	26	2.57243565
"S200121"	"Response_Selection"	"LEFT"	"LEFT"	373.166400000002	500.000001	n/a	n/a	n/a	n/a	n/a	n/a	n/a	"2020-01-21 13:01:11.168821"	"2020-01-21 13:01:11.750072"	27	2.57243565
"S200121"	"Response_Selection"	"LEFT"	"LEFT"	315.228700000034	1083.3333355	n/a	n/a	n/a	n/a	n/a	n/a	n/a	"2020-01-21 13:01:12.841792"	"2020-01-21 13:01:13.364148"	28	2.57243565
"S200121"	"Response_Selection"	"LEFT"	"LEFT"	316.093599999988	1466.6666696	n/a	n/a	n/a	n/a	n/a	n/a	n/a	"2020-01-21 13:01:14.840128"	"2020-01-21 13:01:15.364554"	29	2.57243565
"S200121"	"Response_Selection"	"LEFT"	"LEFT"	339.188799999988	1116.6666689	n/a	n/a	n/a	n/a	n/a	n/a	n/a	"2020-01-21 13:01:16.489647"	"2020-01-21 13:01:17.036218"	30	2.57243565
"S200121"	"Response_Selection"	"LEFT"	"LEFT"	407.738199999983	583.3333345	n/a	n/a	n/a	n/a	n/a	n/a	n/a	"2020-01-21 13:01:17.628599"	"2020-01-21 13:01:18.243535"	31	2.57243565
"S200121"	"Response_Selection"	"LEFT"	"LEFT"	340.570500000013	683.3333347	n/a	n/a	n/a	n/a	n/a	n/a	n/a	"2020-01-21 13:01:18.936257"	"2020-01-21 13:01:19.484405"	32	2.57243565
"S200121"	"Response_Selection"	"RIGHT"	"RIGHT"	245.206499999995	1066.6666688	n/a	n/a	n/a	n/a	n/a	n/a	n/a	"2020-01-21 13:01:20.559776"	"2020-01-21 13:01:21.013735"	33	2.57243565
"S200121"	"Response_Selection"	"LEFT"	"LEFT"	477.113400000007	1033.3333354	n/a	n/a	n/a	n/a	n/a	n/a	n/a	"2020-01-21 13:01:22.056167"	"2020-01-21 13:01:22.741508"	34	2.57243565
"S200121"	"Response_Selection"	"RIGHT"	"RIGHT"	319.148100000007	783.3333349	n/a	n/a	n/a	n/a	n/a	n/a	n/a	"2020-01-21 13:01:23.534112"	"2020-01-21 13:01:24.062001"	35	2.57243565
"S200121"	"Response_Selection"	"LEFT"	"LEFT"	292.1336	1450.0000029	n/a	n/a	n/a	n/a	n/a	n/a	n/a	"2020-01-21 13:01:25.520238"	"2020-01-21 13:01:26.020198"	36	2.57243565
"S200121"	"Response_Selection"	"LEFT"	"LEFT"	445.740499999999	650.0000013	n/a	n/a	n/a	n/a	n/a	n/a	n/a	"2020-01-21 13:01:26.678567"	"2020-01-21 13:01:27.332154"	37	2.57243565
"S200121"	"Response_Selection"	"RIGHT"	"RIGHT"	278.780299999994	833.333335	n/a	n/a	n/a	n/a	n/a	n/a	n/a	"2020-01-21 13:01:28.174549"	"2020-01-21 13:01:28.660279"	38	2.57243565
"S200121"	"Response_Selection"	"LEFT"	"LEFT"	386.734400000023	533.3333344	n/a	n/a	n/a	n/a	n/a	n/a	n/a	"2020-01-21 13:01:29.201984"	"2020-01-21 13:01:29.796324"	39	2.57243565
"S200121"	"Response_Selection"	"RIGHT"	"RIGHT"	338.347699999986	933.3333352	n/a	n/a	n/a	n/a	n/a	n/a	n/a	"2020-01-21 13:01:30.738752"	"2020-01-21 13:01:31.284103"	40	2.57243565
"S200121"	"Response_Selection"	"LEFT"	"LEFT"	305.503699999974	733.3333348	n/a	n/a	n/a	n/a	n/a	n/a	n/a	"2020-01-21 13:01:32.026684"	"2020-01-21 13:01:32.540190"	41	2.57243565
"S200121"	"Response_Selection"	"RIGHT"	"RIGHT"	295.81440000004	800.0000016	n/a	n/a	n/a	n/a	n/a	n/a	n/a	"2020-01-21 13:01:33.349155"	"2020-01-21 13:01:33.853804"	42	2.57243565
"S200121"	"Response_Selection"	"RIGHT"	"RIGHT"	396.180099999981	633.3333346	n/a	n/a	n/a	n/a	n/a	n/a	n/a	"2020-01-21 13:01:34.496871"	"2020-01-21 13:01:35.101222"	43	2.57243565
"S200121"	"Response_Selection"	"LEFT"	"LEFT"	382.103499999971	600.0000012	n/a	n/a	n/a	n/a	n/a	n/a	n/a	"2020-01-21 13:01:35.710803"	"2020-01-21 13:01:36.301489"	44	2.57243565
"S200121"	"Response_Selection"	"RIGHT"	"RIGHT"	279.048299999999	983.3333353	n/a	n/a	n/a	n/a	n/a	n/a	n/a	"2020-01-21 13:01:37.293689"	"2020-01-21 13:01:37.780470"	45	2.57243565
"S200121"	"Response_Selection"	"LEFT"	"LEFT"	293.176200000005	866.6666684	n/a	n/a	n/a	n/a	n/a	n/a	n/a	"2020-01-21 13:01:38.655203"	"2020-01-21 13:01:39.156139"	46	2.57243565
"S200121"	"Response_Selection"	"RIGHT"	"RIGHT"	347.832600000004	500.000001	n/a	n/a	n/a	n/a	n/a	n/a	n/a	"2020-01-21 13:01:39.664658"	"2020-01-21 13:01:40.220274"	47	2.57243565
"S200121"	"Response_Selection"	"RIGHT"	"RIGHT"	390.914600000031	1016.6666687	n/a	n/a	n/a	n/a	n/a	n/a	n/a	"2020-01-21 13:01:41.245156"	"2020-01-21 13:01:41.844950"	48	2.57243565
"S200121"	"Response_Selection"	"RIGHT"	"RIGHT"	315.161999999987	1300.0000026	n/a	n/a	n/a	n/a	n/a	n/a	n/a	"2020-01-21 13:01:43.153707"	"2020-01-21 13:01:43.676478"	49	2.57243565
"S200121"	"Response_Selection"	"LEFT"	"LEFT"	313.282600000036	1166.666669	n/a	n/a	n/a	n/a	n/a	n/a	n/a	"2020-01-21 13:01:44.851672"	"2020-01-21 13:01:45.374293"	50	2.57243565
"S200121"	"Response_Selection"	"LEFT"	"LEFT"	293.655300000012	1400.0000028	n/a	n/a	n/a	n/a	n/a	n/a	n/a	"2020-01-21 13:01:46.782732"	"2020-01-21 13:01:47.284719"	51	2.57243565
"S200121"	"Response_Selection"	"LEFT"	"LEFT"	309.845199999984	1216.6666691	n/a	n/a	n/a	n/a	n/a	n/a	n/a	"2020-01-21 13:01:48.511304"	"2020-01-21 13:01:49.028499"	52	2.57243565
"S200121"	"Response_Selection"	"LEFT"	"LEFT"	414.330199999995	633.3333346	n/a	n/a	n/a	n/a	n/a	n/a	n/a	"2020-01-21 13:01:49.670267"	"2020-01-21 13:01:50.293599"	53	2.57243565
"S200121"	"Response_Selection"	"LEFT"	"LEFT"	362.096599999973	1500.000003	n/a	n/a	n/a	n/a	n/a	n/a	n/a	"2020-01-21 13:01:51.802900"	"2020-01-21 13:01:52.373962"	54	2.57243565
"S200121"	"Response_Selection"	"RIGHT"	"RIGHT"	360.472299999969	1133.3333356	n/a	n/a	n/a	n/a	n/a	n/a	n/a	"2020-01-21 13:01:53.516061"	"2020-01-21 13:01:54.084560"	55	2.57243565
"S200121"	"Response_Selection"	"LEFT"	"LEFT"	306.101800000022	1133.3333356	n/a	n/a	n/a	n/a	n/a	n/a	n/a	"2020-01-21 13:01:55.226170"	"2020-01-21 13:01:55.740347"	56	2.57243565
"S200121"	"Response_Selection"	"RIGHT"	"RIGHT"	377.926300000013	550.0000011	n/a	n/a	n/a	n/a	n/a	n/a	n/a	"2020-01-21 13:01:56.299071"	"2020-01-21 13:01:56.884697"	57	2.57243565
"S200121"	"Response_Selection"	"RIGHT"	"RIGHT"	334.843799999987	1400.0000028	n/a	n/a	n/a	n/a	n/a	n/a	n/a	"2020-01-21 13:01:58.293903"	"2020-01-21 13:01:58.836182"	58	2.57243565
"S200121"	"Response_Selection"	"LEFT"	"LEFT"	368.628699999988	983.3333353	n/a	n/a	n/a	n/a	n/a	n/a	n/a	"2020-01-21 13:01:59.828709"	"2020-01-21 13:02:00.405148"	59	2.57243565
"S200121"	"Response_Selection"	"RIGHT"	"RIGHT"	365.883699999983	1033.3333354	n/a	n/a	n/a	n/a	n/a	n/a	n/a	"2020-01-21 13:02:01.447486"	"2020-01-21 13:02:02.021656"	60	2.57243565
"S200121"	"Response_Selection"	"RIGHT"	"RIGHT"	298.452400000031	1083.3333355	n/a	n/a	n/a	n/a	n/a	n/a	n/a	"2020-01-21 13:02:03.114417"	"2020-01-21 13:02:03.621588"	61	2.57243565
"S200121"	"Response_Selection"	"LEFT"	"LEFT"	316.553800000008	1250.0000025	n/a	n/a	n/a	n/a	n/a	n/a	n/a	"2020-01-21 13:02:04.879870"	"2020-01-21 13:02:05.404706"	62	2.57243565
"S200121"	"Response_Selection"	"RIGHT"	"RIGHT"	292.071800000031	866.6666684	n/a	n/a	n/a	n/a	n/a	n/a	n/a	"2020-01-21 13:02:06.280788"	"2020-01-21 13:02:06.780292"	63	2.57243565
"S200121"	"Response_Selection"	"RIGHT"	"RIGHT"	370.34060000002	1116.6666689	n/a	n/a	n/a	n/a	n/a	n/a	n/a	"2020-01-21 13:02:07.906407"	"2020-01-21 13:02:08.485469"	64	2.57243565
"S200121"	"Response_Selection"	"RIGHT"	"RIGHT"	303.50820000001	1166.666669	n/a	n/a	n/a	n/a	n/a	n/a	n/a	"2020-01-21 13:02:09.661620"	"2020-01-21 13:02:10.172850"	65	2.57243565
"S200121"	"Response_Selection"	"RIGHT"	"RIGHT"	340.258699999993	883.3333351	n/a	n/a	n/a	n/a	n/a	n/a	n/a	"2020-01-21 13:02:11.064355"	"2020-01-21 13:02:11.613002"	66	2.57243565
"S200121"	"Response_Selection"	"RIGHT"	"RIGHT"	422.898099999998	600.0000012	n/a	n/a	n/a	n/a	n/a	n/a	n/a	"2020-01-21 13:02:12.222047"	"2020-01-21 13:02:12.852336"	67	2.57243565
"S200121"	"Response_Selection"	"LEFT"	"LEFT"	295.684899999969	1200.0000024	n/a	n/a	n/a	n/a	n/a	n/a	n/a	"2020-01-21 13:02:14.061751"	"2020-01-21 13:02:14.564402"	68	2.57243565
"S200121"	"Response_Selection"	"RIGHT"	"RIGHT"	305.41020000004	966.6666686	n/a	n/a	n/a	n/a	n/a	n/a	n/a	"2020-01-21 13:02:15.539776"	"2020-01-21 13:02:16.052752"	69	2.57243565
"S200121"	"Response_Selection"	"RIGHT"	"RIGHT"	362.783900000011	1316.6666693	n/a	n/a	n/a	n/a	n/a	n/a	n/a	"2020-01-21 13:02:17.378023"	"2020-01-21 13:02:17.949092"	70	2.57243565
"S200121"	"Response_Selection"	"LEFT"	"LEFT"	371.569000000022	916.6666685	n/a	n/a	n/a	n/a	n/a	n/a	n/a	"2020-01-21 13:02:18.873853"	"2020-01-21 13:02:19.453535"	71	2.57243565
"S200121"	"Response_Selection"	"RIGHT"	"RIGHT"	284.27210000001	1250.0000025	n/a	n/a	n/a	n/a	n/a	n/a	n/a	"2020-01-21 13:02:20.712914"	"2020-01-21 13:02:21.204144"	72	2.57243565
"S200121"	"Response_Selection"	"LEFT"	"LEFT"	347.239399999978	1300.0000026	n/a	n/a	n/a	n/a	n/a	n/a	n/a	"2020-01-21 13:02:22.513850"	"2020-01-21 13:02:23.068983"	73	2.57243565
"S200121"	"Response_Selection"	"RIGHT"	"RIGHT"	285.17370000003	1450.0000029	n/a	n/a	n/a	n/a	n/a	n/a	n/a	"2020-01-21 13:02:24.528157"	"2020-01-21 13:02:25.020968"	74	2.57243565
"S200121"	"Response_Selection"	"RIGHT"	"RIGHT"	348.479699999984	1266.6666692	n/a	n/a	n/a	n/a	n/a	n/a	n/a	"2020-01-21 13:02:26.296442"	"2020-01-21 13:02:26.853333"	75	2.57243565
"S200121"	"Response_Selection"	"RIGHT"	"RIGHT"	426.377800000012	533.3333344	n/a	n/a	n/a	n/a	n/a	n/a	n/a	"2020-01-21 13:02:27.395650"	"2020-01-21 13:02:28.029131"	76	2.57243565
"S200121"	"Response_Selection"	"RIGHT"	"RIGHT"	336.493599999983	1350.0000027	n/a	n/a	n/a	n/a	n/a	n/a	n/a	"2020-01-21 13:02:29.388874"	"2020-01-21 13:02:29.933603"	77	2.57243565
"S200121"	"Response_Selection"	"RIGHT"	"RIGHT"	309.788099999992	1200.0000024	n/a	n/a	n/a	n/a	n/a	n/a	n/a	"2020-01-21 13:02:31.142894"	"2020-01-21 13:02:31.660258"	78	2.57243565
"S200121"	"Response_Selection"	"LEFT"	"LEFT"	484.138400000006	700.0000014	n/a	n/a	n/a	n/a	n/a	n/a	n/a	"2020-01-21 13:02:32.368942"	"2020-01-21 13:02:33.061132"	79	2.57243565
"S200121"	"Response_Selection"	"RIGHT"	"RIGHT"	337.011399999994	583.3333345	n/a	n/a	n/a	n/a	n/a	n/a	n/a	"2020-01-21 13:02:33.652766"	"2020-01-21 13:02:34.199024"	80	2.57243565
