Participant	Task	Stimulus_Side	Response	RT	ITI	Previous_Response	Previous_RT	Trial_Onset	Trial_End	Trial_Order	Duration	Conflict	Cue_Response	Cue_Response_RT	Stop_Signal	Stop_Signal_RT
S200121	Conflict_Resolution	LEFT	Time_Max_Exceeded	1500.11830000005	1350.0000027	n/a	n/a	2020-01-21 13:09:24.229374	2020-01-21 13:09:25.730173	1	5.70395968333333	True	n/a	n/a	n/a	n/a
S200121	Conflict_Resolution	RIGHT	RIGHT	637.69759999991	1050.0000021	n/a	n/a	2020-01-21 13:09:26.799686	2020-01-21 13:09:27.644620	2	5.70395968333333	False	n/a	n/a	n/a	n/a
S200121	Conflict_Resolution	RIGHT	Time_Max_Exceeded	1500.05620000002	1233.3333358	n/a	n/a	2020-01-21 13:09:28.896864	2020-01-21 13:09:30.397709	3	5.70395968333333	True	n/a	n/a	n/a	n/a
S200121	Conflict_Resolution	RIGHT	RIGHT	419.458200000008	1033.3333354	n/a	n/a	2020-01-21 13:09:31.450555	2020-01-21 13:09:32.077564	4	5.70395968333333	False	n/a	n/a	n/a	n/a
S200121	Conflict_Resolution	RIGHT	Time_Max_Exceeded	1500.0788000001	800.0000016	n/a	n/a	2020-01-21 13:09:32.896475	2020-01-21 13:09:34.397355	5	5.70395968333333	True	n/a	n/a	n/a	n/a
S200121	Conflict_Resolution	LEFT	Time_Max_Exceeded	1500.11170000005	950.0000019	n/a	n/a	2020-01-21 13:09:35.367174	2020-01-21 13:09:36.867110	6	5.70395968333333	True	n/a	n/a	n/a	n/a
S200121	Conflict_Resolution	RIGHT	RIGHT	1465.82909999995	1083.3333355	n/a	n/a	2020-01-21 13:09:37.971917	2020-01-21 13:09:39.645827	7	5.70395968333333	True	n/a	n/a	n/a	n/a
S200121	Conflict_Resolution	LEFT	LEFT	1121.60070000004	1300.0000026	n/a	n/a	2020-01-21 13:09:40.963217	2020-01-21 13:09:42.293457	8	5.70395968333333	True	n/a	n/a	n/a	n/a
S200121	Conflict_Resolution	RIGHT	RIGHT	689.075699999989	1333.333336	n/a	n/a	2020-01-21 13:09:43.644031	2020-01-21 13:09:44.542961	9	5.70395968333333	False	n/a	n/a	n/a	n/a
S200121	Conflict_Resolution	RIGHT	RIGHT	564.901500000019	800.0000016	n/a	n/a	2020-01-21 13:09:45.361039	2020-01-21 13:09:46.134729	10	5.70395968333333	False	n/a	n/a	n/a	n/a
S200121	Conflict_Resolution	LEFT	LEFT	884.2803	533.3333344	n/a	n/a	2020-01-21 13:09:46.688719	2020-01-21 13:09:47.781945	11	5.70395968333333	True	n/a	n/a	n/a	n/a
S200121	Conflict_Resolution	RIGHT	RIGHT	1280.96549999998	1216.6666691	n/a	n/a	2020-01-21 13:09:49.020895	2020-01-21 13:09:50.509848	12	5.70395968333333	True	n/a	n/a	n/a	n/a
S200121	Conflict_Resolution	LEFT	LEFT	623.441699999944	916.6666685	n/a	n/a	2020-01-21 13:09:51.446066	2020-01-21 13:09:52.276435	13	5.70395968333333	False	n/a	n/a	n/a	n/a
S200121	Conflict_Resolution	LEFT	LEFT	568.200899999965	1150.0000023	n/a	n/a	2020-01-21 13:09:53.445087	2020-01-21 13:09:54.221757	14	5.70395968333333	False	n/a	n/a	n/a	n/a
S200121	Conflict_Resolution	LEFT	Time_Max_Exceeded	1500.07589999996	1500.000003	n/a	n/a	2020-01-21 13:09:55.740325	2020-01-21 13:09:57.240967	15	5.70395968333333	True	n/a	n/a	n/a	n/a
S200121	Conflict_Resolution	RIGHT	RIGHT	550.90580000001	650.0000013	LEFT	-386.958	2020-01-21 13:09:57.911147	2020-01-21 13:09:58.670372	16	5.70395968333333	False	n/a	n/a	n/a	n/a
S200121	Conflict_Resolution	LEFT	LEFT	515.463400000044	1416.6666695	n/a	n/a	2020-01-21 13:10:00.105703	2020-01-21 13:10:00.830023	17	5.70395968333333	False	n/a	n/a	n/a	n/a
S200121	Conflict_Resolution	RIGHT	RIGHT	944.018700000015	500.000001	n/a	n/a	2020-01-21 13:10:01.349199	2020-01-21 13:10:02.502036	18	5.70395968333333	True	n/a	n/a	n/a	n/a
S200121	Conflict_Resolution	RIGHT	RIGHT	865.705800000001	650.0000013	n/a	n/a	2020-01-21 13:10:03.172215	2020-01-21 13:10:04.245926	19	5.70395968333333	True	n/a	n/a	n/a	n/a
S200121	Conflict_Resolution	LEFT	LEFT	618.140499999981	850.0000017	n/a	n/a	2020-01-21 13:10:05.115279	2020-01-21 13:10:05.940571	20	5.70395968333333	False	n/a	n/a	n/a	n/a
S200121	Conflict_Resolution	RIGHT	RIGHT	484.573899999987	633.3333346	n/a	n/a	2020-01-21 13:10:06.593345	2020-01-21 13:10:07.285860	21	5.70395968333333	False	n/a	n/a	n/a	n/a
S200121	Conflict_Resolution	RIGHT	RIGHT	451.875500000028	850.0000017	n/a	n/a	2020-01-21 13:10:08.153057	2020-01-21 13:10:08.812438	22	5.70395968333333	False	n/a	n/a	n/a	n/a
S200121	Conflict_Resolution	LEFT	LEFT	728.828300000032	516.6666677	n/a	n/a	2020-01-21 13:10:09.348533	2020-01-21 13:10:10.285415	23	5.70395968333333	True	n/a	n/a	n/a	n/a
S200121	Conflict_Resolution	LEFT	LEFT	516.184299999964	566.6666678	n/a	n/a	2020-01-21 13:10:10.873608	2020-01-21 13:10:11.597771	24	5.70395968333333	False	n/a	n/a	n/a	n/a
S200121	Conflict_Resolution	RIGHT	RIGHT	488.210099999947	933.3333352	n/a	n/a	2020-01-21 13:10:12.548798	2020-01-21 13:10:13.245239	25	5.70395968333333	False	n/a	n/a	n/a	n/a
S200121	Conflict_Resolution	LEFT	LEFT	465.597199999934	900.0000018	n/a	n/a	2020-01-21 13:10:14.164351	2020-01-21 13:10:14.837231	26	5.70395968333333	False	n/a	n/a	n/a	n/a
S200121	Conflict_Resolution	LEFT	LEFT	670.313199999896	1366.6666694	n/a	n/a	2020-01-21 13:10:16.222904	2020-01-21 13:10:17.101591	27	5.70395968333333	True	n/a	n/a	n/a	n/a
S200121	Conflict_Resolution	RIGHT	RIGHT	609.606999999983	1050.0000021	n/a	n/a	2020-01-21 13:10:18.172303	2020-01-21 13:10:18.990994	28	5.70395968333333	True	n/a	n/a	n/a	n/a
S200121	Conflict_Resolution	LEFT	LEFT	497.653300000025	1066.6666688	n/a	n/a	2020-01-21 13:10:20.076090	2020-01-21 13:10:20.780366	29	5.70395968333333	False	n/a	n/a	n/a	n/a
S200121	Conflict_Resolution	LEFT	LEFT	414.900500000044	766.6666682	n/a	n/a	2020-01-21 13:10:21.566338	2020-01-21 13:10:22.190661	30	5.70395968333333	False	n/a	n/a	n/a	n/a
S200121	Conflict_Resolution	RIGHT	RIGHT	425.220099999933	1266.6666692	n/a	n/a	2020-01-21 13:10:23.476074	2020-01-21 13:10:24.108394	31	5.70395968333333	False	n/a	n/a	n/a	n/a
S200121	Conflict_Resolution	RIGHT	RIGHT	535.892600000011	1150.0000023	n/a	n/a	2020-01-21 13:10:25.278191	2020-01-21 13:10:26.021861	32	5.70395968333333	True	n/a	n/a	n/a	n/a
S200121	Conflict_Resolution	LEFT	LEFT	383.760499999994	1300.0000026	n/a	n/a	2020-01-21 13:10:27.341098	2020-01-21 13:10:27.933805	33	5.70395968333333	False	n/a	n/a	n/a	n/a
S200121	Conflict_Resolution	LEFT	LEFT	808.668000000011	733.3333348	n/a	n/a	2020-01-21 13:10:28.684973	2020-01-21 13:10:29.701593	34	5.70395968333333	True	n/a	n/a	n/a	n/a
S200121	Conflict_Resolution	LEFT	LEFT	384.290200000009	1116.6666689	n/a	n/a	2020-01-21 13:10:30.837438	2020-01-21 13:10:31.430854	35	5.70395968333333	False	n/a	n/a	n/a	n/a
S200121	Conflict_Resolution	LEFT	LEFT	485.299499999996	1350.0000027	n/a	n/a	2020-01-21 13:10:32.800413	2020-01-21 13:10:33.493810	36	5.70395968333333	False	n/a	n/a	n/a	n/a
S200121	Conflict_Resolution	RIGHT	RIGHT	438.04949999992	983.3333353	n/a	n/a	2020-01-21 13:10:34.495560	2020-01-21 13:10:35.141478	37	5.70395968333333	False	n/a	n/a	n/a	n/a
S200121	Conflict_Resolution	LEFT	LEFT	634.940599999936	683.3333347	n/a	n/a	2020-01-21 13:10:35.843037	2020-01-21 13:10:36.685324	38	5.70395968333333	True	n/a	n/a	n/a	n/a
S200121	Conflict_Resolution	LEFT	LEFT	396.449299999972	1400.0000028	n/a	n/a	2020-01-21 13:10:38.105237	2020-01-21 13:10:38.710868	39	5.70395968333333	False	n/a	n/a	n/a	n/a
S200121	Conflict_Resolution	LEFT	LEFT	850.528000000054	1416.6666695	n/a	n/a	2020-01-21 13:10:40.146418	2020-01-21 13:10:41.205656	40	5.70395968333333	True	n/a	n/a	n/a	n/a
S200121	Conflict_Resolution	RIGHT	RIGHT	661.328300000037	583.3333345	n/a	n/a	2020-01-21 13:10:41.808045	2020-01-21 13:10:42.677941	41	5.70395968333333	True	n/a	n/a	n/a	n/a
S200121	Conflict_Resolution	LEFT	LEFT	386.423400000012	1250.0000025	n/a	n/a	2020-01-21 13:10:43.947426	2020-01-21 13:10:44.541741	42	5.70395968333333	False	n/a	n/a	n/a	n/a
S200121	Conflict_Resolution	LEFT	LEFT	438.594899999998	950.0000019	n/a	n/a	2020-01-21 13:10:45.510830	2020-01-21 13:10:46.156527	43	5.70395968333333	False	n/a	n/a	n/a	n/a
S200121	Conflict_Resolution	RIGHT	RIGHT	558.434499999976	783.3333349	n/a	n/a	2020-01-21 13:10:46.959289	2020-01-21 13:10:47.725568	44	5.70395968333333	True	n/a	n/a	n/a	n/a
S200121	Conflict_Resolution	LEFT	LEFT	387.387399999966	616.6666679	n/a	n/a	2020-01-21 13:10:48.361555	2020-01-21 13:10:48.957142	45	5.70395968333333	False	n/a	n/a	n/a	n/a
S200121	Conflict_Resolution	RIGHT	RIGHT	513.236399999982	1283.3333359	n/a	n/a	2020-01-21 13:10:50.259982	2020-01-21 13:10:50.981380	46	5.70395968333333	True	n/a	n/a	n/a	n/a
S200121	Conflict_Resolution	LEFT	LEFT	350.494700000013	1166.666669	n/a	n/a	2020-01-21 13:10:52.167328	2020-01-21 13:10:52.725354	47	5.70395968333333	False	n/a	n/a	n/a	n/a
S200121	Conflict_Resolution	RIGHT	RIGHT	610.321999999996	500.000001	n/a	n/a	2020-01-21 13:10:53.243968	2020-01-21 13:10:54.061429	48	5.70395968333333	False	n/a	n/a	n/a	n/a
S200121	Conflict_Resolution	LEFT	LEFT	338.183200000003	1050.0000021	n/a	n/a	2020-01-21 13:10:55.131679	2020-01-21 13:10:55.676817	49	5.70395968333333	False	n/a	n/a	n/a	n/a
S200121	Conflict_Resolution	RIGHT	RIGHT	358.727900000076	950.0000019	n/a	n/a	2020-01-21 13:10:56.646346	2020-01-21 13:10:57.212409	50	5.70395968333333	False	n/a	n/a	n/a	n/a
S200121	Conflict_Resolution	RIGHT	RIGHT	665.466600000059	1316.6666693	n/a	n/a	2020-01-21 13:10:58.548072	2020-01-21 13:10:59.421748	51	5.70395968333333	True	n/a	n/a	n/a	n/a
S200121	Conflict_Resolution	LEFT	LEFT	419.60389999997	633.3333346	n/a	n/a	2020-01-21 13:11:00.074048	2020-01-21 13:11:00.701770	52	5.70395968333333	False	n/a	n/a	n/a	n/a
S200121	Conflict_Resolution	RIGHT	RIGHT	422.068299999978	583.3333345	n/a	n/a	2020-01-21 13:11:01.303164	2020-01-21 13:11:01.934017	53	5.70395968333333	False	n/a	n/a	n/a	n/a
S200121	Conflict_Resolution	RIGHT	RIGHT	545.350099999951	1466.6666696	n/a	n/a	2020-01-21 13:11:03.419606	2020-01-21 13:11:04.172201	54	5.70395968333333	True	n/a	n/a	n/a	n/a
S200121	Conflict_Resolution	RIGHT	RIGHT	452.970700000037	1416.6666695	n/a	n/a	2020-01-21 13:11:05.608500	2020-01-21 13:11:06.268623	55	5.70395968333333	False	n/a	n/a	n/a	n/a
S200121	Conflict_Resolution	RIGHT	RIGHT	594.573099999934	1483.3333363	n/a	n/a	2020-01-21 13:11:07.771054	2020-01-21 13:11:08.573557	56	5.70395968333333	True	n/a	n/a	n/a	n/a
S200121	Conflict_Resolution	LEFT	LEFT	400.717600000007	1500.000003	n/a	n/a	2020-01-21 13:11:10.092310	2020-01-21 13:11:10.700162	57	5.70395968333333	False	n/a	n/a	n/a	n/a
S200121	Conflict_Resolution	RIGHT	RIGHT	466.293300000075	883.3333351	n/a	n/a	2020-01-21 13:11:11.602990	2020-01-21 13:11:12.277191	58	5.70395968333333	True	n/a	n/a	n/a	n/a
S200121	Conflict_Resolution	LEFT	LEFT	469.967999999994	783.3333349	n/a	n/a	2020-01-21 13:11:13.079240	2020-01-21 13:11:13.757636	59	5.70395968333333	False	n/a	n/a	n/a	n/a
S200121	Conflict_Resolution	RIGHT	RIGHT	354.483699999946	833.333335	n/a	n/a	2020-01-21 13:11:14.610849	2020-01-21 13:11:15.173394	60	5.70395968333333	False	n/a	n/a	n/a	n/a
S200121	Conflict_Resolution	LEFT	RIGHT	648.685999999998	1116.6666689	n/a	n/a	2020-01-21 13:11:16.309200	2020-01-21 13:11:17.166398	61	5.70395968333333	True	n/a	n/a	n/a	n/a
S200121	Conflict_Resolution	LEFT	LEFT	480.11699999995	1316.6666693	n/a	n/a	2020-01-21 13:11:18.501344	2020-01-21 13:11:19.189728	62	5.70395968333333	False	n/a	n/a	n/a	n/a
S200121	Conflict_Resolution	RIGHT	RIGHT	453.415100000029	783.3333349	n/a	n/a	2020-01-21 13:11:19.992299	2020-01-21 13:11:20.653258	63	5.70395968333333	False	n/a	n/a	n/a	n/a
S200121	Conflict_Resolution	RIGHT	RIGHT	599.856499999987	933.3333352	n/a	n/a	2020-01-21 13:11:21.605797	2020-01-21 13:11:22.413311	64	5.70395968333333	True	n/a	n/a	n/a	n/a
S200121	Conflict_Resolution	LEFT	LEFT	767.87760000002	1316.6666693	n/a	n/a	2020-01-21 13:11:23.750408	2020-01-21 13:11:24.726204	65	5.70395968333333	True	n/a	n/a	n/a	n/a
S200121	Conflict_Resolution	LEFT	LEFT	677.82150000005	583.3333345	n/a	n/a	2020-01-21 13:11:25.327865	2020-01-21 13:11:26.212577	66	5.70395968333333	True	n/a	n/a	n/a	n/a
S200121	Conflict_Resolution	RIGHT	RIGHT	596.4788	633.3333346	n/a	n/a	2020-01-21 13:11:26.864849	2020-01-21 13:11:27.669960	67	5.70395968333333	True	n/a	n/a	n/a	n/a
S200121	Conflict_Resolution	RIGHT	RIGHT	485.373600000003	1383.3333361	n/a	n/a	2020-01-21 13:11:29.072261	2020-01-21 13:11:29.765964	68	5.70395968333333	False	n/a	n/a	n/a	n/a
S200121	Conflict_Resolution	LEFT	LEFT	616.761799999949	1466.6666696	n/a	n/a	2020-01-21 13:11:31.253170	2020-01-21 13:11:32.078140	69	5.70395968333333	True	n/a	n/a	n/a	n/a
S200121	Conflict_Resolution	LEFT	LEFT	470.040499999982	733.3333348	n/a	n/a	2020-01-21 13:11:32.831195	2020-01-21 13:11:33.509980	70	5.70395968333333	False	n/a	n/a	n/a	n/a
S200121	Conflict_Resolution	LEFT	LEFT	467.838999999913	1216.6666691	n/a	n/a	2020-01-21 13:11:34.745452	2020-01-21 13:11:35.421115	71	5.70395968333333	False	n/a	n/a	n/a	n/a
S200121	Conflict_Resolution	RIGHT	RIGHT	513.761399999908	683.3333347	n/a	n/a	2020-01-21 13:11:36.123367	2020-01-21 13:11:36.846033	72	5.70395968333333	True	n/a	n/a	n/a	n/a
S200121	Conflict_Resolution	LEFT	LEFT	546.99549999998	633.3333346	n/a	n/a	2020-01-21 13:11:37.498469	2020-01-21 13:11:38.253819	73	5.70395968333333	True	n/a	n/a	n/a	n/a
S200121	Conflict_Resolution	LEFT	LEFT	599.926699999969	916.6666685	n/a	n/a	2020-01-21 13:11:39.189939	2020-01-21 13:11:39.996408	74	5.70395968333333	True	n/a	n/a	n/a	n/a
S200121	Conflict_Resolution	LEFT	LEFT	563.925500000096	683.3333347	n/a	n/a	2020-01-21 13:11:40.698018	2020-01-21 13:11:41.469527	75	5.70395968333333	False	n/a	n/a	n/a	n/a
S200121	Conflict_Resolution	RIGHT	RIGHT	422.830900000008	1366.6666694	n/a	n/a	2020-01-21 13:11:42.855133	2020-01-21 13:11:43.485799	76	5.70395968333333	False	n/a	n/a	n/a	n/a
S200121	Conflict_Resolution	LEFT	LEFT	624.968599999988	900.0000018	n/a	n/a	2020-01-21 13:11:44.406180	2020-01-21 13:11:45.240005	77	5.70395968333333	True	n/a	n/a	n/a	n/a
S200121	Conflict_Resolution	RIGHT	RIGHT	592.861500000026	1466.6666696	n/a	n/a	2020-01-21 13:11:46.724695	2020-01-21 13:11:47.525808	78	5.70395968333333	False	n/a	n/a	n/a	n/a
S200121	Conflict_Resolution	LEFT	LEFT	558.827400000041	533.3333344	n/a	n/a	2020-01-21 13:11:48.078987	2020-01-21 13:11:48.845705	79	5.70395968333333	False	n/a	n/a	n/a	n/a
S200121	Conflict_Resolution	RIGHT	RIGHT	502.699099999973	1133.3333356	n/a	n/a	2020-01-21 13:11:49.998547	2020-01-21 13:11:50.709992	80	5.70395968333333	False	n/a	n/a	n/a	n/a
S200121	Conflict_Resolution	RIGHT	RIGHT	472.88709999998	700.0000014	n/a	n/a	2020-01-21 13:11:51.428486	2020-01-21 13:11:52.109699	81	5.70395968333333	False	n/a	n/a	n/a	n/a
S200121	Conflict_Resolution	LEFT	LEFT	402.086800000006	1466.6666696	n/a	n/a	2020-01-21 13:11:53.595062	2020-01-21 13:11:54.205904	82	5.70395968333333	False	n/a	n/a	n/a	n/a
S200121	Conflict_Resolution	RIGHT	RIGHT	640.931399999999	900.0000018	n/a	n/a	2020-01-21 13:11:55.125990	2020-01-21 13:11:55.974848	83	5.70395968333333	True	n/a	n/a	n/a	n/a
S200121	Conflict_Resolution	LEFT	LEFT	663.682999999992	1266.6666692	n/a	n/a	2020-01-21 13:11:57.261574	2020-01-21 13:11:58.133614	84	5.70395968333333	True	n/a	n/a	n/a	n/a
S200121	Conflict_Resolution	RIGHT	RIGHT	456.2363	683.3333347	n/a	n/a	2020-01-21 13:11:58.837505	2020-01-21 13:11:59.501729	85	5.70395968333333	False	n/a	n/a	n/a	n/a
S200121	Conflict_Resolution	RIGHT	RIGHT	409.824500000013	1083.3333355	n/a	n/a	2020-01-21 13:12:00.603542	2020-01-21 13:12:01.220286	86	5.70395968333333	False	n/a	n/a	n/a	n/a
S200121	Conflict_Resolution	RIGHT	RIGHT	997.946899999988	600.0000012	n/a	n/a	2020-01-21 13:12:01.839785	2020-01-21 13:12:03.044540	87	5.70395968333333	True	n/a	n/a	n/a	n/a
S200121	Conflict_Resolution	RIGHT	RIGHT	588.72180000003	1033.3333354	n/a	n/a	2020-01-21 13:12:04.097443	2020-01-21 13:12:04.893878	88	5.70395968333333	True	n/a	n/a	n/a	n/a
S200121	Conflict_Resolution	RIGHT	RIGHT	449.58639999993	1483.3333363	n/a	n/a	2020-01-21 13:12:06.396832	2020-01-21 13:12:07.055076	89	5.70395968333333	False	n/a	n/a	n/a	n/a
S200121	Conflict_Resolution	LEFT	LEFT	430.73650000008	1100.0000022	n/a	n/a	2020-01-21 13:12:08.174589	2020-01-21 13:12:08.813890	90	5.70395968333333	False	n/a	n/a	n/a	n/a
S200121	Conflict_Resolution	LEFT	LEFT	651.80799999996	1016.6666687	n/a	n/a	2020-01-21 13:12:09.849686	2020-01-21 13:12:10.709515	91	5.70395968333333	True	n/a	n/a	n/a	n/a
S200121	Conflict_Resolution	RIGHT	RIGHT	646.470700000009	533.3333344	n/a	n/a	2020-01-21 13:12:11.263024	2020-01-21 13:12:12.118760	92	5.70395968333333	False	n/a	n/a	n/a	n/a
S200121	Conflict_Resolution	LEFT	LEFT	617.506000000049	866.6666684	n/a	n/a	2020-01-21 13:12:13.004053	2020-01-21 13:12:13.830878	93	5.70395968333333	True	n/a	n/a	n/a	n/a
S200121	Conflict_Resolution	RIGHT	RIGHT	439.125999999987	550.0000011	n/a	n/a	2020-01-21 13:12:14.398161	2020-01-21 13:12:15.045695	94	5.70395968333333	False	n/a	n/a	n/a	n/a
S200121	Conflict_Resolution	RIGHT	RIGHT	399.746299999947	1316.6666693	n/a	n/a	2020-01-21 13:12:16.381569	2020-01-21 13:12:16.990105	95	5.70395968333333	False	n/a	n/a	n/a	n/a
S200121	Conflict_Resolution	LEFT	LEFT	511.388499999953	716.6666681	n/a	n/a	2020-01-21 13:12:17.726506	2020-01-21 13:12:18.445393	96	5.70395968333333	False	n/a	n/a	n/a	n/a
S200121	Conflict_Resolution	LEFT	LEFT	466.114300000072	1266.6666692	n/a	n/a	2020-01-21 13:12:19.731463	2020-01-21 13:12:20.405114	97	5.70395968333333	False	n/a	n/a	n/a	n/a
S200121	Conflict_Resolution	LEFT	LEFT	449.562299999911	516.6666677	n/a	n/a	2020-01-21 13:12:20.939535	2020-01-21 13:12:21.596361	98	5.70395968333333	False	n/a	n/a	n/a	n/a
S200121	Conflict_Resolution	RIGHT	RIGHT	602.168800000072	1100.0000022	n/a	n/a	2020-01-21 13:12:22.715154	2020-01-21 13:12:23.525995	99	5.70395968333333	True	n/a	n/a	n/a	n/a
S200121	Conflict_Resolution	LEFT	LEFT	665.353999999979	1066.6666688	n/a	n/a	2020-01-21 13:12:24.612094	2020-01-21 13:12:25.486564	100	5.70395968333333	True	n/a	n/a	n/a	n/a
S200121	Conflict_Resolution	LEFT	LEFT	524.601500000017	583.3333345	n/a	n/a	2020-01-21 13:12:26.088966	2020-01-21 13:12:26.821981	101	5.70395968333333	False	n/a	n/a	n/a	n/a
S200121	Conflict_Resolution	LEFT	LEFT	444.294600000035	816.6666683	n/a	n/a	2020-01-21 13:12:27.657871	2020-01-21 13:12:28.309998	102	5.70395968333333	False	n/a	n/a	n/a	n/a
S200121	Conflict_Resolution	RIGHT	RIGHT	610.703999999942	1416.6666695	n/a	n/a	2020-01-21 13:12:29.746603	2020-01-21 13:12:30.565412	103	5.70395968333333	True	n/a	n/a	n/a	n/a
S200121	Conflict_Resolution	LEFT	LEFT	849.101799999971	1100.0000022	n/a	n/a	2020-01-21 13:12:31.684382	2020-01-21 13:12:32.742693	104	5.70395968333333	True	n/a	n/a	n/a	n/a
S200121	Conflict_Resolution	RIGHT	RIGHT	424.563199999966	900.0000018	n/a	n/a	2020-01-21 13:12:33.660966	2020-01-21 13:12:34.293337	105	5.70395968333333	False	n/a	n/a	n/a	n/a
S200121	Conflict_Resolution	RIGHT	RIGHT	429.023599999937	1216.6666691	n/a	n/a	2020-01-21 13:12:35.528793	2020-01-21 13:12:36.165921	106	5.70395968333333	False	n/a	n/a	n/a	n/a
S200121	Conflict_Resolution	RIGHT	RIGHT	702.51010000004	1133.3333356	n/a	n/a	2020-01-21 13:12:37.319458	2020-01-21 13:12:38.230053	107	5.70395968333333	True	n/a	n/a	n/a	n/a
S200121	Conflict_Resolution	RIGHT	RIGHT	560.552600000051	700.0000014	n/a	n/a	2020-01-21 13:12:38.948603	2020-01-21 13:12:39.717136	108	5.70395968333333	True	n/a	n/a	n/a	n/a
S200121	Conflict_Resolution	RIGHT	RIGHT	458.210300000019	1283.3333359	n/a	n/a	2020-01-21 13:12:41.019478	2020-01-21 13:12:41.685272	109	5.70395968333333	False	n/a	n/a	n/a	n/a
S200121	Conflict_Resolution	LEFT	LEFT	668.088900000043	1050.0000021	n/a	n/a	2020-01-21 13:12:42.753602	2020-01-21 13:12:43.629772	110	5.70395968333333	True	n/a	n/a	n/a	n/a
S200121	Conflict_Resolution	RIGHT	RIGHT	455.975399999943	750.0000015	n/a	n/a	2020-01-21 13:12:44.399101	2020-01-21 13:12:45.062605	111	5.70395968333333	False	n/a	n/a	n/a	n/a
S200121	Conflict_Resolution	RIGHT	RIGHT	674.077900000043	833.333335	n/a	n/a	2020-01-21 13:12:45.916137	2020-01-21 13:12:46.797146	112	5.70395968333333	True	n/a	n/a	n/a	n/a
S200121	Conflict_Resolution	RIGHT	RIGHT	599.997700000017	1366.6666694	n/a	n/a	2020-01-21 13:12:48.182167	2020-01-21 13:12:48.990738	113	5.70395968333333	True	n/a	n/a	n/a	n/a
S200121	Conflict_Resolution	LEFT	RIGHT	444.011499999988	783.3333349	n/a	n/a	2020-01-21 13:12:49.793216	2020-01-21 13:12:50.445952	114	5.70395968333333	True	n/a	n/a	n/a	n/a
S200121	Conflict_Resolution	RIGHT	RIGHT	556.685799999968	1183.3333357	n/a	n/a	2020-01-21 13:12:51.649068	2020-01-21 13:12:52.413084	115	5.70395968333333	True	n/a	n/a	n/a	n/a
S200121	Conflict_Resolution	LEFT	LEFT	442.293800000016	1450.0000029	n/a	n/a	2020-01-21 13:12:53.882802	2020-01-21 13:12:54.533875	116	5.70395968333333	False	n/a	n/a	n/a	n/a
S200121	Conflict_Resolution	LEFT	LEFT	759.080899999958	716.6666681	n/a	n/a	2020-01-21 13:12:55.270113	2020-01-21 13:12:56.237780	117	5.70395968333333	True	n/a	n/a	n/a	n/a
S200121	Conflict_Resolution	LEFT	LEFT	678.027600000064	616.6666679	n/a	n/a	2020-01-21 13:12:56.871862	2020-01-21 13:12:57.757286	118	5.70395968333333	True	n/a	n/a	n/a	n/a
S200121	Conflict_Resolution	LEFT	LEFT	557.395799999995	1166.666669	n/a	n/a	2020-01-21 13:12:58.944016	2020-01-21 13:12:59.709231	119	5.70395968333333	True	n/a	n/a	n/a	n/a
S200121	Conflict_Resolution	LEFT	LEFT	502.598999999918	766.6666682	n/a	n/a	2020-01-21 13:13:00.494698	2020-01-21 13:13:01.205122	120	5.70395968333333	True	n/a	n/a	n/a	n/a
S200121	Conflict_Resolution	RIGHT	RIGHT	920.25359999991	1333.333336	n/a	n/a	2020-01-21 13:13:02.557338	2020-01-21 13:13:03.685328	121	5.70395968333333	True	n/a	n/a	n/a	n/a
S200121	Conflict_Resolution	RIGHT	RIGHT	671.424799999954	750.0000015	n/a	n/a	2020-01-21 13:13:04.454004	2020-01-21 13:13:05.334691	122	5.70395968333333	True	n/a	n/a	n/a	n/a
S200121	Conflict_Resolution	LEFT	LEFT	571.449899999948	1000.000002	n/a	n/a	2020-01-21 13:13:06.353967	2020-01-21 13:13:07.133989	123	5.70395968333333	False	n/a	n/a	n/a	n/a
S200121	Conflict_Resolution	LEFT	LEFT	613.683900000069	1150.0000023	n/a	n/a	2020-01-21 13:13:08.303770	2020-01-21 13:13:09.125732	124	5.70395968333333	True	n/a	n/a	n/a	n/a
S200121	Conflict_Resolution	LEFT	LEFT	768.232399999988	566.6666678	n/a	n/a	2020-01-21 13:13:09.710207	2020-01-21 13:13:10.686780	125	5.70395968333333	True	n/a	n/a	n/a	n/a
S200121	Conflict_Resolution	RIGHT	RIGHT	623.164700000075	733.3333348	n/a	n/a	2020-01-21 13:13:11.439490	2020-01-21 13:13:12.270315	126	5.70395968333333	False	n/a	n/a	n/a	n/a
S200121	Conflict_Resolution	LEFT	LEFT	642.114199999924	666.666668	n/a	n/a	2020-01-21 13:13:12.955673	2020-01-21 13:13:13.806141	127	5.70395968333333	True	n/a	n/a	n/a	n/a
S200121	Conflict_Resolution	LEFT	LEFT	809.933899999919	1450.0000029	n/a	n/a	2020-01-21 13:13:15.275561	2020-01-21 13:13:16.293325	128	5.70395968333333	True	n/a	n/a	n/a	n/a
S200121	Conflict_Resolution	LEFT	LEFT	650.462300000072	1250.0000025	n/a	n/a	2020-01-21 13:13:17.563740	2020-01-21 13:13:18.421305	129	5.70395968333333	True	n/a	n/a	n/a	n/a
S200121	Conflict_Resolution	LEFT	LEFT	731.528400000002	850.0000017	n/a	n/a	2020-01-21 13:13:19.290067	2020-01-21 13:13:20.230635	130	5.70395968333333	True	n/a	n/a	n/a	n/a
S200121	Conflict_Resolution	RIGHT	RIGHT	751.871599999959	533.3333344	n/a	n/a	2020-01-21 13:13:20.781163	2020-01-21 13:13:21.740504	131	5.70395968333333	True	n/a	n/a	n/a	n/a
S200121	Conflict_Resolution	LEFT	LEFT	518.98760000006	1200.0000024	n/a	n/a	2020-01-21 13:13:22.959929	2020-01-21 13:13:23.686586	132	5.70395968333333	False	n/a	n/a	n/a	n/a
S200121	Conflict_Resolution	LEFT	LEFT	829.029400000081	966.6666686	n/a	n/a	2020-01-21 13:13:24.672966	2020-01-21 13:13:25.710031	133	5.70395968333333	True	n/a	n/a	n/a	n/a
S200121	Conflict_Resolution	RIGHT	RIGHT	526.043200000004	1150.0000023	n/a	n/a	2020-01-21 13:13:26.879506	2020-01-21 13:13:27.613255	134	5.70395968333333	False	n/a	n/a	n/a	n/a
S200121	Conflict_Resolution	LEFT	LEFT	570.936200000006	666.666668	n/a	n/a	2020-01-21 13:13:28.299070	2020-01-21 13:13:29.077147	135	5.70395968333333	False	n/a	n/a	n/a	n/a
S200121	Conflict_Resolution	LEFT	LEFT	669.320500000026	1000.000002	n/a	n/a	2020-01-21 13:13:30.096784	2020-01-21 13:13:30.974083	136	5.70395968333333	True	n/a	n/a	n/a	n/a
S200121	Conflict_Resolution	LEFT	LEFT	472.674300000108	866.6666684	n/a	n/a	2020-01-21 13:13:31.860905	2020-01-21 13:13:32.541190	137	5.70395968333333	False	n/a	n/a	n/a	n/a
S200121	Conflict_Resolution	RIGHT	RIGHT	500.359700000217	1433.3333362	n/a	n/a	2020-01-21 13:13:33.993511	2020-01-21 13:13:34.701619	138	5.70395968333333	False	n/a	n/a	n/a	n/a
S200121	Conflict_Resolution	RIGHT	RIGHT	404.602300000079	1233.3333358	n/a	n/a	2020-01-21 13:13:35.953224	2020-01-21 13:13:36.565992	139	5.70395968333333	False	n/a	n/a	n/a	n/a
S200121	Conflict_Resolution	RIGHT	RIGHT	819.898700000067	850.0000017	n/a	n/a	2020-01-21 13:13:37.434302	2020-01-21 13:13:38.463063	140	5.70395968333333	True	n/a	n/a	n/a	n/a
S200121	Conflict_Resolution	LEFT	LEFT	595.768500000077	816.6666683	n/a	n/a	2020-01-21 13:13:39.297713	2020-01-21 13:13:40.100547	141	5.70395968333333	True	n/a	n/a	n/a	n/a
S200121	Conflict_Resolution	RIGHT	RIGHT	606.270600000016	983.3333353	n/a	n/a	2020-01-21 13:13:41.103538	2020-01-21 13:13:41.917948	142	5.70395968333333	True	n/a	n/a	n/a	n/a
S200121	Conflict_Resolution	RIGHT	RIGHT	493.24270000011	600.0000012	n/a	n/a	2020-01-21 13:13:42.536899	2020-01-21 13:13:43.237323	143	5.70395968333333	False	n/a	n/a	n/a	n/a
S200121	Conflict_Resolution	LEFT	LEFT	555.576400000064	1216.6666691	n/a	n/a	2020-01-21 13:13:44.473598	2020-01-21 13:13:45.238505	144	5.70395968333333	True	n/a	n/a	n/a	n/a
S200121	Conflict_Resolution	RIGHT	RIGHT	575.127099999918	950.0000019	n/a	n/a	2020-01-21 13:13:46.206054	2020-01-21 13:13:46.990953	145	5.70395968333333	True	n/a	n/a	n/a	n/a
S200121	Conflict_Resolution	RIGHT	RIGHT	396.506199999976	1183.3333357	n/a	n/a	2020-01-21 13:13:48.193068	2020-01-21 13:13:48.798615	146	5.70395968333333	False	n/a	n/a	n/a	n/a
S200121	Conflict_Resolution	RIGHT	RIGHT	685.148499999968	550.0000011	n/a	n/a	2020-01-21 13:13:49.368110	2020-01-21 13:13:50.261542	147	5.70395968333333	True	n/a	n/a	n/a	n/a
S200121	Conflict_Resolution	LEFT	RIGHT	395.427799999879	1200.0000024	n/a	n/a	2020-01-21 13:13:51.482399	2020-01-21 13:13:52.085791	148	5.70395968333333	True	n/a	n/a	n/a	n/a
S200121	Conflict_Resolution	LEFT	LEFT	508.041299999832	1016.6666687	n/a	n/a	2020-01-21 13:13:53.121818	2020-01-21 13:13:53.838902	149	5.70395968333333	False	n/a	n/a	n/a	n/a
S200121	Conflict_Resolution	RIGHT	RIGHT	600.884499999893	1433.3333362	n/a	n/a	2020-01-21 13:13:55.292818	2020-01-21 13:13:56.101400	150	5.70395968333333	True	n/a	n/a	n/a	n/a
S200121	Conflict_Resolution	LEFT	LEFT	564.259199999924	1400.0000028	n/a	n/a	2020-01-21 13:13:57.521410	2020-01-21 13:13:58.293493	151	5.70395968333333	True	n/a	n/a	n/a	n/a
S200121	Conflict_Resolution	RIGHT	RIGHT	466.905300000008	883.3333351	n/a	n/a	2020-01-21 13:13:59.195119	2020-01-21 13:13:59.869746	152	5.70395968333333	False	n/a	n/a	n/a	n/a
S200121	Conflict_Resolution	RIGHT	RIGHT	672.631600000159	1266.6666692	n/a	n/a	2020-01-21 13:14:01.157581	2020-01-21 13:14:02.038797	153	5.70395968333333	True	n/a	n/a	n/a	n/a
S200121	Conflict_Resolution	RIGHT	RIGHT	437.016299999868	1000.000002	n/a	n/a	2020-01-21 13:14:03.056966	2020-01-21 13:14:03.701239	154	5.70395968333333	False	n/a	n/a	n/a	n/a
S200121	Conflict_Resolution	RIGHT	RIGHT	661.09490000008	1000.000002	n/a	n/a	2020-01-21 13:14:04.720496	2020-01-21 13:14:05.589995	155	5.70395968333333	True	n/a	n/a	n/a	n/a
S200121	Conflict_Resolution	RIGHT	RIGHT	544.631799999934	1100.0000022	n/a	n/a	2020-01-21 13:14:06.709375	2020-01-21 13:14:07.462916	156	5.70395968333333	False	n/a	n/a	n/a	n/a
S200121	Conflict_Resolution	RIGHT	RIGHT	617.987500000027	1383.3333361	n/a	n/a	2020-01-21 13:14:08.867514	2020-01-21 13:14:09.693978	157	5.70395968333333	True	n/a	n/a	n/a	n/a
S200121	Conflict_Resolution	LEFT	LEFT	452.578899999935	966.6666686	n/a	n/a	2020-01-21 13:14:10.680848	2020-01-21 13:14:11.342074	158	5.70395968333333	False	n/a	n/a	n/a	n/a
S200121	Conflict_Resolution	RIGHT	RIGHT	615.230699999984	733.3333348	n/a	n/a	2020-01-21 13:14:12.095036	2020-01-21 13:14:12.918096	159	5.70395968333333	True	n/a	n/a	n/a	n/a
S200121	Conflict_Resolution	LEFT	LEFT	438.005700000076	1366.6666694	n/a	n/a	2020-01-21 13:14:14.304012	2020-01-21 13:14:14.949125	160	5.70395968333333	False	n/a	n/a	n/a	n/a
