index	Trial_Type	Participant_ID	Trial_Probability	Question_Position_Prediction_Correct	Question_Position_Prediction_Agent	Question_Position_Comparison_Self	Question_Position_Comparison_Irrelevant	Trial_Stake	Trial_Stake_Jitter	Trial_Type_Jitter	Trial_Result_Jitter	Balance_Update_Jitter	Question_Comparison_Condition	Question_Comparison_Type	Question_Comparison_Question	Question_Comparison_Label	Question_Comparison_Item	Question_Comparison_Proportion_Yes	Question_Factual_Condition	Question_Factual_Item	Question_Factual_Question	Question_Factual_Label	Question_Factual_Proportion_DontKnow	Question_Factual_Type	Answer_Prediction_Agent	Answer_Prediction_Agent_RT	Answer_Prediction_Correct	Answer_Prediction_Correct_RT	Answer_Irrelevant	Answer_Irrelevant_RT	Answer_Self	Answer_Self_RT	Trial_Balance	Trial_Balance_Effect	Trial_Condition	Trial_ProbableSide	Prediction_Choice	Prediction_Result	Prediction_RT	Trial_Order	Trial_Datetime
76	Self	S200205	0.6666666666666666	2	1	2	1	0.4	1283.3333359	1150.0000023	2216.6666711000003	1650.0000033	Major	Wrong_doings	3	You have sold illegal drugs	C1_30	0.05	Hard	I1_6	6	Pyramid of Giza is 468 feet tall	0.0555555555555556	Yes	RIGHT	1064.338599999985	LEFT	743.2446999999911	LEFT	4112.211299999955	LEFT	1022.803300000021	9.6	0.4	Probable_Lie	LEFT	LEFT	6	980.8155000000056	0	2020-02-05 11:46:57.964074
66	Self	S200205	0.6666666666666666	1	2	1	2	0.8	1350.0000027	1216.6666691	2500.000005	1500.000003	Major	Wrong_doings	47	You have taken part in burglary	C2_24	0.0	Hard	I2_24	40	Some owl species hunt fish	0.0555555555555556	Yes	RIGHT	679.9048000000312	LEFT	1053.39170000002	LEFT	2168.0999999999813	LEFT	1205.5596999999807	8.799999999999999	0.8	Probable_Lie	LEFT	LEFT	6	1016.7339000000196	1	2020-02-05 11:47:23.236478
8	Self	S200205	0.5	2	1	1	2	0.4	1216.6666691	1066.6666688	1933.3333372	1933.3333372	Major	Good_deeds	45	You have donated blood every 6 months for many years	C2_34	1.0	Easy	I1_10	44	There are 20 bones in the human skull	0.0	Yes	RIGHT	1507.5299999999745	LEFT	377.1839999999429	RIGHT	3655.91459999996	RIGHT	2387.67699999994	8.399999999999999	0.4	Probable_Lie	LEFT	LEFT	6	1626.1722000000418	2	2020-02-05 11:47:51.522779
100	Computer	S200205	0.5	1	2	2	1	0.2	1350.0000027	1150.0000023	2216.6666711000003	2216.6666711000003	Minor	Good_deeds	16	You have helped with household chores	C2_36	0.25	Hard	I1_42	8	Africa is the continent with the least rainfall	0.0	No	LEFT	984.7511000000396	LEFT	2458.0409000000145	LEFT	4719.0094000000045	RIGHT	1608.2048000000668	8.399999999999999	0.2	Probable_Lie	RIGHT	RIGHT	1	946.86220663004	3	2020-02-05 11:48:21.746861
51	Self	S200205	0.5	1	2	1	2	0.5	1216.6666691	1350.0000027	1650.0000033	1933.3333372	Major	Good_deeds	48	You have followed instructions	C2_47	0.2	Hard	I2_28	28	December is the last month of the year	0.0	No	RIGHT	568.9699000000701	LEFT	990.723100000082	RIGHT	807.8699000000142	RIGHT	1363.9224000000922	7.899999999999999	0.5	Probable_Lie	RIGHT	RIGHT	2	1020.8909000000403	4	2020-02-05 11:48:45.234796
101	Computer	S200205	0.5	1	2	2	1	0.1	1433.3333362	1500.000003	1933.3333372	1500.000003	Minor	Wrong_doings	57	You have claimed doing things that you never did	C2_57	0.7	Easy	I1_44	36	A dog has four legs	0.611111111111111	Yes	LEFT	568.7847000000374	LEFT	1031.70369999998	RIGHT	1094.3828000000622	LEFT	1983.6096000000225	7.899999999999999	0.1	Probable_Lie	RIGHT	LEFT	5	586.4208588812975	5	2020-02-05 11:49:09.428583
53	Self	S200205	0.5	1	2	2	1	0.1	1350.0000027	1433.3333362	1783.3333369	1650.0000033	Minor	Good_deeds	9	You have said thank you when you have received help	C1_27	0.0	Easy	I1_13	49	The Franco-Prussian War occurred in the 19th century	0.611111111111111	Yes	RIGHT	840.7201999999643	LEFT	1135.9873000000107	LEFT	2686.5309999999454	RIGHT	1214.3992999999682	7.799999999999999	0.1	Probable_Lie	RIGHT	RIGHT	3	1250.4076999999825	6	2020-02-05 11:49:35.348360
46	Self	S200205	0.8333333333333334	2	1	2	1	0.5	1150.0000023	1500.000003	2066.6666708	1650.0000033	Major	Good_deeds	22	You have bribed someone to improve a grade	C1_33	0.0	Hard	I1_35	25	It is night time now	0.166666666666667	No	RIGHT	1093.0651999999554	LEFT	663.7541000000056	LEFT	1199.2645000000266	LEFT	1798.62270000001	7.299999999999999	0.5	Probable_Lie	RIGHT	RIGHT	1	814.2422000000806	7	2020-02-05 11:49:59.860408
63	Self	S200205	0.5	2	1	2	1	0.3	1283.3333359	1216.6666691	2216.6666711000003	2500.000005	Minor	Good_deeds	50	You have stopped using products tested on animals	C1_38	0.1	Easy	I2_52	27	It takes 500 days to travel from Earth to Mars	0.722222222222222	No	RIGHT	1079.3877999999495	LEFT	384.4575000000532	RIGHT	3013.0329999999503	RIGHT	1910.7480000000123	6.999999999999999	0.3	Probable_Lie	LEFT	LEFT	6	1525.60840000001	8	2020-02-05 11:50:27.563333
90	Self	S200205	0.8333333333333334	2	1	1	2	0.1	1283.3333359	1150.0000023	1500.000003	1500.000003	Major	Good_deeds	11	You have donated a pay cheque to charity	C1_29	0.05	Easy	I2_11	11	There is typically 0.6 grams of mercury in glass thermometer	0.0	No	RIGHT	757.7764999999772	RIGHT	512.319199999979	RIGHT	2431.4404000000422	RIGHT	966.889300000048	7.099999999999999	0.1	Probable_Truth	LEFT	LEFT	1	745.3625000000557	9	2020-02-05 11:50:50.980569
59	Self	S200205	0.5	2	1	1	2	0.1	1066.6666688	1000.000002	1500.000003	1650.0000033	Major	Wrong_doings	39	You have shown your appreciation to your teachers	C1_19	0.0	Hard	I2_12	14	Vegetarians can eat vegetable products	0.111111111111111	No	RIGHT	603.2500000000027	RIGHT	327.6369000000159	RIGHT	1728.472399999987	RIGHT	982.6199999999972	7.199999999999998	0.1	Probable_Truth	RIGHT	RIGHT	4	799.3963999999778	10	2020-02-05 11:51:13.211578
29	Self	S200205	0.6666666666666666	2	1	2	1	0.2	1500.000003	1500.000003	1783.3333369	1783.3333369	Major	Wrong_doings	59	You have watched an M18 movie when you were underage	C2_46	0.45	Easy	I1_11	31	A square has 3 corners	0.0555555555555556	Yes	RIGHT	1099.0728000000445	RIGHT	438.8991999999234	LEFT	2385.694599999965	RIGHT	1110.4439999999158	7.399999999999999	0.2	Probable_Truth	RIGHT	RIGHT	4	719.556599999919	11	2020-02-05 11:51:38.108579
22	Self	S200205	0.6666666666666666	1	2	2	1	0.3	1066.6666688	1283.3333359	2066.6666708	1650.0000033	Major	Good_deeds	58	You have been donating all your excess food to a food bank	C2_60	0.85	Easy	I1_60	23	It sometimes snows in Singapore	0.0555555555555556	Yes	RIGHT	1072.6814999999306	LEFT	895.7116000000269	LEFT	999.2679000000636	RIGHT	1182.7376000001095	7.099999999999999	0.3	Probable_Lie	LEFT	LEFT	5	826.059999999984	12	2020-02-05 11:52:01.723543
105	Computer	S200205	0.5	2	1	1	2	0.5	1433.3333362	1066.6666688	2216.6666711000003	1933.3333372	Minor	Good_deeds	37	You have offered a listening ear to a friend	C2_40	0.0	Hard	I1_21	43	The hardest bone in human body is the jawbone	0.0	No	LEFT	1217.725499999915	LEFT	887.9796999999598	LEFT	3240.523199999984	RIGHT	1100.3061999999773	7.099999999999999	0.5	Probable_Lie	RIGHT	LEFT	6	852.7351654097371	13	2020-02-05 11:52:28.235417
35	Self	S200205	0.8333333333333334	1	2	1	2	0.3	1500.000003	1500.000003	2216.6666711000003	2500.000005	Major	Good_deeds	3	You have made someone cry	C1_20	0.5	Easy	I1_41	15	Summer is hotter than winter	0.0	No	RIGHT	407.4480000000449	RIGHT	905.31210000006	RIGHT	1199.32510000001	LEFT	1173.8772999999585	7.399999999999999	0.3	Probable_Truth	LEFT	LEFT	1	863.1212000000232	14	2020-02-05 11:52:53.075122
106	Computer	S200205	0.5	2	1	1	2	0.3	1350.0000027	1350.0000027	1650.0000033	1500.000003	Major	Wrong_doings	9	You have taken months off to volunteer	C2_9	0.05	Hard	I1_50	10	A caterpillar has more muscle than a human	0.722222222222222	Yes	LEFT	936.6730000000416	RIGHT	265.3318999999783	LEFT	1391.6226000000051	RIGHT	1316.6392000000542	7.399999999999999	0.3	Probable_Truth	LEFT	LEFT	2	982.9560455696892	15	2020-02-05 11:53:16.388261
96	Computer	S200205	0.5	1	2	1	2	0.3	1216.6666691	1350.0000027	2066.6666708	1650.0000033	Major	Wrong_doings	49	You have a non-judgmental attitude towards everyone	C1_23	1.0	Easy	I2_1	12	It is 20th Century now	0.722222222222222	Yes	LEFT	832.5863999999683	RIGHT	560.3611999999885	LEFT	966.903000000002	RIGHT	1926.324300000033	7.399999999999999	0.3	Probable_Truth	LEFT	RIGHT	6	908.397852506884	16	2020-02-05 11:53:40.428381
140	Computer	S200205	0.8333333333333334	2	1	2	1	0.7	1283.3333359	1433.3333362	1783.3333369	2350.0000047	Minor	Good_deeds	8	You have let a homeless man into your house	C1_17	0.0	Easy	I1_23	23	Kangaroos live in Africa	0.0	Yes	LEFT	1774.744499999997	RIGHT	1119.8124999999663	LEFT	1291.298799999936	RIGHT	814.2560000000003	7.399999999999999	0.7	Probable_Truth	RIGHT	LEFT	1	635.1166042787311	17	2020-02-05 11:54:05.484413
107	Computer	S200205	0.5	2	1	1	2	0.1	1000.000002	1150.0000023	1500.000003	2350.0000047	Major	Good_deeds	40	You have failed to keep promises	C1_45	0.0	Hard	I2_27	27	R. Amundsen discovered the South Pole	0.0	No	LEFT	964.2741999999772	LEFT	793.5572999999749	RIGHT	2647.874799999954	LEFT	1266.7885000000751	7.399999999999999	0.1	Probable_Lie	RIGHT	RIGHT	3	610.1533264769816	18	2020-02-05 11:54:30.340022
52	Self	S200205	0.5	1	2	2	1	0.2	1150.0000023	1000.000002	2350.0000047	2066.6666708	Minor	Wrong_doings	18	You have participated in a scamming business	C2_33	1.0	Hard	I1_52	13	The current century is 21st	0.888888888888889	Yes	RIGHT	304.0995000000066	RIGHT	595.3749000000244	RIGHT	3277.537000000052	LEFT	1510.1324999999406	7.599999999999999	0.2	Probable_Truth	RIGHT	LEFT	1	973.1947000000218	19	2020-02-05 11:54:56.140222
92	Self	S200205	0.8333333333333334	2	1	2	1	0.8	1433.3333362	1216.6666691	1783.3333369	2500.000005	Minor	Good_deeds	29	You have helped a friend in need	C2_53	0.65	Easy	I1_9	18	Hot chocolate was created by the Mayan culture	0.833333333333333	No	RIGHT	538.3011000000124	RIGHT	512.3987000000625	RIGHT	2564.210399999979	RIGHT	1160.0100000000566	8.399999999999999	0.8	Probable_Truth	LEFT	LEFT	1	684.513700000025	20	2020-02-05 11:55:21.109336
126	Computer	S200205	0.6666666666666666	2	1	2	1	0.5	1066.6666688	1216.6666691	1650.0000033	1783.3333369	Major	Good_deeds	60	You have been arrested	C2_26	0.0	Hard	I2_56	47	Mexico's National Day is September 16	0.944444444444444	No	LEFT	718.0722999999034	RIGHT	327.9268000000002	LEFT	1425.6948999999397	LEFT	792.2156999999288	8.399999999999999	0.5	Probable_Truth	RIGHT	RIGHT	4	597.9085215747467	21	2020-02-05 11:55:43.259068
28	Self	S200205	0.6666666666666666	2	1	2	1	0.6	1000.000002	1150.0000023	2066.6666708	1500.000003	Minor	Good_deeds	6	You have kept your promises	C2_23	0.9	Easy	I1_24	24	Penguin can fly with their wings	1.0	No	RIGHT	1119.2418000000544	LEFT	231.13839999996344	LEFT	1671.7028000000482	RIGHT	736.8523000000096	7.799999999999999	0.6	Probable_Lie	LEFT	LEFT	5	659.7093000000314	22	2020-02-05 11:56:05.964880
70	Self	S200205	0.6666666666666666	1	2	2	1	0.2	1150.0000023	1150.0000023	2216.6666711000003	1783.3333369	Minor	Good_deeds	45	You have pretended to be busy to avoid a social situation	C2_29	0.05	Easy	I1_40	26	Saturn's rings are between 30 and 300 feet thick	0.833333333333333	No	RIGHT	16.548900000088906	RIGHT	376.4912000001459	RIGHT	2490.7464000000346	LEFT	1489.0159999999923	7.999999999999999	0.2	Probable_Lie	LEFT	LEFT	3	765.3662999998687	23	2020-02-05 11:56:29.972026
116	Computer	S200205	0.6666666666666666	1	2	2	1	0.2	1216.6666691	1283.3333359	1500.000003	2066.6666708	Minor	Wrong_doings	6	You have taken responsibility for your actions	C1_7	0.1	Hard	I2_5	25	The Earth is round	0.944444444444444	Yes	LEFT	1335.0831999998718	LEFT	740.2279999998882	RIGHT	1709.8253999999995	RIGHT	1295.0371000001724	7.999999999999999	0.2	Probable_Lie	RIGHT	RIGHT	2	683.1040259965844	24	2020-02-05 11:56:54.371959
95	Self	S200205	0.8333333333333334	2	1	2	1	0.4	1500.000003	1350.0000027	2500.000005	1783.3333369	Minor	Wrong_doings	27	You have helped others to pick up their belongings	C2_11	0.05	Hard	I1_38	9	Chickens lay eggs	0.888888888888889	Yes	RIGHT	1389.2034000000422	LEFT	392.30270000007295	RIGHT	929.918300000054	RIGHT	1094.927699999971	7.599999999999999	0.4	Probable_Lie	RIGHT	RIGHT	1	792.7337000000989	25	2020-02-05 11:57:18.676186
117	Computer	S200205	0.6666666666666666	1	2	2	1	0.1	1350.0000027	1500.000003	2066.6666708	2350.0000047	Minor	Wrong_doings	7	You have signed up as a bone marrow donor	C1_5	0.0	Easy	I2_16	5	Earth's atmosphere extends up to 10,000km into space	0.888888888888889	No	LEFT	128.13389999996616	LEFT	859.6153999999387	RIGHT	2388.75280000002	RIGHT	1079.741300000023	7.599999999999999	0.1	Probable_Lie	LEFT	RIGHT	2	591.0321993055198	26	2020-02-05 11:57:43.547900
68	Self	S200205	0.6666666666666666	1	2	2	1	0.4	1500.000003	1350.0000027	1933.3333372	2500.000005	Minor	Good_deeds	12	You have risked your life to save another person's life	C1_12	0.0	Easy	I2_54	24	The first Grammy awards was held in 1959	0.0	No	LEFT	2696.4500999999927	RIGHT	1779.775700000073	RIGHT	2658.169799999996	RIGHT	966.9097999999394	7.599999999999999	0.4	Probable_Lie	RIGHT	RIGHT	2	646.7628999998851	27	2020-02-05 11:58:12.156307
110	Computer	S200205	0.5	2	1	2	1	0.8	1066.6666688	1000.000002	1783.3333369	2500.000005	Major	Wrong_doings	34	You have used heroin	C1_14	1.0	Easy	I2_26	36	Malay is one of the races in Singapore	0.611111111111111	Yes	LEFT	982.170300000007	LEFT	328.87479999999414	RIGHT	990.456600000016	LEFT	1111.4045000001624	7.599999999999999	0.8	Probable_Lie	LEFT	LEFT	4	987.833200689266	28	2020-02-05 11:58:35.470217
65	Self	S200205	0.6666666666666666	1	2	1	2	0.3	1283.3333359	1000.000002	1650.0000033	1933.3333372	Major	Wrong_doings	24	You have bribed a police officer	C1_44	0.05	Easy	I2_8	8	The Seine river is 50 feet above sea level	0.944444444444444	No	RIGHT	295.8519000001161	RIGHT	1031.8105000001196	RIGHT	1751.7776999998205	LEFT	3404.294500000105	7.899999999999999	0.3	Probable_Truth	RIGHT	RIGHT	3	766.0874999999123	29	2020-02-05 11:59:01.156242
89	Self	S200205	0.8333333333333334	2	1	1	2	0.6	1150.0000023	1500.000003	2216.6666711000003	2216.6666711000003	Major	Good_deeds	31	You have told someone's secret to others	C1_43	1.0	Easy	I1_31	42	There are 6 million animal species on Earth	0.888888888888889	Yes	RIGHT	583.7083999999777	RIGHT	279.4498000000658	RIGHT	1328.8270000000466	LEFT	2041.9272999999976	8.499999999999998	0.6	Probable_Truth	LEFT	LEFT	1	702.6870999998209	30	2020-02-05 11:59:25.748397
112	Computer	S200205	0.6666666666666666	1	2	1	2	0.5	1283.3333359	1433.3333362	1650.0000033	2216.6666711000003	Major	Good_deeds	53	You have drunk alcohol when you were underage	C2_19	0.95	Hard	I1_19	19	The hyoid bone is the only jointless bone	0.0	Yes	LEFT	288.2727999999588	LEFT	1072.6360999999542	LEFT	2790.961199999856	LEFT	1264.1729999998006	8.499999999999998	0.5	Probable_Truth	LEFT	RIGHT	4	513.4463621683319	31	2020-02-05 11:59:50.835850
16	Self	S200205	0.6666666666666666	1	2	1	2	0.2	1000.000002	1433.3333362	1500.000003	1933.3333372	Major	Good_deeds	53	You have drunk alcohol when you were underage	C2_19	0.95	Hard	I1_19	19	The hyoid bone is the only jointless bone	0.0	Yes	RIGHT	464.2355000000862	LEFT	918.1757999999718	LEFT	1030.6434000001443	LEFT	991.3428000002114	8.299999999999999	0.2	Probable_Lie	LEFT	LEFT	3	791.0305000000335	32	2020-02-05 12:00:13.468525
108	Computer	S200205	0.5	2	1	2	1	0.4	1500.000003	1283.3333359	2350.0000047	2066.6666708	Minor	Wrong_doings	28	You have done something against your values	C1_37	0.1	Hard	I2_43	26	China is a part of Asia	1.0	No	LEFT	807.7332000000297	LEFT	328.50170000006074	RIGHT	1086.614499999996	LEFT	1262.2817999999825	8.299999999999999	0.4	Probable_Lie	LEFT	RIGHT	1	819.0430015909045	33	2020-02-05 12:00:37.540742
20	Self	S200205	0.6666666666666666	1	2	2	1	0.4	1350.0000027	1000.000002	2350.0000047	2066.6666708	Minor	Wrong_doings	6	You have taken responsibility for your actions	C1_7	0.1	Hard	I2_5	25	The Earth is round	0.944444444444444	Yes	RIGHT	305.07090000014614	RIGHT	555.0862000000052	RIGHT	679.2740999999296	RIGHT	984.5608999999058	8.7	0.4	Probable_Truth	RIGHT	RIGHT	4	673.0264000000261	34	2020-02-05 12:01:00.077782
10	Self	S200205	0.5	2	1	1	2	0.1	1283.3333359	1350.0000027	2350.0000047	2216.6666711000003	Major	Wrong_doings	9	You have taken months off to volunteer	C2_9	0.05	Hard	I1_50	10	A caterpillar has more muscle than a human	0.722222222222222	Yes	RIGHT	747.5828000001457	RIGHT	311.784500000158	LEFT	1703.5117000000355	RIGHT	1296.705799999927	8.799999999999999	0.1	Probable_Truth	LEFT	RIGHT	4	1008.8556000000608	35	2020-02-05 12:01:24.917073
127	Computer	S200205	0.6666666666666666	2	1	2	1	0.7	1350.0000027	1066.6666688	1500.000003	1500.000003	Minor	Wrong_doings	46	You have been restricting your electricity consumption	C1_8	0.65	Hard	I2_31	59	Septicemia is a lung infection condition	0.722222222222222	No	LEFT	822.0009000001482	RIGHT	191.24990000000253	LEFT	1676.256500000136	RIGHT	1552.6418999997986	8.799999999999999	0.7	Probable_Truth	LEFT	LEFT	2	856.0451728059337	36	2020-02-05 12:01:47.997588
50	Self	S200205	0.5	1	2	1	2	0.7	1433.3333362	1216.6666691	2066.6666708	1500.000003	Major	Wrong_doings	14	You have lost everything just to help others	C1_9	0.9	Easy	I1_29	48	Fibers in oranges can be used to make fabric	0.0	No	RIGHT	432.0028999998158	LEFT	942.7198999999292	RIGHT	2375.647299999855	RIGHT	2197.5805000001856	8.1	0.7	Probable_Lie	RIGHT	LEFT	4	1087.0422000000417	37	2020-02-05 12:02:13.820946
85	Self	S200205	0.8333333333333334	1	2	2	1	0.5	1283.3333359	1500.000003	2066.6666708	2066.6666708	Major	Good_deeds	1	You have lied to your parents	C1_40	0.65	Hard	I2_40	35	Today is a weekday	0.0	Yes	RIGHT	1407.6351000001068	RIGHT	606.988900000033	RIGHT	1247.700800000075	LEFT	1240.440900000067	8.6	0.5	Probable_Truth	RIGHT	RIGHT	4	698.6380000000736	38	2020-02-05 12:02:38.508284
27	Self	S200205	0.6666666666666666	2	1	1	2	0.4	1216.6666691	1283.3333359	2500.000005	2500.000005	Minor	Wrong_doings	26	You have attended all lectures as a student	C2_56	0.0	Hard	I1_46	11	Teddy Roosevelt was the youngest US President	0.0555555555555556	No	RIGHT	1109.0625000001637	RIGHT	254.82679999981883	RIGHT	2846.789799999897	RIGHT	997.4465999998756	9.0	0.4	Probable_Truth	RIGHT	RIGHT	6	924.404099999947	39	2020-02-05 12:03:04.716239
84	Self	S200205	0.8333333333333334	1	2	2	1	0.7	1350.0000027	1350.0000027	2500.000005	1933.3333372	Minor	Good_deeds	13	You have said sorry when you were rude	C2_48	1.0	Easy	I2_22	46	Lehman Brothers went bankrupt on 20th September	0.833333333333333	Yes	RIGHT	256.3694000000396	RIGHT	644.9620999999297	RIGHT	3630.1711999999497	RIGHT	1240.3693999999632	9.7	0.7	Probable_Truth	RIGHT	RIGHT	5	581.2496999999439	40	2020-02-05 12:03:30.772343
113	Computer	S200205	0.6666666666666666	1	2	1	2	0.8	1150.0000023	1150.0000023	2500.000005	1783.3333369	Major	Good_deeds	19	You have cursed at others	C2_6	0.55	Easy	I1_33	33	It takes 112 years to build the Pisa Tower	0.0	No	LEFT	296.05339999989155	RIGHT	554.5941000000312	RIGHT	1223.1355000001258	LEFT	1258.1150999999409	9.7	0.8	Probable_Lie	LEFT	LEFT	3	645.1090304593761	41	2020-02-05 12:03:53.909307
47	Self	S200205	0.8333333333333334	2	1	2	1	0.6	1350.0000027	1000.000002	2216.6666711000003	2500.000005	Major	Good_deeds	33	You have watched a pirated movie	C2_42	0.55	Hard	I1_2	2	Astatine is the rarest element in the Earth's crust	0.0	Yes	RIGHT	584.9507000000358	RIGHT	161.20789999990848	RIGHT	2983.2132999999885	LEFT	1440.7097000000704	10.3	0.6	Probable_Lie	LEFT	LEFT	5	924.3526000000202	42	2020-02-05 12:04:19.637165
7	Self	S200205	0.5	1	2	2	1	0.5	1433.3333362	1000.000002	2066.6666708	1933.3333372	Major	Wrong_doings	17	You have coveted things that belong to others	C1_16	0.95	Hard	I1_8	38	Cleopatra was born in Greece	0.0	Yes	RIGHT	136.91820000008192	LEFT	877.8596999998172	LEFT	4223.162900000034	LEFT	1381.9978999999876	9.8	0.5	Probable_Lie	LEFT	LEFT	4	934.9601999999776	43	2020-02-05 12:04:46.197633
9	Self	S200205	0.5	2	1	1	2	0.6	1000.000002	1283.3333359	1783.3333369	1650.0000033	Minor	Good_deeds	37	You have offered a listening ear to a friend	C2_40	0.0	Hard	I1_21	43	The hardest bone in human body is the jawbone	0.0	No	RIGHT	2066.10969999997	RIGHT	2335.7008999998925	LEFT	1246.5976000000865	RIGHT	1406.2724000000344	10.4	0.6	Probable_Truth	LEFT	RIGHT	5	1106.7149999998946	44	2020-02-05 12:05:12.653172
71	Self	S200205	0.6666666666666666	1	2	2	1	0.5	1066.6666688	1433.3333362	1783.3333369	2216.6666711000003	Minor	Good_deeds	59	You have confessed to your mistake	C1_47	1.0	Hard	I1_26	54	Marijuana is legal in Singapore	0.777777777777778	Yes	LEFT	488.0456999999296	LEFT	2514.2166000000543	RIGHT	2384.609299999965	RIGHT	1039.158900000075	10.4	0.5	Probable_Lie	RIGHT	RIGHT	2	857.9627999999957	45	2020-02-05 12:05:39.012782
60	Self	S200205	0.5	2	1	2	1	0.4	1500.000003	1066.6666688	2500.000005	2216.6666711000003	Major	Good_deeds	19	You have held the door open for a stranger	C1_50	0.95	Hard	I1_14	57	There are 10 continents in the World	0.833333333333333	Yes	RIGHT	1485.600299999987	RIGHT	231.72810000005484	LEFT	2295.9905000000163	RIGHT	999.1590000001906	10.8	0.4	Probable_Truth	RIGHT	RIGHT	6	1808.2200999999716	46	2020-02-05 12:06:05.693557
19	Self	S200205	0.6666666666666666	1	2	1	2	0.7	1433.3333362	1216.6666691	1933.3333372	2350.0000047	Minor	Good_deeds	34	You have queued to enter the MRT train	C1_34	1.0	Easy	I1_25	41	The Eiffel Tower is in Paris	0.666666666666667	No	RIGHT	231.52920000006816	RIGHT	581.4258000000336	RIGHT	952.4082000000362	RIGHT	1370.524400000022	11.499999999999998	0.7	Probable_Lie	LEFT	LEFT	3	758.2455000001573	47	2020-02-05 12:06:29.092051
43	Self	S200205	0.8333333333333334	2	1	1	2	0.3	1066.6666688	1350.0000027	2350.0000047	2066.6666708	Major	Good_deeds	2	You have given way to the handicapped	C2_2	1.0	Easy	I1_48	33	Singapore is a country	0.888888888888889	Yes	RIGHT	1003.9202000000388	RIGHT	440.2081000000635	RIGHT	656.032100000175	RIGHT	840.088299999934	11.8	0.3	Probable_Lie	LEFT	LEFT	5	773.5373000000436	48	2020-02-05 12:08:07.957471
18	Self	S200205	0.6666666666666666	1	2	1	2	0.8	1150.0000023	1500.000003	1783.3333369	1500.000003	Major	Wrong_doings	60	You have been sued	C2_58	0.05	Hard	I2_41	16	Arabi is the oldest surviving breed of horse	0.111111111111111	Yes	RIGHT	114.10799999998744	RIGHT	393.00410000009833	LEFT	2825.0772000001234	LEFT	1213.0990000000563	12.6	0.8	Probable_Truth	RIGHT	RIGHT	4	775.4368999999315	49	2020-02-05 12:08:31.780423
136	Computer	S200205	0.8333333333333334	2	1	1	2	0.5	1433.3333362	1500.000003	1933.3333372	2066.6666708	Major	Wrong_doings	17	You have made counterfeit money	C2_31	0.0	Easy	I2_60	50	The Amazon forest covers an area of 1 billion acres	0.0	No	LEFT	877.9243999999835	RIGHT	104.37920000003942	LEFT	1806.9663000001128	LEFT	1821.630300000152	12.6	0.5	Probable_Truth	LEFT	LEFT	1	526.6989370447321	50	2020-02-05 12:08:56.430703
83	Self	S200205	0.8333333333333334	1	2	1	2	0.2	1216.6666691	1283.3333359	1783.3333369	1783.3333369	Major	Good_deeds	48	You have sorted your trash into recycling bin	C1_13	0.05	Hard	I1_28	43	Red is a color	0.666666666666667	No	LEFT	1719.265299999961	LEFT	2138.126899999861	RIGHT	1288.472099999808	RIGHT	4492.180100000041	12.6	0.2	Probable_Lie	RIGHT	RIGHT	1	650.6440999999086	51	2020-02-05 12:09:25.356899
34	Self	S200205	0.8333333333333334	1	2	1	2	0.4	1433.3333362	1000.000002	1650.0000033	1650.0000033	Minor	Good_deeds	43	You have given directions to a lost tourist	C2_10	0.0	Easy	I1_1	51	The Earth turns the closest to the sun in May	0.888888888888889	Yes	RIGHT	248.13889999995808	RIGHT	959.921500000064	LEFT	3455.319400000008	RIGHT	1542.165800000021	13.0	0.4	Probable_Lie	LEFT	LEFT	4	608.0194999999549	52	2020-02-05 12:09:50.477414
120	Computer	S200205	0.6666666666666666	2	1	1	2	0.1	1150.0000023	1150.0000023	2350.0000047	2216.6666711000003	Minor	Good_deeds	8	You have switched off appliances when not in use	C1_59	0.7	Hard	I2_2	46	The Moon orbits around the Earth	0.833333333333333	Yes	LEFT	787.6434000002064	RIGHT	32.62840000002143	RIGHT	4319.830799999863	RIGHT	1248.7157999999	13.0	0.1	Probable_Truth	LEFT	RIGHT	5	909.5977545467468	53	2020-02-05 12:10:17.221750
36	Self	S200205	0.8333333333333334	1	2	2	1	0.5	1350.0000027	1216.6666691	2500.000005	2066.6666708	Major	Good_deeds	10	You have fabricated facts about yourself	C2_43	0.95	Hard	I2_4	4	Today is Sunday	0.0	Yes	RIGHT	72.0837000001211	RIGHT	403.855300000032	LEFT	1268.9633999998478	LEFT	1408.1381000000874	13.5	0.5	Probable_Truth	RIGHT	RIGHT	2	840.8713000001171	54	2020-02-05 12:10:40.925435
141	Computer	S200205	0.8333333333333334	2	1	2	1	0.2	1350.0000027	1066.6666688	1650.0000033	1933.3333372	Minor	Wrong_doings	31	You have thrown your trash into the bin	C1_39	1.0	Hard	I2_25	35	The human's inner ear is larger than a pencil eraser	0.666666666666667	No	LEFT	723.3888000000661	RIGHT	567.9658999999901	Time_Max_Exceeded	5000.144200000023	LEFT	3534.939099999974	13.5	0.2	Probable_Truth	RIGHT	RIGHT	5	748.5437887793968	55	2020-02-05 12:11:10.070680
73	Self	S200205	0.6666666666666666	2	1	1	2	0.5	1350.0000027	1000.000002	1500.000003	2350.0000047	Minor	Wrong_doings	58	You have held the elevator doors for others	C1_46	0.65	Easy	I2_45	6	There are 9 rings in the Olympic flag	0.0	Yes	RIGHT	2949.88380000018	RIGHT	296.0574999999608	LEFT	1845.9989999998925	RIGHT	1210.6880999999703	14.0	0.5	Probable_Truth	LEFT	LEFT	2	1105.7690999998613	56	2020-02-05 12:11:36.253951
129	Computer	S200205	0.8333333333333334	1	2	1	2	0.5	1283.3333359	1000.000002	2350.0000047	1933.3333372	Minor	Wrong_doings	20	You have complimented others for good work	C1_36	0.0	Hard	I1_39	39	The first Olympic Games was held in the 5th century B.C	0.777777777777778	Yes	LEFT	208.8255000001027	LEFT	777.0524000000023	RIGHT	1783.4646000001158	RIGHT	1582.4663000000785	14.0	0.5	Probable_Lie	RIGHT	LEFT	6	870.325414490859	57	2020-02-05 12:12:00.605172
131	Computer	S200205	0.8333333333333334	1	2	1	2	0.6	1000.000002	1433.3333362	1500.000003	1650.0000033	Major	Good_deeds	3	You have made someone cry	C1_20	0.5	Easy	I1_41	15	Summer is hotter than winter	0.0	No	LEFT	240.8556000000317	LEFT	468.4386999999788	RIGHT	1208.0848000000517	LEFT	1502.9612000000725	14.0	0.6	Probable_Lie	LEFT	RIGHT	1	680.7569255437711	58	2020-02-05 12:12:22.861172
94	Self	S200205	0.8333333333333334	2	1	2	1	0.7	1350.0000027	1283.3333359	2066.6666708	2066.6666708	Minor	Wrong_doings	50	You have cheated on a test	C2_27	0.0	Hard	I2_42	3	There are 7 days in a week	0.0	Yes	RIGHT	980.4093999998712	LEFT	409.0350999999828	RIGHT	847.2177000001011	LEFT	911.9706999999836	13.3	0.7	Probable_Lie	RIGHT	RIGHT	1	1055.3489999999783	59	2020-02-05 12:12:46.405079
64	Self	S200205	0.6666666666666666	1	2	1	2	0.1	1433.3333362	1066.6666688	2350.0000047	2066.6666708	Major	Good_deeds	29	You have sign up to sponsor a needy child	C2_45	0.8	Hard	I1_37	37	Singapore is a poor country	0.0	Yes	RIGHT	295.6457999998747	LEFT	612.0062999998481	LEFT	889.2468000003646	RIGHT	1648.1361999999535	13.2	0.1	Probable_Lie	RIGHT	RIGHT	1	1220.668299999943	60	2020-02-05 12:13:10.557500
32	Self	S200205	0.8333333333333334	1	2	1	2	0.2	1000.000002	1350.0000027	2350.0000047	1933.3333372	Minor	Wrong_doings	38	You have started a hotline for victims of bully	C2_30	1.0	Easy	I2_51	53	A triangle has three sides	0.0	No	RIGHT	264.2639999999119	LEFT	594.5918000002166	RIGHT	1384.7341000000597	RIGHT	884.7850999995899	13.000000000000002	0.2	Probable_Lie	RIGHT	RIGHT	1	760.5570999999145	61	2020-02-05 12:13:33.653577
11	Self	S200205	0.5	2	1	1	2	0.8	1500.000003	1000.000002	2066.6666708	1500.000003	Major	Good_deeds	40	You have failed to keep promises	C1_45	0.0	Hard	I2_27	27	R. Amundsen discovered the South Pole	0.0	No	RIGHT	1381.722400000399	LEFT	415.4493999999431	RIGHT	1246.643800000129	LEFT	1580.7135000000017	12.2	0.8	Probable_Lie	RIGHT	RIGHT	2	916.9019999999364	62	2020-02-05 12:13:57.838670
33	Self	S200205	0.8333333333333334	1	2	1	2	0.7	1150.0000023	1066.6666688	2066.6666708	2350.0000047	Minor	Wrong_doings	20	You have complimented others for good work	C1_36	0.0	Hard	I1_39	39	The first Olympic Games was held in the 5th century B.C	0.777777777777778	Yes	RIGHT	303.62430000013774	RIGHT	414.4446000000244	RIGHT	935.6103999998596	RIGHT	1138.3617000001325	12.9	0.7	Probable_Truth	RIGHT	RIGHT	6	550.4607999996551	63	2020-02-05 12:14:20.389033
54	Self	S200205	0.5	1	2	2	1	0.8	1066.6666688	1500.000003	2500.000005	2216.6666711000003	Major	Wrong_doings	33	You have faked an illness	C2_18	0.05	Easy	I2_48	29	Algeria is Africa's second largest country	0.944444444444444	No	RIGHT	56.41800000012154	LEFT	700.887800000146	RIGHT	2120.833500000117	LEFT	1008.7488999997732	12.1	0.8	Probable_Lie	RIGHT	LEFT	4	1127.672000000075	64	2020-02-05 12:14:45.262217
130	Computer	S200205	0.8333333333333334	1	2	1	2	0.1	1350.0000027	1500.000003	1650.0000033	2500.000005	Minor	Good_deeds	43	You have given directions to a lost tourist	C2_10	0.0	Easy	I1_1	51	The Earth turns the closest to the sun in May	0.888888888888889	Yes	LEFT	71.71930000004068	RIGHT	469.364399999904	RIGHT	1623.798000000079	RIGHT	965.1682000003348	12.1	0.1	Probable_Truth	RIGHT	RIGHT	2	846.6677972861169	65	2020-02-05 12:15:08.814087
26	Self	S200205	0.6666666666666666	2	1	1	2	0.8	1350.0000027	1000.000002	2216.6666711000003	1933.3333372	Major	Good_deeds	56	You have used a fake name online	C1_60	0.85	Easy	I2_59	2	Most plants emit oxygen in the day	0.0	Yes	RIGHT	375.97169999980906	RIGHT	254.07860000041185	RIGHT	1296.835199999805	LEFT	1365.4923000003691	12.9	0.8	Probable_Truth	RIGHT	RIGHT	6	410.00769999982367	66	2020-02-05 12:15:31.589083
13	Self	S200205	0.5	2	1	2	1	0.7	1150.0000023	1500.000003	1650.0000033	2500.000005	Minor	Wrong_doings	14	You have helped your parents when asked to	C1_1	0.85	Easy	I1_36	50	French is Singapore's official language	0.0555555555555556	Yes	RIGHT	775.1421000002665	LEFT	89.44209999981467	LEFT	1293.571400000019	RIGHT	1656.6861999999674	12.2	0.7	Probable_Lie	LEFT	RIGHT	1	805.5986999997913	67	2020-02-05 12:15:55.581854
124	Computer	S200205	0.6666666666666666	2	1	2	1	0.3	1500.000003	1500.000003	1933.3333372	2350.0000047	Minor	Good_deeds	6	You have kept your promises	C2_23	0.9	Easy	I1_24	24	Penguin can fly with their wings	1.0	No	LEFT	983.996500000103	LEFT	177.2768000000724	LEFT	1371.332700000039	RIGHT	975.0496999999996	12.2	0.3	Probable_Lie	LEFT	LEFT	5	993.408197318983	68	2020-02-05 12:16:19.940921
122	Computer	S200205	0.6666666666666666	2	1	1	2	0.2	1000.000002	1283.3333359	2216.6666711000003	1650.0000033	Major	Good_deeds	56	You have used a fake name online	C1_60	0.85	Easy	I2_59	2	Most plants emit oxygen in the day	0.0	Yes	LEFT	666.6273000000729	RIGHT	95.2068000001418	RIGHT	766.9089999999414	LEFT	1071.705800000018	12.2	0.2	Probable_Truth	LEFT	LEFT	1	558.3541040077323	69	2020-02-05 12:16:41.813022
12	Self	S200205	0.5	2	1	2	1	0.5	1350.0000027	1433.3333362	2216.6666711000003	2350.0000047	Minor	Wrong_doings	28	You have done something against your values	C1_37	0.1	Hard	I2_43	26	China is a part of Asia	1.0	No	RIGHT	960.5079999996632	LEFT	62.79469999981302	RIGHT	707.1396000001187	LEFT	1168.0751999997483	11.7	0.5	Probable_Lie	RIGHT	RIGHT	3	927.1267000003718	70	2020-02-05 12:17:05.566331
91	Self	S200205	0.8333333333333334	2	1	1	2	0.5	1066.6666688	1000.000002	1933.3333372	1650.0000033	Major	Wrong_doings	43	You have rescued others from a catastrophe	C2_50	0.8	Hard	I2_18	38	It is snowing outside now	0.0	Yes	RIGHT	916.4725000000544	RIGHT	448.7132999997812	LEFT	928.4155999998802	RIGHT	4277.233899999828	12.2	0.5	Probable_Lie	LEFT	LEFT	2	637.0104999996329	71	2020-02-05 12:17:30.998256
4	Self	S200205	0.5	1	2	2	1	0.1	1066.6666688	1433.3333362	2500.000005	2216.6666711000003	Minor	Good_deeds	16	You have helped with household chores	C2_36	0.25	Hard	I1_42	8	Africa is the continent with the least rainfall	0.0	No	RIGHT	464.2162999998618	RIGHT	1534.136899999794	RIGHT	2504.475900000216	RIGHT	991.5618999998514	12.3	0.1	Probable_Truth	RIGHT	LEFT	1	980.1907999999456	72	2020-02-05 12:17:57.262208
87	Self	S200205	0.8333333333333334	1	2	2	1	0.1	1433.3333362	1150.0000023	1650.0000033	1500.000003	Major	Wrong_doings	7	You have stolen something	C2_52	0.45	Hard	I2_46	22	North Korea is more developed than South Korea	0.666666666666667	Yes	RIGHT	167.94470000013462	RIGHT	455.2035000001524	LEFT	1100.271899999825	LEFT	1032.107200000155	12.4	0.1	Probable_Truth	LEFT	LEFT	1	752.864199999749	73	2020-02-05 12:18:19.078418
103	Computer	S200205	0.5	1	2	2	1	0.6	1000.000002	1000.000002	1500.000003	2500.000005	Major	Wrong_doings	17	You have coveted things that belong to others	C1_16	0.95	Hard	I1_8	38	Cleopatra was born in Greece	0.0	Yes	LEFT	127.74790000003122	LEFT	347.21059999992576	LEFT	1773.5859999997956	LEFT	2344.0310999999383	12.4	0.6	Probable_Lie	LEFT	LEFT	5	509.08142509294174	74	2020-02-05 12:18:42.759209
3	Self	S200205	0.5	1	2	1	2	0.7	1283.3333359	1350.0000027	1650.0000033	1650.0000033	Major	Good_deeds	57	You have engaged in money laundering	C1_57	0.05	Easy	I1_12	42	Slavery was abolished in Cuba in 1886	0.0	No	RIGHT	1049.054999999953	LEFT	910.8993999998348	RIGHT	1656.3715000002048	LEFT	1167.6588000000263	11.7	0.7	Probable_Lie	LEFT	RIGHT	2	715.707299999849	75	2020-02-05 12:19:06.765956
93	Self	S200205	0.8333333333333334	2	1	2	1	0.3	1000.000002	1066.6666688	1650.0000033	1933.3333372	Minor	Good_deeds	53	You have organized a violent protest	C1_24	0.2	Hard	I2_13	31	Polish is 20th most spoken language in the World	0.0	No	RIGHT	863.9091999998527	RIGHT	88.19690000018454	RIGHT	1897.0334999999068	LEFT	831.3574000003427	12.000000000000002	0.3	Probable_Truth	RIGHT	RIGHT	4	454.5333999999457	76	2020-02-05 12:19:29.125182
99	Computer	S200205	0.5	1	2	1	2	0.5	1500.000003	1066.6666688	2350.0000047	1783.3333369	Major	Good_deeds	57	You have engaged in money laundering	C1_57	0.05	Easy	I1_12	42	Slavery was abolished in Cuba in 1886	0.0	No	LEFT	143.90640000010535	RIGHT	546.9014000000243	RIGHT	935.4209000002812	LEFT	3034.598499999902	12.000000000000002	0.5	Probable_Truth	LEFT	LEFT	1	574.8583439515169	77	2020-02-05 12:19:53.622061
30	Self	S200205	0.6666666666666666	2	1	2	1	0.7	1150.0000023	1350.0000027	2350.0000047	2216.6666711000003	Major	Good_deeds	60	You have been arrested	C2_26	0.0	Hard	I2_56	47	Mexico's National Day is September 16	0.944444444444444	No	RIGHT	299.7866000000613	RIGHT	193.10109999969427	RIGHT	1615.2054999997745	LEFT	728.0185999998139	12.7	0.7	Probable_Lie	LEFT	LEFT	4	716.4928000001964	78	2020-02-05 12:20:16.814199
128	Computer	S200205	0.8333333333333334	1	2	1	2	0.4	1500.000003	1283.3333359	1783.3333369	2066.6666708	Minor	Wrong_doings	38	You have started a hotline for victims of bully	C2_30	1.0	Easy	I2_51	53	A triangle has three sides	0.0	No	LEFT	112.84620000014912	LEFT	399.638700000196	RIGHT	649.0288999998484	RIGHT	1006.761600000118	12.7	0.4	Probable_Lie	RIGHT	LEFT	4	561.3748258837448	79	2020-02-05 12:20:38.750326
133	Computer	S200205	0.8333333333333334	1	2	2	1	0.3	1216.6666691	1150.0000023	1933.3333372	2216.6666711000003	Minor	Wrong_doings	51	You have illegally stayed in a country	C1_51	0.0	Hard	I1_15	3	Nanyang Technological University is in Australia	0.833333333333333	No	LEFT	137.12149999992107	RIGHT	447.3904999999832	LEFT	1205.8587000001353	LEFT	976.8050000002404	12.7	0.3	Probable_Truth	RIGHT	RIGHT	4	654.681931734152	80	2020-02-05 12:21:01.262468
45	Self	S200205	0.8333333333333334	2	1	2	1	0.1	1000.000002	1150.0000023	2500.000005	2216.6666711000003	Minor	Wrong_doings	31	You have thrown your trash into the bin	C1_39	1.0	Hard	I2_25	35	The human's inner ear is larger than a pencil eraser	0.666666666666667	No	RIGHT	628.6767999999938	RIGHT	192.36200000023015	LEFT	1489.185500000076	RIGHT	975.9809999995924	12.8	0.1	Probable_Truth	LEFT	LEFT	1	497.0794000000751	81	2020-02-05 12:21:24.486572
39	Self	S200205	0.8333333333333334	1	2	2	1	0.8	1283.3333359	1433.3333362	1933.3333372	1783.3333369	Major	Good_deeds	36	You have started a movement to support a cause	C2_38	0.95	Hard	I2_3	1	Mozambique is the world's poorest country	0.0	No	RIGHT	120.05599999974947	RIGHT	292.054300000018	RIGHT	1659.3447999998716	RIGHT	897.1919000000526	13.6	0.8	Probable_Truth	RIGHT	RIGHT	3	716.732200000024	82	2020-02-05 12:21:47.173095
123	Computer	S200205	0.6666666666666666	2	1	1	2	0.4	1433.3333362	1350.0000027	2500.000005	2500.000005	Minor	Wrong_doings	26	You have attended all lectures as a student	C2_56	0.0	Hard	I1_46	11	Teddy Roosevelt was the youngest US President	0.0555555555555556	No	LEFT	1375.2537999998822	RIGHT	496.0595999996258	RIGHT	967.8029000001516	RIGHT	1006.069899999602	13.6	0.4	Probable_Truth	LEFT	LEFT	1	730.4979159720507	83	2020-02-05 12:22:12.101269
109	Computer	S200205	0.5	2	1	2	1	0.6	1216.6666691	1216.6666691	1933.3333372	1783.3333369	Minor	Wrong_doings	14	You have helped your parents when asked to	C1_1	0.85	Easy	I1_36	50	French is Singapore's official language	0.0555555555555556	Yes	LEFT	1342.9191999998693	RIGHT	113.57719999978144	LEFT	1026.628300000084	RIGHT	656.5369999998438	13.6	0.6	Probable_Truth	LEFT	RIGHT	4	828.2306420912944	84	2020-02-05 12:22:34.788936
37	Self	S200205	0.8333333333333334	1	2	2	1	0.6	1216.6666691	1283.3333359	1500.000003	1500.000003	Minor	Wrong_doings	51	You have illegally stayed in a country	C1_51	0.0	Hard	I1_15	3	Nanyang Technological University is in Australia	0.833333333333333	No	RIGHT	120.29930000016977	RIGHT	318.45290000001114	LEFT	1012.6691999998912	LEFT	951.7719999998916	14.2	0.6	Probable_Lie	LEFT	LEFT	3	802.514500000143	85	2020-02-05 12:22:56.070461
15	Self	S200205	0.5	2	1	2	1	0.3	1433.3333362	1216.6666691	2500.000005	2066.6666708	Minor	Good_deeds	1	You have assisted in a crime	C2_28	0.9	Easy	I2_44	21	Last day of the year is 30th December	0.764705882352941	No	RIGHT	899.4187000002967	RIGHT	112.94829999997091	LEFT	2246.4473	LEFT	1441.1619000002247	14.500000000000002	0.3	Probable_Truth	RIGHT	LEFT	2	909.90469999997	86	2020-02-05 12:23:21.469369
115	Computer	S200205	0.6666666666666666	1	2	1	2	0.3	1500.000003	1066.6666688	1933.3333372	2500.000005	Minor	Good_deeds	34	You have queued to enter the MRT train	C1_34	1.0	Easy	I1_25	41	The Eiffel Tower is in Paris	0.666666666666667	No	LEFT	110.92409999992014	LEFT	735.5397999999695	RIGHT	694.95599999982	RIGHT	982.0936000000984	14.500000000000002	0.3	Probable_Lie	LEFT	LEFT	6	926.549523092824	87	2020-02-05 12:23:44.493873
21	Self	S200205	0.6666666666666666	1	2	2	1	0.6	1283.3333359	1150.0000023	1650.0000033	1783.3333369	Minor	Wrong_doings	7	You have signed up as a bone marrow donor	C1_5	0.0	Easy	I2_16	5	Earth's atmosphere extends up to 10,000km into space	0.888888888888889	No	RIGHT	103.93669999984922	LEFT	679.0993999998136	RIGHT	3275.7778000000144	RIGHT	687.8677999998217	13.900000000000002	0.6	Probable_Lie	RIGHT	RIGHT	1	744.957500000055	88	2020-02-05 12:24:08.422415
55	Self	S200205	0.5	1	2	2	1	0.3	1000.000002	1066.6666688	1933.3333372	2350.0000047	Major	Good_deeds	47	You have engaged in underage smoking	C1_42	0.7	Hard	I1_54	54	February has 30 days	0.0	Yes	RIGHT	88.67849999978716	LEFT	773.6297999999806	LEFT	1609.7867999997106	RIGHT	927.7772999998888	13.6	0.3	Probable_Lie	RIGHT	LEFT	6	941.8015999999624	89	2020-02-05 12:24:31.685369
40	Self	S200205	0.8333333333333334	2	1	1	2	0.2	1216.6666691	1216.6666691	1500.000003	1500.000003	Major	Wrong_doings	17	You have made counterfeit money	C2_31	0.0	Easy	I2_60	50	The Amazon forest covers an area of 1 billion acres	0.0	No	RIGHT	461.64820000012696	RIGHT	95.94349999997576	RIGHT	1025.06110000013	LEFT	1069.7731999998723	13.8	0.2	Probable_Truth	LEFT	LEFT	1	622.656200000165	90	2020-02-05 12:24:52.967015
31	Self	S200205	0.6666666666666666	2	1	2	1	0.5	1283.3333359	1066.6666688	1933.3333372	2350.0000047	Minor	Wrong_doings	46	You have been restricting your electricity consumption	C1_8	0.65	Hard	I2_31	59	Septicemia is a lung infection condition	0.722222222222222	No	RIGHT	796.4762999999948	LEFT	24.7309999999743	LEFT	1396.0260000003473	RIGHT	920.0442999999724	13.3	0.5	Probable_Lie	RIGHT	RIGHT	1	688.4418999998161	91	2020-02-05 12:25:15.998372
42	Self	S200205	0.8333333333333334	2	1	1	2	0.8	1500.000003	1433.3333362	1933.3333372	2350.0000047	Minor	Wrong_doings	42	You have volunteered every week for many years	C1_22	1.0	Easy	I2_50	60	Carnivore refers to meat-eater	0.777777777777778	Yes	RIGHT	1044.8921000001974	RIGHT	264.82880000003206	RIGHT	1088.3529000002454	RIGHT	1074.309600000106	14.1	0.8	Probable_Truth	RIGHT	RIGHT	4	634.5272999997178	92	2020-02-05 12:25:39.894732
62	Self	S200205	0.5	2	1	2	1	0.5	1350.0000027	1150.0000023	2350.0000047	1500.000003	Minor	Wrong_doings	13	You have sheltered others from disasters	C2_13	0.15	Easy	I1_27	17	Obama is the USA president now	0.944444444444444	Yes	RIGHT	1723.2960999999705	RIGHT	439.9305000001732	LEFT	1485.5698999999731	RIGHT	935.6798999997408	14.6	0.5	Probable_Truth	LEFT	LEFT	3	1101.6967000000477	93	2020-02-05 12:26:04.502268
77	Self	S200205	0.6666666666666666	2	1	2	1	0.7	1500.000003	1500.000003	2066.6666708	2066.6666708	Minor	Wrong_doings	54	You have intentionally let others cut in line	C1_11	0.85	Easy	I1_45	45	Singapore has four seasons	0.0555555555555556	No	RIGHT	1582.6558000003388	LEFT	152.45129999993878	LEFT	1504.123400000026	RIGHT	1624.3257000000997	13.900000000000002	0.7	Probable_Lie	LEFT	LEFT	6	968.2541000001949	94	2020-02-05 12:26:30.039762
75	Self	S200205	0.6666666666666666	2	1	1	2	0.8	1066.6666688	1066.6666688	1933.3333372	1500.000003	Minor	Wrong_doings	46	You have started an NGO using your savings	C1_58	0.7	Easy	I1_58	55	Mageirocophobia is a fear of deathly disease	1.0	No	RIGHT	379.5873999997639	RIGHT	88.4860999999546	RIGHT	2775.2370000002884	RIGHT	1166.7084000000614	14.700000000000005	0.8	Probable_Truth	LEFT	LEFT	1	663.5409999998956	95	2020-02-05 12:26:53.254526
5	Self	S200205	0.5	1	2	2	1	0.4	1500.000003	1500.000003	1783.3333369	2066.6666708	Minor	Wrong_doings	57	You have claimed doing things that you never did	C2_57	0.7	Easy	I1_44	36	A dog has four legs	0.611111111111111	Yes	RIGHT	200.3808999998	LEFT	1033.5783000000447	RIGHT	830.1314000000275	LEFT	2734.8893999997017	14.300000000000002	0.4	Probable_Lie	RIGHT	RIGHT	3	1094.2199999999502	96	2020-02-05 12:28:23.134568
82	Self	S200205	0.8333333333333334	1	2	1	2	0.6	1066.6666688	1433.3333362	1500.000003	2500.000005	Minor	Good_deeds	4	You have been physically hurt to protect others	C2_1	0.05	Easy	I2_35	28	Singapore is in Africa	0.0555555555555556	No	RIGHT	64.02750000006563	RIGHT	398.37130000023535	LEFT	815.358699999706	RIGHT	1805.2499999998872	14.900000000000002	0.6	Probable_Lie	LEFT	LEFT	5	604.8030000001745	97	2020-02-05 12:28:45.894020
25	Self	S200205	0.6666666666666666	2	1	1	2	0.3	1433.3333362	1216.6666691	1500.000003	1650.0000033	Major	Wrong_doings	23	You have bought cocaine	C1_6	0.2	Easy	I1_47	56	Acoustic Kitty refers to cat with implants	0.0555555555555556	Yes	RIGHT	1142.250899999908	RIGHT	119.7849000000133	LEFT	3159.240800000134	LEFT	2080.6385999999293	15.200000000000005	0.3	Probable_Truth	RIGHT	RIGHT	4	676.2951000000612	98	2020-02-05 12:29:11.446246
114	Computer	S200205	0.6666666666666666	1	2	1	2	0.6	1066.6666688	1216.6666691	2216.6666711000003	1500.000003	Major	Wrong_doings	60	You have been sued	C2_58	0.05	Hard	I2_41	16	Arabi is the oldest surviving breed of horse	0.111111111111111	Yes	LEFT	528.6157000000458	RIGHT	1043.4668000002605	LEFT	1752.96040000012	LEFT	1317.711600000166	15.200000000000005	0.6	Probable_Truth	RIGHT	LEFT	1	840.9847080729382	99	2020-02-05 12:29:35.495042
80	Self	S200205	0.8333333333333334	1	2	1	2	0.3	1150.0000023	1066.6666688	2216.6666711000003	2216.6666711000003	Major	Wrong_doings	52	You have adopted a zero-waste lifestyle	C1_4	0.85	Easy	I1_4	32	Milwaukee Art Museum is located in California	0.888888888888889	No	RIGHT	159.7311999998965	RIGHT	592.6807999999255	LEFT	1975.5904000003284	RIGHT	1814.8717999997643	15.500000000000004	0.3	Probable_Truth	RIGHT	RIGHT	5	685.1132000001598	100	2020-02-05 12:29:59.950408
135	Computer	S200205	0.8333333333333334	1	2	2	1	0.8	1433.3333362	1066.6666688	2500.000005	1500.000003	Major	Good_deeds	36	You have started a movement to support a cause	C2_38	0.95	Hard	I2_3	1	Mozambique is the world's poorest country	0.0	No	LEFT	96.70839999989768	LEFT	1085.419400000319	RIGHT	1557.4126999999862	RIGHT	1112.2221000000536	15.500000000000004	0.8	Probable_Lie	LEFT	RIGHT	1	934.5311781176904	101	2020-02-05 12:30:23.807127
1	Self	S200205	0.5	1	2	1	2	0.8	1000.000002	1150.0000023	2216.6666711000003	1783.3333369	Minor	Wrong_doings	20	You have given up your seat in the MRT	C2_20	0.0	Hard	I2_36	44	There are 30 hours in a day	0.888888888888889	No	RIGHT	215.77750000005835	LEFT	809.052999999949	LEFT	824.3545000000267	RIGHT	2067.1033999997235	14.700000000000005	0.8	Probable_Lie	RIGHT	RIGHT	3	809.0268000000833	102	2020-02-05 12:30:47.254194
6	Self	S200205	0.5	1	2	2	1	0.2	1350.0000027	1066.6666688	1933.3333372	1500.000003	Major	Good_deeds	23	You have engaged in drink-driving	C1_49	0.55	Hard	I2_38	1	"Statue of Liberty is 151 feet tall"	1.0	No	RIGHT	17.727299999933166	RIGHT	340.5413000000408	RIGHT	2411.610699999983	LEFT	1033.1719999999225	14.900000000000002	0.2	Probable_Truth	LEFT	LEFT	1	878.4630000000107	103	2020-02-05 12:31:10.358516
137	Computer	S200205	0.8333333333333334	2	1	1	2	0.4	1500.000003	1350.0000027	1500.000003	1500.000003	Minor	Wrong_doings	39	You have gossiped about your best friend	C2_8	0.15	Hard	I2_33	48	South East Asia is currently free from polio	0.777777777777778	No	LEFT	954.7978999999032	LEFT	528.6166999999296	RIGHT	4382.04850000011	RIGHT	1917.596799999956	14.900000000000002	0.4	Probable_Lie	LEFT	RIGHT	1	891.958450183123	104	2020-02-05 12:31:37.447461
58	Self	S200205	0.5	2	1	1	2	0.8	1000.000002	1350.0000027	1650.0000033	1783.3333369	Major	Wrong_doings	38	You have kidnapped someone	C2_25	0.85	Hard	I2_17	52	Nomophobia is the fear of being without a phone or computer	0.888888888888889	No	RIGHT	967.1525000003384	LEFT	40.25550000005751	Time_Max_Exceeded	5000.271899999916	LEFT	1074.1272000000208	14.1	0.8	Probable_Lie	LEFT	LEFT	4	1087.442099999862	105	2020-02-05 12:32:03.974951
98	Computer	S200205	0.5	1	2	1	2	0.4	1283.3333359	1216.6666691	1783.3333369	1933.3333372	Minor	Good_deeds	36	You have stopped using plastics completely	C2_17	0.0	Easy	I2_58	58	Beef comes from cows	0.0	Yes	LEFT	793.0688999999802	RIGHT	1818.0161000000223	RIGHT	1039.236999999957	RIGHT	1100.6366000001435	14.1	0.4	Probable_Truth	LEFT	LEFT	1	518.1697461482739	106	2020-02-05 12:32:28.030324
56	Self	S200205	0.5	2	1	1	2	0.7	1433.3333362	1433.3333362	1783.3333369	2350.0000047	Major	Good_deeds	25	You have violated a traffic law	C2_37	0.75	Easy	I1_57	39	Beer is an alcoholic drink	0.0	Yes	RIGHT	713.944999999967	LEFT	151.81710000024395	RIGHT	1127.2908000000823	LEFT	1097.9384000002028	13.400000000000002	0.7	Probable_Lie	RIGHT	RIGHT	2	789.6696000002521	107	2020-02-05 12:32:51.487439
142	Computer	S200205	0.8333333333333334	2	1	2	1	0.8	1216.6666691	1150.0000023	2500.000005	2216.6666711000003	Major	Good_deeds	22	You have bribed someone to improve a grade	C1_33	0.0	Hard	I1_35	25	It is night time now	0.166666666666667	No	LEFT	947.1924000004036	RIGHT	199.23659999994925	LEFT	1210.64430000024	LEFT	1903.8134999996144	13.400000000000002	0.8	Probable_Truth	RIGHT	LEFT	1	519.8221367772953	108	2020-02-05 12:33:15.919029
125	Computer	S200205	0.6666666666666666	2	1	2	1	0.8	1216.6666691	1000.000002	1783.3333369	1933.3333372	Major	Wrong_doings	59	You have watched an M18 movie when you were underage	C2_46	0.45	Easy	I1_11	31	A square has 3 corners	0.0555555555555556	Yes	LEFT	425.1270999998269	LEFT	96.3341000001492	LEFT	1589.3324999997276	LEFT	983.5946000002878	13.400000000000002	0.8	Probable_Lie	RIGHT	RIGHT	1	764.8338620458712	109	2020-02-05 12:33:38.287296
121	Computer	S200205	0.6666666666666666	2	1	1	2	0.6	1283.3333359	1433.3333362	2066.6666708	2066.6666708	Major	Wrong_doings	23	You have bought cocaine	C1_6	0.2	Easy	I1_47	56	Acoustic Kitty refers to cat with implants	0.0555555555555556	Yes	LEFT	2354.342999999972	LEFT	96.60260000009656	LEFT	783.7463999999272	LEFT	1303.372699999727	13.400000000000002	0.6	Probable_Lie	LEFT	LEFT	4	926.773624414897	110	2020-02-05 12:34:03.175345
138	Computer	S200205	0.8333333333333334	2	1	1	2	0.3	1000.000002	1216.6666691	2216.6666711000003	2500.000005	Minor	Wrong_doings	42	You have volunteered every week for many years	C1_22	1.0	Easy	I2_50	60	Carnivore refers to meat-eater	0.777777777777778	Yes	LEFT	786.6980999997395	RIGHT	183.3403000000544	RIGHT	865.3604999999516	RIGHT	965.8700999998472	13.400000000000002	0.3	Probable_Truth	RIGHT	RIGHT	4	539.6420041572497	111	2020-02-05 12:34:26.015650
139	Computer	S200205	0.8333333333333334	2	1	1	2	0.6	1066.6666688	1000.000002	2350.0000047	1783.3333369	Major	Good_deeds	2	You have given way to the handicapped	C2_2	1.0	Easy	I1_48	33	Singapore is a country	0.888888888888889	Yes	RIGHT	3916.0095000002	RIGHT	137.3436999997466	RIGHT	607.6947000001383	RIGHT	741.5234000000055	14.000000000000002	0.6	Probable_Truth	RIGHT	RIGHT	6	727.2569062685275	112	2020-02-05 12:34:50.919274
97	Computer	S200205	0.5	1	2	1	2	0.8	1066.6666688	1433.3333362	2500.000005	2350.0000047	Minor	Wrong_doings	20	You have given up your seat in the MRT	C2_20	0.0	Hard	I2_36	44	There are 30 hours in a day	0.888888888888889	No	LEFT	81.03319999963787	LEFT	378.1825999999455	LEFT	705.6232999998429	RIGHT	1019.0207000000556	14.000000000000002	0.8	Probable_Lie	RIGHT	RIGHT	1	780.219441191244	113	2020-02-05 12:35:13.809325
132	Computer	S200205	0.8333333333333334	1	2	2	1	0.2	1150.0000023	1216.6666691	2216.6666711000003	1783.3333369	Major	Good_deeds	10	You have fabricated facts about yourself	C2_43	0.95	Hard	I2_4	4	Today is Sunday	0.0	Yes	LEFT	375.3867999998874	RIGHT	809.6199999999953	LEFT	1194.0377999999328	LEFT	1016.913299999942	14.000000000000002	0.2	Probable_Lie	LEFT	LEFT	4	545.8087896329286	114	2020-02-05 12:35:36.695277
111	Computer	S200205	0.5	2	1	2	1	0.2	1283.3333359	1500.000003	2066.6666708	2216.6666711000003	Minor	Good_deeds	1	You have assisted in a crime	C2_28	0.9	Easy	I2_44	21	Last day of the year is 30th December	0.764705882352941	No	LEFT	652.446399999917	RIGHT	95.04750000041896	LEFT	888.291400000071	LEFT	767.7985000000263	14.000000000000002	0.2	Probable_Truth	LEFT	RIGHT	4	582.0882804790114	115	2020-02-05 12:35:59.319590
61	Self	S200205	0.5	2	1	2	1	0.2	1150.0000023	1283.3333359	1933.3333372	2066.6666708	Minor	Good_deeds	15	You have eaten something in the MRT train	C1_15	1.0	Easy	I2_39	12	Dutch is the 6th Europe's most widely spoken language	0.0	Yes	RIGHT	1003.7861999999222	LEFT	520.4221999997571	RIGHT	2103.200200000174	LEFT	2670.9697000001142	13.800000000000002	0.2	Probable_Lie	LEFT	LEFT	5	1741.331100000025	116	2020-02-05 12:36:26.367248
48	Self	S200205	0.5	1	2	1	2	0.4	1500.000003	1150.0000023	2216.6666711000003	2500.000005	Minor	Good_deeds	27	You have downloaded pirated movies	C2_14	0.95	Hard	I2_49	52	Christmas Day is in March	0.0	Yes	RIGHT	64.53170000031605	LEFT	1319.2166000003454	LEFT	1127.228599999853	LEFT	1181.6279999998187	13.400000000000002	0.4	Probable_Lie	LEFT	LEFT	4	955.3946999999424	117	2020-02-05 12:36:50.959702
104	Computer	S200205	0.5	2	1	1	2	0.7	1150.0000023	1433.3333362	2500.000005	1650.0000033	Major	Good_deeds	45	You have donated blood every 6 months for many years	C2_34	1.0	Easy	I1_10	44	There are 20 bones in the human skull	0.0	Yes	LEFT	519.3401999999878	LEFT	112.55549999987124	LEFT	1367.594299999837	RIGHT	1135.8893999999964	13.400000000000002	0.7	Probable_Lie	RIGHT	LEFT	5	806.4012926510347	118	2020-02-05 12:37:14.199247
102	Computer	S200205	0.5	1	2	2	1	0.7	1150.0000023	1283.3333359	1650.0000033	2066.6666708	Major	Good_deeds	23	You have engaged in drink-driving	C1_49	0.55	Hard	I2_38	1	"Statue of Liberty is 151 feet tall"	1.0	No	LEFT	192.13970000009795	RIGHT	613.2082999997692	RIGHT	1429.7511999998278	LEFT	775.7364999997662	13.400000000000002	0.7	Probable_Truth	LEFT	RIGHT	6	522.6382270454894	119	2020-02-05 12:37:36.447111
118	Computer	S200205	0.6666666666666666	1	2	2	1	0.7	1000.000002	1000.000002	1783.3333369	1933.3333372	Major	Good_deeds	58	You have been donating all your excess food to a food bank	C2_60	0.85	Easy	I1_60	23	It sometimes snows in Singapore	0.0555555555555556	Yes	RIGHT	297.1783000002688	RIGHT	831.7249000001539	LEFT	917.5728000000164	RIGHT	775.2305999997589	14.1	0.7	Probable_Truth	LEFT	LEFT	2	936.2773478470738	120	2020-02-05 12:37:58.487361
81	Self	S200205	0.8333333333333334	1	2	1	2	0.8	1500.000003	1216.6666691	1933.3333372	2350.0000047	Minor	Wrong_doings	35	You have been convicted in court	C1_35	0.0	Hard	I1_32	40	Bears have the biggest eyes among mammals	0.0	Yes	RIGHT	208.1269000000248	LEFT	1173.2825999997658	RIGHT	2271.4662000003045	LEFT	1005.2200999998604	13.3	0.8	Probable_Lie	RIGHT	RIGHT	1	749.37540000019	121	2020-02-05 12:38:23.470618
86	Self	S200205	0.8333333333333334	1	2	2	1	0.4	1000.000002	1000.000002	2350.0000047	1650.0000033	Minor	Wrong_doings	40	You have extorted money from anyone	C2_7	0.95	Easy	I1_43	4	Singapore ranked 8th in World's smallest countries	0.0	No	RIGHT	136.91889999972773	RIGHT	523.5436999996637	LEFT	3508.207500000026	LEFT	1848.048899999867	13.7	0.4	Probable_Truth	RIGHT	RIGHT	2	2175.947400000041	122	2020-02-05 12:38:50.239216
17	Self	S200205	0.6666666666666666	1	2	1	2	0.5	1500.000003	1066.6666688	2500.000005	2216.6666711000003	Major	Good_deeds	19	You have cursed at others	C2_6	0.55	Easy	I1_33	33	It takes 112 years to build the Pisa Tower	0.0	No	RIGHT	416.2843999997676	RIGHT	285.49100000009275	RIGHT	1126.8964000000778	LEFT	1737.499400000161	14.2	0.5	Probable_Lie	LEFT	LEFT	3	535.8934000000772	123	2020-02-05 12:39:14.200540
67	Self	S200205	0.6666666666666666	1	2	1	2	0.7	1000.000002	1283.3333359	1500.000003	1650.0000033	Major	Wrong_doings	28	You have borrowed things and never returned	C1_28	0.95	Easy	I1_17	34	Animals are living things	0.944444444444444	Yes	RIGHT	120.06930000006832	RIGHT	300.96459999958824	RIGHT	864.027999999962	LEFT	1176.9788000001429	14.9	0.7	Probable_Truth	RIGHT	RIGHT	6	627.2250000001804	124	2020-02-05 12:39:35.295176
79	Self	S200205	0.6666666666666666	2	1	2	1	0.3	1150.0000023	1350.0000027	1650.0000033	2500.000005	Major	Good_deeds	30	You have cursed at your loved ones	C2_54	0.0	Hard	I2_21	58	Feijoa is a type of grape	0.944444444444444	Yes	RIGHT	335.41839999998047	RIGHT	264.6620999998959	LEFT	2431.051200000184	LEFT	838.6330000003	15.2	0.3	Probable_Truth	LEFT	LEFT	1	522.063899999921	125	2020-02-05 12:39:58.910806
24	Self	S200205	0.6666666666666666	2	1	1	2	0.1	1066.6666688	1433.3333362	1650.0000033	2066.6666708	Minor	Good_deeds	8	You have switched off appliances when not in use	C1_59	0.7	Hard	I2_2	46	The Moon orbits around the Earth	0.833333333333333	Yes	RIGHT	270.97460000004503	RIGHT	71.54709999986153	RIGHT	832.4848999995993	RIGHT	1032.028000000082	15.3	0.1	Probable_Lie	LEFT	LEFT	3	692.6054000000477	126	2020-02-05 12:40:20.599606
78	Self	S200205	0.6666666666666666	2	1	2	1	0.2	1433.3333362	1216.6666691	2350.0000047	1933.3333372	Major	Good_deeds	16	You have blackmailed others for money	C2_16	0.0	Hard	I2_6	5	Brazil is in South America	0.777777777777778	No	RIGHT	475.7190000000264	RIGHT	359.23449999972945	RIGHT	1509.7157000000152	LEFT	951.8047999999908	15.5	0.2	Probable_Truth	RIGHT	RIGHT	3	484.1562999999951	127	2020-02-05 12:40:43.888782
72	Self	S200205	0.6666666666666666	2	1	1	2	0.1	1000.000002	1433.3333362	1783.3333369	2216.6666711000003	Minor	Good_deeds	11	You have volunteered for a disaster-related humanitarian mission	C2_3	0.95	Hard	I2_55	21	Statute of Liberty is in New York	0.0	Yes	RIGHT	1057.4225999998816	RIGHT	600.9009999997943	RIGHT	1008.1113000001096	RIGHT	1158.7847000000693	15.6	0.1	Probable_Truth	LEFT	LEFT	1	682.7935000001162	128	2020-02-05 12:41:07.407695
14	Self	S200205	0.5	2	1	2	1	0.2	1066.6666688	1150.0000023	1500.000003	1783.3333369	Major	Wrong_doings	34	You have used heroin	C1_14	1.0	Easy	I2_26	36	Malay is one of the races in Singapore	0.611111111111111	Yes	RIGHT	670.2546999999868	RIGHT	416.60000000001673	RIGHT	817.9472000001624	LEFT	921.246500000052	15.8	0.2	Probable_Truth	RIGHT	RIGHT	5	765.6520000000455	129	2020-02-05 12:41:29.072453
119	Computer	S200205	0.6666666666666666	1	2	2	1	0.4	1433.3333362	1350.0000027	2350.0000047	1650.0000033	Minor	Wrong_doings	5	You have cheated on a national exam	C1_53	0.0	Hard	I2_23	60	Cheese is an Asian staple	1.0	No	LEFT	135.97170000002734	LEFT	328.1323000001066	LEFT	1375.135499999942	LEFT	1104.2726999999104	15.8	0.4	Probable_Lie	LEFT	RIGHT	2	718.2248774631402	130	2020-02-05 12:41:52.087164
49	Self	S200205	0.5	1	2	1	2	0.6	1283.3333359	1283.3333359	1500.000003	1783.3333369	Minor	Wrong_doings	42	You have provided shelter for stray animals	C1_48	0.0	Easy	I2_30	30	Airbags in cars are filled with sodium azide	0.833333333333333	No	RIGHT	64.60019999985889	RIGHT	420.0322000001506	LEFT	1951.9027000001188	RIGHT	708.3286000001863	16.4	0.6	Probable_Truth	RIGHT	LEFT	3	784.4263000001774	131	2020-02-05 12:42:14.440471
23	Self	S200205	0.6666666666666666	1	2	2	1	0.1	1216.6666691	1350.0000027	2216.6666711000003	2500.000005	Minor	Wrong_doings	5	You have cheated on a national exam	C1_53	0.0	Hard	I2_23	60	Cheese is an Asian staple	1.0	No	RIGHT	9.221400000114954	RIGHT	529.0372999997999	LEFT	883.9544000002206	LEFT	790.8345999999256	16.5	0.1	Probable_Truth	RIGHT	RIGHT	4	439.29779999962193	132	2020-02-05 12:42:36.952223
44	Self	S200205	0.8333333333333334	2	1	2	1	0.7	1283.3333359	1066.6666688	1783.3333369	1783.3333369	Minor	Good_deeds	8	You have let a homeless man into your house	C1_17	0.0	Easy	I1_23	23	Kangaroos live in Africa	0.0	Yes	RIGHT	403.0041000000893	RIGHT	375.89759999991657	LEFT	818.3880999999928	RIGHT	759.8490000000311	17.2	0.7	Probable_Truth	LEFT	LEFT	1	486.7174000000887	133	2020-02-05 12:42:58.287054
38	Self	S200205	0.8333333333333334	1	2	2	1	0.1	1066.6666688	1150.0000023	1783.3333369	2216.6666711000003	Major	Wrong_doings	30	You have engaged in arson	C1_3	0.0	Easy	I2_53	41	There are 6000 spoken languages in the World	0.888888888888889	Yes	RIGHT	72.76640000009138	RIGHT	323.2450999998946	RIGHT	1790.486200000032	LEFT	1064.422999999806	17.3	0.1	Probable_Truth	LEFT	LEFT	1	558.8784000001397	134	2020-02-05 12:43:20.887562
0	Self	S200205	0.5	1	2	1	2	0.6	1150.0000023	1216.6666691	2350.0000047	2500.000005	Major	Wrong_doings	49	You have a non-judgmental attitude towards everyone	C1_23	1.0	Easy	I2_1	12	It is 20th Century now	0.722222222222222	Yes	RIGHT	855.3431999998793	LEFT	571.2850000004437	LEFT	775.6549000000632	RIGHT	1062.213100000008	16.7	0.6	Probable_Lie	LEFT	LEFT	6	1128.4036000001834	135	2020-02-05 12:43:45.071261
134	Computer	S200205	0.8333333333333334	1	2	2	1	0.7	1066.6666688	1350.0000027	2066.6666708	2350.0000047	Major	Wrong_doings	30	You have engaged in arson	C1_3	0.0	Easy	I2_53	41	There are 6000 spoken languages in the World	0.888888888888889	Yes	LEFT	463.8408999999229	RIGHT	1013.11749999968	RIGHT	859.0292999997473	LEFT	944.0953000002992	16.7	0.7	Probable_Truth	RIGHT	RIGHT	3	812.8667852737359	136	2020-02-05 12:44:08.575590
2	Self	S200205	0.5	1	2	1	2	0.3	1216.6666691	1283.3333359	1500.000003	2350.0000047	Minor	Good_deeds	36	You have stopped using plastics completely	C2_17	0.0	Easy	I2_58	58	Beef comes from cows	0.0	Yes	RIGHT	209.21309999994264	LEFT	926.2223000000632	RIGHT	679.4373000002452	RIGHT	913.4444999999688	16.4	0.3	Probable_Lie	RIGHT	LEFT	4	1099.8116999999183	137	2020-02-05 12:44:31.328405
69	Self	S200205	0.6666666666666666	1	2	2	1	0.6	1216.6666691	1500.000003	2066.6666708	2350.0000047	Minor	Wrong_doings	44	You have returned your trays in food courts	C2_59	1.0	Hard	I2_34	17	Fishes can swim in water	0.0	No	RIGHT	312.76170000001	RIGHT	510.0056000001132	RIGHT	1700.3497000000607	RIGHT	904.2288000000552	17.0	0.6	Probable_Truth	RIGHT	RIGHT	5	954.1097999999693	138	2020-02-05 12:44:55.416404
88	Self	S200205	0.8333333333333334	2	1	1	2	0.2	1216.6666691	1433.3333362	2350.0000047	2350.0000047	Major	Wrong_doings	24	You have bought cigarettes for a minor	C1_31	1.0	Easy	I1_3	13	The sun rises at night	0.666666666666667	No	RIGHT	394.7608999997101	RIGHT	230.98690000006167	LEFT	1119.7736999997687	LEFT	1354.582599999958	17.2	0.2	Probable_Truth	LEFT	LEFT	1	742.0744000000923	139	2020-02-05 12:45:19.184446
74	Self	S200205	0.6666666666666666	2	1	1	2	0.6	1216.6666691	1283.3333359	2500.000005	1783.3333369	Major	Good_deeds	35	You have deceived a loved one	C2_35	0.0	Easy	I1_5	45	Cernan was the second last man to walk on the Moon	0.944444444444444	No	RIGHT	1181.0247000003071	LEFT	183.9304000000084	LEFT	3135.014599999977	LEFT	1026.4404999998078	16.599999999999998	0.6	Probable_Lie	RIGHT	RIGHT	2	898.2756999998855	140	2020-02-05 12:45:44.967076
57	Self	S200205	0.5	2	1	1	2	0.6	1216.6666691	1500.000003	2066.6666708	1933.3333372	Minor	Wrong_doings	37	You have taken part in violent demonstration	C2_39	0.0	Hard	I1_53	53	Afghan Hound is the first cloned cat	0.0	No	RIGHT	669.9281999999585	LEFT	175.75709999982791	LEFT	1671.1856000001717	LEFT	1253.3167000001413	15.999999999999998	0.6	Probable_Lie	LEFT	RIGHT	3	828.1744999999319	141	2020-02-05 12:46:08.855821
41	Self	S200205	0.8333333333333334	2	1	1	2	0.4	1433.3333362	1283.3333359	1650.0000033	1933.3333372	Minor	Wrong_doings	39	You have gossiped about your best friend	C2_8	0.15	Hard	I2_33	48	South East Asia is currently free from polio	0.777777777777778	No	RIGHT	510.9756000001653	RIGHT	193.38349999998167	RIGHT	1352.1792999999889	LEFT	1486.1314999998283	16.4	0.4	Probable_Truth	RIGHT	RIGHT	3	651.2204999999085	142	2020-02-05 12:46:31.919159
143	Computer	S200205	0.8333333333333334	2	1	2	1	0.1	1150.0000023	1283.3333359	2066.6666708	1650.0000033	Major	Good_deeds	33	You have watched a pirated movie	C2_42	0.55	Hard	I1_2	2	Astatine is the rarest element in the Earth's crust	0.0	Yes	LEFT	364.0417999999954	LEFT	160.1965999998356	LEFT	1733.860199999981	LEFT	936.1463000000184	16.4	0.1	Probable_Lie	LEFT	RIGHT	1	724.9635188710554	143	2020-02-05 12:46:54.552216
