"Participant"	"Task"	"Stimulus_Side"	"Response"	"RT"	"ITI"	"Previous_Response"	"Previous_RT"	"Stop_Signal"	"Stop_Signal_RT"	"Conflict"	"Cue_Response"	"Cue_Response_RT"	"Trial_Onset"	"Trial_End"	"Trial_Order"	"Duration"
"S210203"	"Conflict_Resolution"	"RIGHT"	"RIGHT"	783.983900000067	683.3333347	n/a	n/a	n/a	n/a	"False"	n/a	n/a	"2021-02-03 13:55:18.596853"	"2021-02-03 13:55:19.590096"	1	6.04860421666667
"S210203"	"Conflict_Resolution"	"LEFT"	"LEFT"	547.282799999948	1200.0000024	n/a	n/a	n/a	n/a	"False"	n/a	n/a	"2021-02-03 13:55:20.810467"	"2021-02-03 13:55:21.564512"	2	6.04860421666667
"S210203"	"Conflict_Resolution"	"RIGHT"	"RIGHT"	550.627800000029	1183.3333357	n/a	n/a	n/a	n/a	"False"	n/a	n/a	"2021-02-03 13:55:22.766603"	"2021-02-03 13:55:23.525803"	3	6.04860421666667
"S210203"	"Conflict_Resolution"	"RIGHT"	"RIGHT"	873.321499999975	700.0000014	n/a	n/a	n/a	n/a	"True"	n/a	n/a	"2021-02-03 13:55:24.243580"	"2021-02-03 13:55:25.326168"	4	6.04860421666667
"S210203"	"Conflict_Resolution"	"LEFT"	"LEFT"	683.312699999988	633.3333346	n/a	n/a	n/a	n/a	"True"	n/a	n/a	"2021-02-03 13:55:25.978495"	"2021-02-03 13:55:26.868991"	5	6.04860421666667
"S210203"	"Conflict_Resolution"	"RIGHT"	"RIGHT"	504.401400000006	500.000001	n/a	n/a	n/a	n/a	"False"	n/a	n/a	"2021-02-03 13:55:27.388684"	"2021-02-03 13:55:28.101315"	6	6.04860421666667
"S210203"	"Conflict_Resolution"	"RIGHT"	"RIGHT"	662.47020000003	950.0000019	n/a	n/a	n/a	n/a	"True"	n/a	n/a	"2021-02-03 13:55:29.070806"	"2021-02-03 13:55:29.941633"	7	6.04860421666667
"S210203"	"Conflict_Resolution"	"RIGHT"	"RIGHT"	541.075599999999	783.3333349	n/a	n/a	n/a	n/a	"True"	n/a	n/a	"2021-02-03 13:55:30.744496"	"2021-02-03 13:55:31.494179"	8	6.04860421666667
"S210203"	"Conflict_Resolution"	"LEFT"	"LEFT"	578.292099999999	1450.0000029	n/a	n/a	n/a	n/a	"True"	n/a	n/a	"2021-02-03 13:55:32.963340"	"2021-02-03 13:55:33.748731"	9	6.04860421666667
"S210203"	"Conflict_Resolution"	"RIGHT"	"RIGHT"	456.825299999991	550.0000011	n/a	n/a	n/a	n/a	"False"	n/a	n/a	"2021-02-03 13:55:34.316789"	"2021-02-03 13:55:34.981336"	10	6.04860421666667
"S210203"	"Conflict_Resolution"	"LEFT"	"LEFT"	439.342200000056	966.6666686	n/a	n/a	n/a	n/a	"False"	n/a	n/a	"2021-02-03 13:55:35.965785"	"2021-02-03 13:55:36.612698"	11	6.04860421666667
"S210203"	"Conflict_Resolution"	"LEFT"	"LEFT"	409.215000000017	1150.0000023	n/a	n/a	n/a	n/a	"False"	n/a	n/a	"2021-02-03 13:55:37.780240"	"2021-02-03 13:55:38.398227"	12	6.04860421666667
"S210203"	"Conflict_Resolution"	"LEFT"	"LEFT"	489.172199999985	1066.6666688	n/a	n/a	n/a	n/a	"False"	n/a	n/a	"2021-02-03 13:55:39.483904"	"2021-02-03 13:55:40.180661"	13	6.04860421666667
"S210203"	"Conflict_Resolution"	"LEFT"	"LEFT"	718.6825	566.6666678	n/a	n/a	n/a	n/a	"True"	n/a	n/a	"2021-02-03 13:55:40.767124"	"2021-02-03 13:55:41.692927"	14	6.04860421666667
"S210203"	"Conflict_Resolution"	"RIGHT"	"RIGHT"	724.832399999968	850.0000017	n/a	n/a	n/a	n/a	"False"	n/a	n/a	"2021-02-03 13:55:42.560277"	"2021-02-03 13:55:43.493915"	15	6.04860421666667
"S210203"	"Conflict_Resolution"	"RIGHT"	"RIGHT"	575.417799999968	1100.0000022	n/a	n/a	n/a	n/a	"True"	n/a	n/a	"2021-02-03 13:55:44.614053"	"2021-02-03 13:55:45.396596"	16	6.04860421666667
"S210203"	"Conflict_Resolution"	"RIGHT"	"RIGHT"	445.945100000017	800.0000016	n/a	n/a	n/a	n/a	"False"	n/a	n/a	"2021-02-03 13:55:46.215409"	"2021-02-03 13:55:46.871246"	17	6.04860421666667
"S210203"	"Conflict_Resolution"	"RIGHT"	"RIGHT"	602.289300000052	1216.6666691	n/a	n/a	n/a	n/a	"True"	n/a	n/a	"2021-02-03 13:55:48.107333"	"2021-02-03 13:55:48.917843"	18	6.04860421666667
"S210203"	"Conflict_Resolution"	"LEFT"	"LEFT"	475.575299999946	1450.0000029	n/a	n/a	n/a	n/a	"False"	n/a	n/a	"2021-02-03 13:55:50.386037"	"2021-02-03 13:55:51.070206"	19	6.04860421666667
"S210203"	"Conflict_Resolution"	"RIGHT"	"RIGHT"	612.193000000048	1000.000002	n/a	n/a	n/a	n/a	"True"	n/a	n/a	"2021-02-03 13:55:52.088785"	"2021-02-03 13:55:52.908860"	20	6.04860421666667
"S210203"	"Conflict_Resolution"	"LEFT"	"LEFT"	460.579199999984	616.6666679	n/a	n/a	n/a	n/a	"False"	n/a	n/a	"2021-02-03 13:55:53.544586"	"2021-02-03 13:55:54.212741"	21	6.04860421666667
"S210203"	"Conflict_Resolution"	"LEFT"	"LEFT"	660.96970000001	1250.0000025	n/a	n/a	n/a	n/a	"True"	n/a	n/a	"2021-02-03 13:55:55.479993"	"2021-02-03 13:55:56.348690"	22	6.04860421666667
"S210203"	"Conflict_Resolution"	"LEFT"	"LEFT"	605.179999999905	1200.0000024	n/a	n/a	n/a	n/a	"True"	n/a	n/a	"2021-02-03 13:55:57.568081"	"2021-02-03 13:55:58.380528"	23	6.04860421666667
"S210203"	"Conflict_Resolution"	"LEFT"	"LEFT"	520.708900000045	516.6666677	n/a	n/a	n/a	n/a	"True"	n/a	n/a	"2021-02-03 13:55:58.916168"	"2021-02-03 13:55:59.646249"	24	6.04860421666667
"S210203"	"Conflict_Resolution"	"RIGHT"	"RIGHT"	612.360200000012	800.0000016	n/a	n/a	n/a	n/a	"True"	n/a	n/a	"2021-02-03 13:56:00.465262"	"2021-02-03 13:56:01.285175"	25	6.04860421666667
"S210203"	"Conflict_Resolution"	"RIGHT"	"RIGHT"	558.013500000015	1366.6666694	n/a	n/a	n/a	n/a	"True"	n/a	n/a	"2021-02-03 13:56:02.671634"	"2021-02-03 13:56:03.438177"	26	6.04860421666667
"S210203"	"Conflict_Resolution"	"LEFT"	"LEFT"	635.347700000011	866.6666684	n/a	n/a	n/a	n/a	"True"	n/a	n/a	"2021-02-03 13:56:04.321881"	"2021-02-03 13:56:05.164365"	27	6.04860421666667
"S210203"	"Conflict_Resolution"	"LEFT"	"LEFT"	580.515699999978	1416.6666695	n/a	n/a	n/a	n/a	"True"	n/a	n/a	"2021-02-03 13:56:06.600746"	"2021-02-03 13:56:07.389310"	28	6.04860421666667
"S210203"	"Conflict_Resolution"	"RIGHT"	"RIGHT"	764.015099999938	1433.3333362	n/a	n/a	n/a	n/a	"True"	n/a	n/a	"2021-02-03 13:56:08.840939"	"2021-02-03 13:56:09.813345"	29	6.04860421666667
"S210203"	"Conflict_Resolution"	"RIGHT"	"RIGHT"	626.420400000029	500.000001	n/a	n/a	n/a	n/a	"True"	n/a	n/a	"2021-02-03 13:56:10.330610"	"2021-02-03 13:56:11.165483"	30	6.04860421666667
"S210203"	"Conflict_Resolution"	"RIGHT"	"RIGHT"	630.63939999995	550.0000011	n/a	n/a	n/a	n/a	"True"	n/a	n/a	"2021-02-03 13:56:11.734997"	"2021-02-03 13:56:12.573830"	31	6.04860421666667
"S210203"	"Conflict_Resolution"	"RIGHT"	"RIGHT"	491.587900000013	1033.3333354	n/a	n/a	n/a	n/a	"True"	n/a	n/a	"2021-02-03 13:56:13.625608"	"2021-02-03 13:56:14.324744"	32	6.04860421666667
"S210203"	"Conflict_Resolution"	"RIGHT"	"RIGHT"	416.961300000025	1150.0000023	n/a	n/a	n/a	n/a	"False"	n/a	n/a	"2021-02-03 13:56:15.492254"	"2021-02-03 13:56:16.116682"	33	6.04860421666667
"S210203"	"Conflict_Resolution"	"RIGHT"	"RIGHT"	387.103799999977	1266.6666692	n/a	n/a	n/a	n/a	"False"	n/a	n/a	"2021-02-03 13:56:17.402393"	"2021-02-03 13:56:17.997871"	34	6.04860421666667
"S210203"	"Conflict_Resolution"	"LEFT"	"LEFT"	462.157400000024	950.0000019	n/a	n/a	n/a	n/a	"False"	n/a	n/a	"2021-02-03 13:56:18.967363"	"2021-02-03 13:56:19.636322"	35	6.04860421666667
"S210203"	"Conflict_Resolution"	"LEFT"	"LEFT"	474.419699999999	1300.0000026	n/a	n/a	n/a	n/a	"False"	n/a	n/a	"2021-02-03 13:56:20.954982"	"2021-02-03 13:56:21.637061"	36	6.04860421666667
"S210203"	"Conflict_Resolution"	"LEFT"	"LEFT"	582.440500000075	1000.000002	n/a	n/a	n/a	n/a	"True"	n/a	n/a	"2021-02-03 13:56:22.654719"	"2021-02-03 13:56:23.445923"	37	6.04860421666667
"S210203"	"Conflict_Resolution"	"LEFT"	"LEFT"	377.193499999976	1050.0000021	n/a	n/a	n/a	n/a	"False"	n/a	n/a	"2021-02-03 13:56:24.515884"	"2021-02-03 13:56:25.100641"	38	6.04860421666667
"S210203"	"Conflict_Resolution"	"RIGHT"	"RIGHT"	412.324099999978	1033.3333354	n/a	n/a	n/a	n/a	"False"	n/a	n/a	"2021-02-03 13:56:26.153191"	"2021-02-03 13:56:26.772868"	39	6.04860421666667
"S210203"	"Conflict_Resolution"	"LEFT"	"LEFT"	794.69610000001	1066.6666688	n/a	n/a	n/a	n/a	"True"	n/a	n/a	"2021-02-03 13:56:27.858243"	"2021-02-03 13:56:28.861016"	40	6.04860421666667
"S210203"	"Conflict_Resolution"	"RIGHT"	"RIGHT"	457.967599999961	1316.6666693	n/a	n/a	n/a	n/a	"False"	n/a	n/a	"2021-02-03 13:56:30.195377"	"2021-02-03 13:56:30.861269"	41	6.04860421666667
"S210203"	"Conflict_Resolution"	"RIGHT"	"RIGHT"	705.261399999927	883.3333351	n/a	n/a	n/a	n/a	"True"	n/a	n/a	"2021-02-03 13:56:31.764362"	"2021-02-03 13:56:32.676433"	42	6.04860421666667
"S210203"	"Conflict_Resolution"	"RIGHT"	"RIGHT"	447.115199999985	1366.6666694	n/a	n/a	n/a	n/a	"False"	n/a	n/a	"2021-02-03 13:56:34.061982"	"2021-02-03 13:56:34.716735"	43	6.04860421666667
"S210203"	"Conflict_Resolution"	"LEFT"	"LEFT"	456.400899999949	1100.0000022	n/a	n/a	n/a	n/a	"False"	n/a	n/a	"2021-02-03 13:56:35.836936"	"2021-02-03 13:56:36.501046"	44	6.04860421666667
"S210203"	"Conflict_Resolution"	"LEFT"	"LEFT"	534.063599999968	1366.6666694	n/a	n/a	n/a	n/a	"True"	n/a	n/a	"2021-02-03 13:56:37.886783"	"2021-02-03 13:56:38.629176"	45	6.04860421666667
"S210203"	"Conflict_Resolution"	"RIGHT"	"RIGHT"	745.19029999999	1050.0000021	n/a	n/a	n/a	n/a	"True"	n/a	n/a	"2021-02-03 13:56:39.699862"	"2021-02-03 13:56:40.652398"	46	6.04860421666667
"S210203"	"Conflict_Resolution"	"RIGHT"	"RIGHT"	516.357599999992	633.3333346	n/a	n/a	n/a	n/a	"False"	n/a	n/a	"2021-02-03 13:56:41.304516"	"2021-02-03 13:56:42.029146"	47	6.04860421666667
"S210203"	"Conflict_Resolution"	"RIGHT"	"RIGHT"	639.391700000033	533.3333344	n/a	n/a	n/a	n/a	"True"	n/a	n/a	"2021-02-03 13:56:42.581836"	"2021-02-03 13:56:43.429505"	48	6.04860421666667
"S210203"	"Conflict_Resolution"	"RIGHT"	"RIGHT"	489.390099999923	1083.3333355	n/a	n/a	n/a	n/a	"True"	n/a	n/a	"2021-02-03 13:56:44.531712"	"2021-02-03 13:56:45.228734"	49	6.04860421666667
"S210203"	"Conflict_Resolution"	"RIGHT"	"RIGHT"	466.130000000021	733.3333348	n/a	n/a	n/a	n/a	"True"	n/a	n/a	"2021-02-03 13:56:45.979236"	"2021-02-03 13:56:46.652367"	50	6.04860421666667
"S210203"	"Conflict_Resolution"	"RIGHT"	"RIGHT"	313.916399999925	1483.3333363	n/a	n/a	n/a	n/a	"True"	n/a	n/a	"2021-02-03 13:56:48.155784"	"2021-02-03 13:56:48.676450"	51	6.04860421666667
"S210203"	"Conflict_Resolution"	"LEFT"	"LEFT"	625.825899999995	733.3333348	n/a	n/a	n/a	n/a	"True"	n/a	n/a	"2021-02-03 13:56:49.427130"	"2021-02-03 13:56:50.262837"	52	6.04860421666667
"S210203"	"Conflict_Resolution"	"LEFT"	"LEFT"	499.688399999968	1366.6666694	n/a	n/a	n/a	n/a	"False"	n/a	n/a	"2021-02-03 13:56:51.649336"	"2021-02-03 13:56:52.357972"	53	6.04860421666667
"S210203"	"Conflict_Resolution"	"LEFT"	"LEFT"	555.871300000035	1216.6666691	n/a	n/a	n/a	n/a	"True"	n/a	n/a	"2021-02-03 13:56:53.593280"	"2021-02-03 13:56:54.356714"	54	6.04860421666667
"S210203"	"Conflict_Resolution"	"LEFT"	"LEFT"	513.161000000082	1300.0000026	n/a	n/a	n/a	n/a	"True"	n/a	n/a	"2021-02-03 13:56:55.675639"	"2021-02-03 13:56:56.397713"	55	6.04860421666667
"S210203"	"Conflict_Resolution"	"RIGHT"	"RIGHT"	563.929300000041	1183.3333357	n/a	n/a	n/a	n/a	"True"	n/a	n/a	"2021-02-03 13:56:57.601459"	"2021-02-03 13:56:58.372323"	56	6.04860421666667
"S210203"	"Conflict_Resolution"	"RIGHT"	"RIGHT"	432.772300000011	1333.333336	n/a	n/a	n/a	n/a	"False"	n/a	n/a	"2021-02-03 13:56:59.724771"	"2021-02-03 13:57:00.364433"	57	6.04860421666667
"S210203"	"Conflict_Resolution"	"LEFT"	"LEFT"	568.985899999916	950.0000019	n/a	n/a	n/a	n/a	"True"	n/a	n/a	"2021-02-03 13:57:01.331981"	"2021-02-03 13:57:02.109901"	58	6.04860421666667
"S210203"	"Conflict_Resolution"	"RIGHT"	"RIGHT"	542.470900000012	750.0000015	n/a	n/a	n/a	n/a	"False"	n/a	n/a	"2021-02-03 13:57:02.878968"	"2021-02-03 13:57:03.629254"	59	6.04860421666667
"S210203"	"Conflict_Resolution"	"RIGHT"	"RIGHT"	425.790399999983	650.0000013	n/a	n/a	n/a	n/a	"False"	n/a	n/a	"2021-02-03 13:57:04.299508"	"2021-02-03 13:57:04.934008"	60	6.04860421666667
"S210203"	"Conflict_Resolution"	"LEFT"	"LEFT"	525.162300000034	583.3333345	n/a	n/a	n/a	n/a	"True"	n/a	n/a	"2021-02-03 13:57:05.536432"	"2021-02-03 13:57:06.269761"	61	6.04860421666667
"S210203"	"Conflict_Resolution"	"LEFT"	"LEFT"	550.530799999933	533.3333344	n/a	n/a	n/a	n/a	"True"	n/a	n/a	"2021-02-03 13:57:06.823283"	"2021-02-03 13:57:07.581924"	62	6.04860421666667
"S210203"	"Conflict_Resolution"	"LEFT"	"LEFT"	384.029199999986	900.0000018	n/a	n/a	n/a	n/a	"False"	n/a	n/a	"2021-02-03 13:57:08.501468"	"2021-02-03 13:57:09.093464"	63	6.04860421666667
"S210203"	"Conflict_Resolution"	"RIGHT"	"RIGHT"	770.956400000046	850.0000017	n/a	n/a	n/a	n/a	"True"	n/a	n/a	"2021-02-03 13:57:09.962786"	"2021-02-03 13:57:10.941193"	64	6.04860421666667
"S210203"	"Conflict_Resolution"	"LEFT"	"LEFT"	407.465000000002	533.3333344	n/a	n/a	n/a	n/a	"False"	n/a	n/a	"2021-02-03 13:57:11.493328"	"2021-02-03 13:57:12.108672"	65	6.04860421666667
"S210203"	"Conflict_Resolution"	"RIGHT"	"RIGHT"	393.674000000033	900.0000018	n/a	n/a	n/a	n/a	"False"	n/a	n/a	"2021-02-03 13:57:13.027987"	"2021-02-03 13:57:13.628875"	66	6.04860421666667
"S210203"	"Conflict_Resolution"	"LEFT"	"LEFT"	555.539500000009	1400.0000028	n/a	n/a	n/a	n/a	"True"	n/a	n/a	"2021-02-03 13:57:15.049746"	"2021-02-03 13:57:15.812667"	67	6.04860421666667
"S210203"	"Conflict_Resolution"	"LEFT"	"LEFT"	561.250299999983	1100.0000022	n/a	n/a	n/a	n/a	"True"	n/a	n/a	"2021-02-03 13:57:16.932284"	"2021-02-03 13:57:17.700698"	68	6.04860421666667
"S210203"	"Conflict_Resolution"	"RIGHT"	"RIGHT"	395.610000000033	1050.0000021	n/a	n/a	n/a	n/a	"False"	n/a	n/a	"2021-02-03 13:57:18.769444"	"2021-02-03 13:57:19.372659"	69	6.04860421666667
"S210203"	"Conflict_Resolution"	"LEFT"	"LEFT"	405.024500000081	566.6666678	n/a	n/a	n/a	n/a	"False"	n/a	n/a	"2021-02-03 13:57:19.960642"	"2021-02-03 13:57:20.572328"	70	6.04860421666667
"S210203"	"Conflict_Resolution"	"LEFT"	"LEFT"	376.432700000009	716.6666681	n/a	n/a	n/a	n/a	"False"	n/a	n/a	"2021-02-03 13:57:21.308968"	"2021-02-03 13:57:21.892461"	71	6.04860421666667
"S210203"	"Conflict_Resolution"	"LEFT"	"LEFT"	486.497099999951	616.6666679	n/a	n/a	n/a	n/a	"True"	n/a	n/a	"2021-02-03 13:57:22.526296"	"2021-02-03 13:57:23.220689"	72	6.04860421666667
"S210203"	"Conflict_Resolution"	"LEFT"	"LEFT"	430.546700000036	766.6666682	n/a	n/a	n/a	n/a	"False"	n/a	n/a	"2021-02-03 13:57:24.006283"	"2021-02-03 13:57:24.644719"	73	6.04860421666667
"S210203"	"Conflict_Resolution"	"RIGHT"	"RIGHT"	478.232400000024	783.3333349	n/a	n/a	n/a	n/a	"False"	n/a	n/a	"2021-02-03 13:57:25.447289"	"2021-02-03 13:57:26.132953"	74	6.04860421666667
"S210203"	"Conflict_Resolution"	"LEFT"	"LEFT"	473.827800000095	1266.6666692	n/a	n/a	n/a	n/a	"True"	n/a	n/a	"2021-02-03 13:57:27.419641"	"2021-02-03 13:57:28.101825"	75	6.04860421666667
"S210203"	"Conflict_Resolution"	"LEFT"	"LEFT"	404.080299999919	816.6666683	n/a	n/a	n/a	n/a	"True"	n/a	n/a	"2021-02-03 13:57:28.936669"	"2021-02-03 13:57:29.548739"	76	6.04860421666667
"S210203"	"Conflict_Resolution"	"RIGHT"	"LEFT"	423.652100000027	933.3333352	n/a	n/a	n/a	n/a	"True"	n/a	n/a	"2021-02-03 13:57:30.501874"	"2021-02-03 13:57:31.133229"	77	6.04860421666667
"S210203"	"Conflict_Resolution"	"RIGHT"	"RIGHT"	656.816000000049	883.3333351	n/a	n/a	n/a	n/a	"False"	n/a	n/a	"2021-02-03 13:57:32.036005"	"2021-02-03 13:57:32.901319"	78	6.04860421666667
"S210203"	"Conflict_Resolution"	"LEFT"	"LEFT"	533.246299999973	783.3333349	n/a	n/a	n/a	n/a	"True"	n/a	n/a	"2021-02-03 13:57:33.704263"	"2021-02-03 13:57:34.445482"	79	6.04860421666667
"S210203"	"Conflict_Resolution"	"LEFT"	"LEFT"	415.848299999993	733.3333348	n/a	n/a	n/a	n/a	"False"	n/a	n/a	"2021-02-03 13:57:35.197508"	"2021-02-03 13:57:35.821495"	80	6.04860421666667
"S210203"	"Conflict_Resolution"	"LEFT"	"LEFT"	506.154400000014	1466.6666696	n/a	n/a	n/a	n/a	"True"	n/a	n/a	"2021-02-03 13:57:37.306740"	"2021-02-03 13:57:38.021733"	81	6.04860421666667
"S210203"	"Conflict_Resolution"	"RIGHT"	"RIGHT"	635.981799999968	1383.3333361	n/a	n/a	n/a	n/a	"True"	n/a	n/a	"2021-02-03 13:57:39.425056"	"2021-02-03 13:57:40.269300"	82	6.04860421666667
"S210203"	"Conflict_Resolution"	"LEFT"	"LEFT"	697.745400000031	850.0000017	n/a	n/a	n/a	n/a	"True"	n/a	n/a	"2021-02-03 13:57:41.139322"	"2021-02-03 13:57:42.046086"	83	6.04860421666667
"S210203"	"Conflict_Resolution"	"RIGHT"	"RIGHT"	462.509899999986	533.3333344	n/a	n/a	n/a	n/a	"False"	n/a	n/a	"2021-02-03 13:57:42.598218"	"2021-02-03 13:57:43.269080"	84	6.04860421666667
"S210203"	"Conflict_Resolution"	"RIGHT"	"RIGHT"	662.151900000026	983.3333353	n/a	n/a	n/a	n/a	"True"	n/a	n/a	"2021-02-03 13:57:44.271023"	"2021-02-03 13:57:45.141240"	85	6.04860421666667
"S210203"	"Conflict_Resolution"	"LEFT"	"LEFT"	520.874299999946	916.6666685	n/a	n/a	n/a	n/a	"True"	n/a	n/a	"2021-02-03 13:57:46.076855"	"2021-02-03 13:57:46.805421"	86	6.04860421666667
"S210203"	"Conflict_Resolution"	"RIGHT"	"RIGHT"	443.22539999996	1433.3333362	n/a	n/a	n/a	n/a	"False"	n/a	n/a	"2021-02-03 13:57:48.257625"	"2021-02-03 13:57:48.910024"	87	6.04860421666667
"S210203"	"Conflict_Resolution"	"RIGHT"	"RIGHT"	391.849199999911	1283.3333359	n/a	n/a	n/a	n/a	"False"	n/a	n/a	"2021-02-03 13:57:50.213657"	"2021-02-03 13:57:50.814024"	88	6.04860421666667
"S210203"	"Conflict_Resolution"	"LEFT"	"LEFT"	435.68700000003	1216.6666691	n/a	n/a	n/a	n/a	"False"	n/a	n/a	"2021-02-03 13:57:52.049682"	"2021-02-03 13:57:52.694183"	89	6.04860421666667
"S210203"	"Conflict_Resolution"	"LEFT"	"LEFT"	670.614	1150.0000023	n/a	n/a	n/a	n/a	"True"	n/a	n/a	"2021-02-03 13:57:53.862830"	"2021-02-03 13:57:54.741257"	90	6.04860421666667
"S210203"	"Conflict_Resolution"	"RIGHT"	"RIGHT"	550.939299999982	1133.3333356	n/a	n/a	n/a	n/a	"True"	n/a	n/a	"2021-02-03 13:57:55.894257"	"2021-02-03 13:57:56.652505"	91	6.04860421666667
"S210203"	"Conflict_Resolution"	"RIGHT"	"RIGHT"	413.137500000062	1383.3333361	n/a	n/a	n/a	n/a	"False"	n/a	n/a	"2021-02-03 13:57:58.056394"	"2021-02-03 13:57:58.676746"	92	6.04860421666667
"S210203"	"Conflict_Resolution"	"LEFT"	"LEFT"	464.387600000009	1316.6666693	n/a	n/a	n/a	n/a	"False"	n/a	n/a	"2021-02-03 13:58:00.012346"	"2021-02-03 13:58:00.684397"	93	6.04860421666667
"S210203"	"Conflict_Resolution"	"RIGHT"	"RIGHT"	644.450699999993	833.333335	n/a	n/a	n/a	n/a	"False"	n/a	n/a	"2021-02-03 13:58:01.536206"	"2021-02-03 13:58:02.388531"	94	6.04860421666667
"S210203"	"Conflict_Resolution"	"RIGHT"	"RIGHT"	543.295300000068	600.0000012	n/a	n/a	n/a	n/a	"False"	n/a	n/a	"2021-02-03 13:58:03.006006"	"2021-02-03 13:58:03.758245"	95	6.04860421666667
"S210203"	"Conflict_Resolution"	"RIGHT"	"RIGHT"	402.091499999983	1216.6666691	n/a	n/a	n/a	n/a	"False"	n/a	n/a	"2021-02-03 13:58:04.995495"	"2021-02-03 13:58:05.604792"	96	6.04860421666667
"S210203"	"Conflict_Resolution"	"LEFT"	"LEFT"	584.455199999979	1116.6666689	n/a	n/a	n/a	n/a	"False"	n/a	n/a	"2021-02-03 13:58:06.741002"	"2021-02-03 13:58:07.533008"	97	6.04860421666667
"S210203"	"Conflict_Resolution"	"RIGHT"	"RIGHT"	475.369500000056	1083.3333355	n/a	n/a	n/a	n/a	"False"	n/a	n/a	"2021-02-03 13:58:08.634020"	"2021-02-03 13:58:09.316788"	98	6.04860421666667
"S210203"	"Conflict_Resolution"	"RIGHT"	"RIGHT"	552.343400000041	933.3333352	n/a	n/a	n/a	n/a	"False"	n/a	n/a	"2021-02-03 13:58:10.268375"	"2021-02-03 13:58:11.029148"	99	6.04860421666667
"S210203"	"Conflict_Resolution"	"RIGHT"	"RIGHT"	582.233999999971	1416.6666695	n/a	n/a	n/a	n/a	"True"	n/a	n/a	"2021-02-03 13:58:12.463260"	"2021-02-03 13:58:13.252324"	100	6.04860421666667
"S210203"	"Conflict_Resolution"	"RIGHT"	"RIGHT"	544.081699999992	1150.0000023	n/a	n/a	n/a	n/a	"True"	n/a	n/a	"2021-02-03 13:58:14.420760"	"2021-02-03 13:58:15.172776"	101	6.04860421666667
"S210203"	"Conflict_Resolution"	"RIGHT"	"RIGHT"	398.209400000042	1416.6666695	n/a	n/a	n/a	n/a	"False"	n/a	n/a	"2021-02-03 13:58:16.606586"	"2021-02-03 13:58:17.213086"	102	6.04860421666667
"S210203"	"Conflict_Resolution"	"LEFT"	"LEFT"	662.410999999906	966.6666686	n/a	n/a	n/a	n/a	"True"	n/a	n/a	"2021-02-03 13:58:18.198534"	"2021-02-03 13:58:19.068997"	103	6.04860421666667
"S210203"	"Conflict_Resolution"	"RIGHT"	"RIGHT"	634.450700000002	900.0000018	n/a	n/a	n/a	n/a	"True"	n/a	n/a	"2021-02-03 13:58:19.986754"	"2021-02-03 13:58:20.828535"	104	6.04860421666667
"S210203"	"Conflict_Resolution"	"RIGHT"	"RIGHT"	425.331000000028	700.0000014	n/a	n/a	n/a	n/a	"False"	n/a	n/a	"2021-02-03 13:58:21.548287"	"2021-02-03 13:58:22.181144"	105	6.04860421666667
"S210203"	"Conflict_Resolution"	"RIGHT"	"RIGHT"	556.953300000032	583.3333345	n/a	n/a	n/a	n/a	"True"	n/a	n/a	"2021-02-03 13:58:22.784641"	"2021-02-03 13:58:23.549639"	106	6.04860421666667
"S210203"	"Conflict_Resolution"	"LEFT"	"LEFT"	624.197999999978	916.6666685	n/a	n/a	n/a	n/a	"False"	n/a	n/a	"2021-02-03 13:58:24.484861"	"2021-02-03 13:58:25.317254"	107	6.04860421666667
"S210203"	"Conflict_Resolution"	"LEFT"	"LEFT"	387.523900000019	1000.000002	n/a	n/a	n/a	n/a	"False"	n/a	n/a	"2021-02-03 13:58:26.337896"	"2021-02-03 13:58:26.935308"	108	6.04860421666667
"S210203"	"Conflict_Resolution"	"LEFT"	"LEFT"	339.495599999964	583.3333345	n/a	n/a	n/a	n/a	"False"	n/a	n/a	"2021-02-03 13:58:27.537730"	"2021-02-03 13:58:28.084637"	109	6.04860421666667
"S210203"	"Conflict_Resolution"	"RIGHT"	"RIGHT"	555.217399999947	1266.6666692	n/a	n/a	n/a	n/a	"True"	n/a	n/a	"2021-02-03 13:58:29.369853"	"2021-02-03 13:58:30.132473"	110	6.04860421666667
"S210203"	"Conflict_Resolution"	"LEFT"	"LEFT"	457.774299999983	1500.000003	n/a	n/a	n/a	n/a	"False"	n/a	n/a	"2021-02-03 13:58:31.651244"	"2021-02-03 13:58:32.316756"	111	6.04860421666667
"S210203"	"Conflict_Resolution"	"LEFT"	"LEFT"	429.536699999971	1400.0000028	n/a	n/a	n/a	n/a	"False"	n/a	n/a	"2021-02-03 13:58:33.735218"	"2021-02-03 13:58:34.372836"	112	6.04860421666667
"S210203"	"Conflict_Resolution"	"RIGHT"	"RIGHT"	924.454400000059	650.0000013	n/a	n/a	n/a	n/a	"True"	n/a	n/a	"2021-02-03 13:58:35.041143"	"2021-02-03 13:58:36.172986"	113	6.04860421666667
"S210203"	"Conflict_Resolution"	"LEFT"	"LEFT"	388.343500000019	1416.6666695	n/a	n/a	n/a	n/a	"False"	n/a	n/a	"2021-02-03 13:58:37.608697"	"2021-02-03 13:58:38.206170"	114	6.04860421666667
"S210203"	"Conflict_Resolution"	"LEFT"	"LEFT"	631.167399999981	1116.6666689	n/a	n/a	n/a	n/a	"True"	n/a	n/a	"2021-02-03 13:58:39.341714"	"2021-02-03 13:58:40.181544"	115	6.04860421666667
"S210203"	"Conflict_Resolution"	"LEFT"	"LEFT"	378.733300000022	866.6666684	n/a	n/a	n/a	n/a	"False"	n/a	n/a	"2021-02-03 13:58:41.066720"	"2021-02-03 13:58:41.653446"	116	6.04860421666667
"S210203"	"Conflict_Resolution"	"RIGHT"	"RIGHT"	731.379800000013	1233.3333358	n/a	n/a	n/a	n/a	"True"	n/a	n/a	"2021-02-03 13:58:42.905395"	"2021-02-03 13:58:43.846129"	117	6.04860421666667
"S210203"	"Conflict_Resolution"	"RIGHT"	"RIGHT"	620.596099999943	633.3333346	n/a	n/a	n/a	n/a	"True"	n/a	n/a	"2021-02-03 13:58:44.496462"	"2021-02-03 13:58:45.325649"	118	6.04860421666667
"S210203"	"Conflict_Resolution"	"RIGHT"	"RIGHT"	371.938699999987	1000.000002	n/a	n/a	n/a	n/a	"False"	n/a	n/a	"2021-02-03 13:58:46.344516"	"2021-02-03 13:58:46.924573"	119	6.04860421666667
"S210203"	"Conflict_Resolution"	"LEFT"	"LEFT"	452.076500000203	1466.6666696	n/a	n/a	n/a	n/a	"False"	n/a	n/a	"2021-02-03 13:58:48.408422"	"2021-02-03 13:58:49.069279"	120	6.04860421666667
"S210203"	"Conflict_Resolution"	"RIGHT"	"RIGHT"	640.546500000028	1283.3333359	n/a	n/a	n/a	n/a	"True"	n/a	n/a	"2021-02-03 13:58:50.372175"	"2021-02-03 13:58:51.221928"	121	6.04860421666667
"S210203"	"Conflict_Resolution"	"LEFT"	"LEFT"	484.642899999926	633.3333346	n/a	n/a	n/a	n/a	"False"	n/a	n/a	"2021-02-03 13:58:51.872260"	"2021-02-03 13:58:52.565678"	122	6.04860421666667
"S210203"	"Conflict_Resolution"	"RIGHT"	"RIGHT"	690.741000000116	833.333335	n/a	n/a	n/a	n/a	"True"	n/a	n/a	"2021-02-03 13:58:53.418361"	"2021-02-03 13:58:54.316648"	123	6.04860421666667
"S210203"	"Conflict_Resolution"	"RIGHT"	"RIGHT"	738.316899999973	683.3333347	n/a	n/a	n/a	n/a	"True"	n/a	n/a	"2021-02-03 13:58:55.018404"	"2021-02-03 13:58:55.965080"	124	6.04860421666667
"S210203"	"Conflict_Resolution"	"RIGHT"	"RIGHT"	580.915699999878	600.0000012	n/a	n/a	n/a	n/a	"True"	n/a	n/a	"2021-02-03 13:58:56.583952"	"2021-02-03 13:58:57.373270"	125	6.04860421666667
"S210203"	"Conflict_Resolution"	"LEFT"	"LEFT"	468.381000000136	1016.6666687	n/a	n/a	n/a	n/a	"False"	n/a	n/a	"2021-02-03 13:58:58.409123"	"2021-02-03 13:58:59.086031"	126	6.04860421666667
"S210203"	"Conflict_Resolution"	"LEFT"	"LEFT"	389.582799999971	1166.666669	n/a	n/a	n/a	n/a	"False"	n/a	n/a	"2021-02-03 13:59:00.271940"	"2021-02-03 13:59:00.869492"	127	6.04860421666667
"S210203"	"Conflict_Resolution"	"LEFT"	"LEFT"	509.659400000146	766.6666682	n/a	n/a	n/a	n/a	"True"	n/a	n/a	"2021-02-03 13:59:01.655902"	"2021-02-03 13:59:02.373854"	128	6.04860421666667
"S210203"	"Conflict_Resolution"	"RIGHT"	"RIGHT"	693.619399999989	750.0000015	n/a	n/a	n/a	n/a	"True"	n/a	n/a	"2021-02-03 13:59:03.143460"	"2021-02-03 13:59:04.045292"	129	6.04860421666667
"S210203"	"Conflict_Resolution"	"RIGHT"	"RIGHT"	633.324700000003	1483.3333363	n/a	n/a	n/a	n/a	"False"	n/a	n/a	"2021-02-03 13:59:05.547697"	"2021-02-03 13:59:06.388597"	130	6.04860421666667
"S210203"	"Conflict_Resolution"	"LEFT"	"LEFT"	432.192499999928	1350.0000027	n/a	n/a	n/a	n/a	"False"	n/a	n/a	"2021-02-03 13:59:07.756530"	"2021-02-03 13:59:08.396503"	131	6.04860421666667
"S210203"	"Conflict_Resolution"	"LEFT"	"LEFT"	608.316500000001	1316.6666693	n/a	n/a	n/a	n/a	"True"	n/a	n/a	"2021-02-03 13:59:09.733037"	"2021-02-03 13:59:10.548742"	132	6.04860421666667
"S210203"	"Conflict_Resolution"	"LEFT"	"LEFT"	616.923699999916	900.0000018	n/a	n/a	n/a	n/a	"True"	n/a	n/a	"2021-02-03 13:59:11.467885"	"2021-02-03 13:59:12.292327"	133	6.04860421666667
"S210203"	"Conflict_Resolution"	"RIGHT"	"RIGHT"	760.38779999999	1333.333336	n/a	n/a	n/a	n/a	"True"	n/a	n/a	"2021-02-03 13:59:13.644955"	"2021-02-03 13:59:14.612607"	134	6.04860421666667
"S210203"	"Conflict_Resolution"	"RIGHT"	"RIGHT"	520.909300000085	1316.6666693	n/a	n/a	n/a	n/a	"True"	n/a	n/a	"2021-02-03 13:59:15.948619"	"2021-02-03 13:59:16.676425"	135	6.04860421666667
"S210203"	"Conflict_Resolution"	"RIGHT"	"RIGHT"	578.565300000037	1466.6666696	n/a	n/a	n/a	n/a	"True"	n/a	n/a	"2021-02-03 13:59:18.161957"	"2021-02-03 13:59:18.948622"	136	6.04860421666667
"S210203"	"Conflict_Resolution"	"LEFT"	"LEFT"	453.845199999932	783.3333349	n/a	n/a	n/a	n/a	"False"	n/a	n/a	"2021-02-03 13:59:19.751560"	"2021-02-03 13:59:20.414040"	137	6.04860421666667
"S210203"	"Conflict_Resolution"	"LEFT"	"LEFT"	482.132600000114	1250.0000025	n/a	n/a	n/a	n/a	"False"	n/a	n/a	"2021-02-03 13:59:21.683327"	"2021-02-03 13:59:22.372581"	138	6.04860421666667
"S210203"	"Conflict_Resolution"	"RIGHT"	"RIGHT"	558.087099999966	583.3333345	n/a	n/a	n/a	n/a	"False"	n/a	n/a	"2021-02-03 13:59:22.975058"	"2021-02-03 13:59:23.740734"	139	6.04860421666667
"S210203"	"Conflict_Resolution"	"RIGHT"	"RIGHT"	387.927699999864	1466.6666696	n/a	n/a	n/a	n/a	"False"	n/a	n/a	"2021-02-03 13:59:25.225556"	"2021-02-03 13:59:25.821201"	140	6.04860421666667
"S210203"	"Conflict_Resolution"	"LEFT"	"LEFT"	578.852199999801	1500.000003	n/a	n/a	n/a	n/a	"True"	n/a	n/a	"2021-02-03 13:59:27.338519"	"2021-02-03 13:59:28.126033"	141	6.04860421666667
"S210203"	"Conflict_Resolution"	"RIGHT"	"RIGHT"	542.433300000084	733.3333348	n/a	n/a	n/a	n/a	"False"	n/a	n/a	"2021-02-03 13:59:28.879171"	"2021-02-03 13:59:29.629092"	142	6.04860421666667
"S210203"	"Conflict_Resolution"	"LEFT"	"LEFT"	611.336400000027	1016.6666687	n/a	n/a	n/a	n/a	"True"	n/a	n/a	"2021-02-03 13:59:30.665896"	"2021-02-03 13:59:31.484555"	143	6.04860421666667
"S210203"	"Conflict_Resolution"	"LEFT"	"LEFT"	538.119399999914	683.3333347	n/a	n/a	n/a	n/a	"False"	n/a	n/a	"2021-02-03 13:59:32.187164"	"2021-02-03 13:59:32.933883"	144	6.04860421666667
"S210203"	"Conflict_Resolution"	"LEFT"	"LEFT"	490.323800000169	1050.0000021	n/a	n/a	n/a	n/a	"True"	n/a	n/a	"2021-02-03 13:59:34.003115"	"2021-02-03 13:59:34.701950"	145	6.04860421666667
"S210203"	"Conflict_Resolution"	"LEFT"	"LEFT"	575.720300000057	516.6666677	n/a	n/a	n/a	n/a	"False"	n/a	n/a	"2021-02-03 13:59:35.237644"	"2021-02-03 13:59:36.020542"	146	6.04860421666667
"S210203"	"Conflict_Resolution"	"RIGHT"	"RIGHT"	399.44289999994	1133.3333356	n/a	n/a	n/a	n/a	"False"	n/a	n/a	"2021-02-03 13:59:37.173635"	"2021-02-03 13:59:37.782005"	147	6.04860421666667
"S210203"	"Conflict_Resolution"	"RIGHT"	"RIGHT"	448.097399999824	1100.0000022	n/a	n/a	n/a	n/a	"False"	n/a	n/a	"2021-02-03 13:59:38.900784"	"2021-02-03 13:59:39.557417"	148	6.04860421666667
"S210203"	"Conflict_Resolution"	"LEFT"	"LEFT"	459.956899999952	850.0000017	n/a	n/a	n/a	n/a	"False"	n/a	n/a	"2021-02-03 13:59:40.424761"	"2021-02-03 13:59:41.092604"	149	6.04860421666667
"S210203"	"Conflict_Resolution"	"LEFT"	"LEFT"	538.079400000015	666.666668	n/a	n/a	n/a	n/a	"False"	n/a	n/a	"2021-02-03 13:59:41.778867"	"2021-02-03 13:59:42.524407"	150	6.04860421666667
"S210203"	"Conflict_Resolution"	"LEFT"	"LEFT"	322.079399999893	1266.6666692	n/a	n/a	n/a	n/a	"False"	n/a	n/a	"2021-02-03 13:59:43.811483"	"2021-02-03 13:59:44.340681"	151	6.04860421666667
"S210203"	"Conflict_Resolution"	"LEFT"	"LEFT"	449.236400000018	683.3333347	n/a	n/a	n/a	n/a	"True"	n/a	n/a	"2021-02-03 13:59:45.043507"	"2021-02-03 13:59:45.702167"	152	6.04860421666667
"S210203"	"Conflict_Resolution"	"LEFT"	"LEFT"	381.296600000042	816.6666683	n/a	n/a	n/a	n/a	"False"	n/a	n/a	"2021-02-03 13:59:46.536551"	"2021-02-03 13:59:47.125939"	153	6.04860421666667
"S210203"	"Conflict_Resolution"	"LEFT"	"LEFT"	591.2644	716.6666681	n/a	n/a	n/a	n/a	"True"	n/a	n/a	"2021-02-03 13:59:47.861730"	"2021-02-03 13:59:48.660560"	154	6.04860421666667
"S210203"	"Conflict_Resolution"	"RIGHT"	"RIGHT"	421.680400000014	950.0000019	n/a	n/a	n/a	n/a	"False"	n/a	n/a	"2021-02-03 13:59:49.631182"	"2021-02-03 13:59:50.260451"	155	6.04860421666667
"S210203"	"Conflict_Resolution"	"LEFT"	"LEFT"	682.424500000025	666.666668	n/a	n/a	n/a	n/a	"True"	n/a	n/a	"2021-02-03 13:59:50.946711"	"2021-02-03 13:59:51.837265"	156	6.04860421666667
"S210203"	"Conflict_Resolution"	"RIGHT"	"RIGHT"	357.598999999936	983.3333353	n/a	n/a	n/a	n/a	"False"	n/a	n/a	"2021-02-03 13:59:52.838958"	"2021-02-03 13:59:53.405980"	157	6.04860421666667
"S210203"	"Conflict_Resolution"	"LEFT"	"LEFT"	557.033599999841	1166.666669	n/a	n/a	n/a	n/a	"True"	n/a	n/a	"2021-02-03 13:59:54.592494"	"2021-02-03 13:59:55.358289"	158	6.04860421666667
"S210203"	"Conflict_Resolution"	"RIGHT"	"RIGHT"	579.989500000011	1233.3333358	n/a	n/a	n/a	n/a	"False"	n/a	n/a	"2021-02-03 13:59:56.608724"	"2021-02-03 13:59:57.396809"	159	6.04860421666667
"S210203"	"Conflict_Resolution"	"LEFT"	"LEFT"	614.735099999962	1350.0000027	n/a	n/a	n/a	n/a	"True"	n/a	n/a	"2021-02-03 13:59:58.766412"	"2021-02-03 13:59:59.589208"	160	6.04860421666667
"S210203"	"Processing_Speed"	"RIGHT"	"DOWN"	573.132999999999	566.6666678	n/a	n/a	n/a	n/a	n/a	n/a	n/a	"2021-02-03 13:43:37.752687"	"2021-02-03 13:43:38.551803"	1	2.04636258333333
"S210203"	"Processing_Speed"	"LEFT"	"DOWN"	286.72499999999	783.3333349	n/a	n/a	n/a	n/a	n/a	n/a	n/a	"2021-02-03 13:43:39.343914"	"2021-02-03 13:43:39.838624"	2	2.04636258333333
"S210203"	"Processing_Speed"	"LEFT"	"DOWN"	396.33959999999	1266.6666692	n/a	n/a	n/a	n/a	n/a	n/a	n/a	"2021-02-03 13:43:41.113697"	"2021-02-03 13:43:41.718006"	3	2.04636258333333
"S210203"	"Processing_Speed"	"RIGHT"	"DOWN"	287.748800000003	1400.0000028	n/a	n/a	n/a	n/a	n/a	n/a	n/a	"2021-02-03 13:43:43.126282"	"2021-02-03 13:43:43.622177"	4	2.04636258333333
"S210203"	"Processing_Speed"	"RIGHT"	"DOWN"	307.050200000006	1083.3333355	n/a	n/a	n/a	n/a	n/a	n/a	n/a	"2021-02-03 13:43:44.714917"	"2021-02-03 13:43:45.229814"	5	2.04636258333333
"S210203"	"Processing_Speed"	"LEFT"	"DOWN"	241.016599999995	983.3333353	n/a	n/a	n/a	n/a	n/a	n/a	n/a	"2021-02-03 13:43:46.221286"	"2021-02-03 13:43:46.669827"	6	2.04636258333333
"S210203"	"Processing_Speed"	"RIGHT"	"DOWN"	297.8004	1150.0000023	n/a	n/a	n/a	n/a	n/a	n/a	n/a	"2021-02-03 13:43:47.828854"	"2021-02-03 13:43:48.334364"	7	2.04636258333333
"S210203"	"Processing_Speed"	"RIGHT"	"DOWN"	259.492500000007	1266.6666692	n/a	n/a	n/a	n/a	n/a	n/a	n/a	"2021-02-03 13:43:49.610961"	"2021-02-03 13:43:50.077711"	8	2.04636258333333
"S210203"	"Processing_Speed"	"RIGHT"	"DOWN"	252.218600000006	1500.000003	n/a	n/a	n/a	n/a	n/a	n/a	n/a	"2021-02-03 13:43:51.585764"	"2021-02-03 13:43:52.047123"	9	2.04636258333333
"S210203"	"Processing_Speed"	"LEFT"	"DOWN"	293.718600000005	816.6666683	n/a	n/a	n/a	n/a	n/a	n/a	n/a	"2021-02-03 13:43:52.872110"	"2021-02-03 13:43:53.374019"	10	2.04636258333333
"S210203"	"Processing_Speed"	"RIGHT"	"DOWN"	294.502899999998	1433.3333362	n/a	n/a	n/a	n/a	n/a	n/a	n/a	"2021-02-03 13:43:54.815972"	"2021-02-03 13:43:55.318159"	11	2.04636258333333
"S210203"	"Processing_Speed"	"LEFT"	"DOWN"	269.69459999998	850.0000017	n/a	n/a	n/a	n/a	n/a	n/a	n/a	"2021-02-03 13:43:56.176525"	"2021-02-03 13:43:56.653786"	12	2.04636258333333
"S210203"	"Processing_Speed"	"RIGHT"	"DOWN"	279.284700000005	1216.6666691	n/a	n/a	n/a	n/a	n/a	n/a	n/a	"2021-02-03 13:43:57.878428"	"2021-02-03 13:43:58.365889"	13	2.04636258333333
"S210203"	"Processing_Speed"	"RIGHT"	"DOWN"	313.173000000006	1366.6666694	n/a	n/a	n/a	n/a	n/a	n/a	n/a	"2021-02-03 13:43:59.740883"	"2021-02-03 13:44:00.261839"	14	2.04636258333333
"S210203"	"Processing_Speed"	"LEFT"	"DOWN"	247.188599999987	1016.6666687	n/a	n/a	n/a	n/a	n/a	n/a	n/a	"2021-02-03 13:44:01.286744"	"2021-02-03 13:44:01.741445"	15	2.04636258333333
"S210203"	"Processing_Speed"	"RIGHT"	"DOWN"	250.400400000018	950.0000019	n/a	n/a	n/a	n/a	n/a	n/a	n/a	"2021-02-03 13:44:02.700174"	"2021-02-03 13:44:03.158488"	16	2.04636258333333
"S210203"	"Processing_Speed"	"LEFT"	"DOWN"	241.281700000002	1150.0000023	n/a	n/a	n/a	n/a	n/a	n/a	n/a	"2021-02-03 13:44:04.316492"	"2021-02-03 13:44:04.767223"	17	2.04636258333333
"S210203"	"Processing_Speed"	"RIGHT"	"DOWN"	287.062800000001	1183.3333357	n/a	n/a	n/a	n/a	n/a	n/a	n/a	"2021-02-03 13:44:05.958682"	"2021-02-03 13:44:06.454355"	18	2.04636258333333
"S210203"	"Processing_Speed"	"LEFT"	"DOWN"	452.809200000019	666.666668	n/a	n/a	n/a	n/a	n/a	n/a	n/a	"2021-02-03 13:44:07.129803"	"2021-02-03 13:44:07.789364"	19	2.04636258333333
"S210203"	"Processing_Speed"	"LEFT"	"DOWN"	402.898999999991	533.3333344	n/a	n/a	n/a	n/a	n/a	n/a	n/a	"2021-02-03 13:44:08.331639"	"2021-02-03 13:44:08.942227"	20	2.04636258333333
"S210203"	"Processing_Speed"	"LEFT"	"DOWN"	307.928500000003	883.3333351	n/a	n/a	n/a	n/a	n/a	n/a	n/a	"2021-02-03 13:44:09.834538"	"2021-02-03 13:44:10.351098"	21	2.04636258333333
"S210203"	"Processing_Speed"	"RIGHT"	"DOWN"	325.187999999997	633.3333346	n/a	n/a	n/a	n/a	n/a	n/a	n/a	"2021-02-03 13:44:10.992922"	"2021-02-03 13:44:11.526120"	22	2.04636258333333
"S210203"	"Processing_Speed"	"LEFT"	"DOWN"	248.051300000014	1216.6666691	n/a	n/a	n/a	n/a	n/a	n/a	n/a	"2021-02-03 13:44:12.750990"	"2021-02-03 13:44:13.207184"	23	2.04636258333333
"S210203"	"Processing_Speed"	"RIGHT"	"DOWN"	220.133699999991	850.0000017	n/a	n/a	n/a	n/a	n/a	n/a	n/a	"2021-02-03 13:44:14.065903"	"2021-02-03 13:44:14.493757"	24	2.04636258333333
"S210203"	"Processing_Speed"	"RIGHT"	"DOWN"	305.901199999994	533.3333344	n/a	n/a	n/a	n/a	n/a	n/a	n/a	"2021-02-03 13:44:15.036358"	"2021-02-03 13:44:15.551190"	25	2.04636258333333
"S210203"	"Processing_Speed"	"LEFT"	"DOWN"	281.200200000001	916.6666685	n/a	n/a	n/a	n/a	n/a	n/a	n/a	"2021-02-03 13:44:16.476682"	"2021-02-03 13:44:16.965419"	26	2.04636258333333
"S210203"	"Processing_Speed"	"LEFT"	"DOWN"	287.202300000018	600.0000012	n/a	n/a	n/a	n/a	n/a	n/a	n/a	"2021-02-03 13:44:17.575385"	"2021-02-03 13:44:18.069918"	27	2.04636258333333
"S210203"	"Processing_Speed"	"LEFT"	"DOWN"	277.911399999994	1050.0000021	n/a	n/a	n/a	n/a	n/a	n/a	n/a	"2021-02-03 13:44:19.128030"	"2021-02-03 13:44:19.613942"	28	2.04636258333333
"S210203"	"Processing_Speed"	"LEFT"	"DOWN"	259.94080000001	1083.3333355	n/a	n/a	n/a	n/a	n/a	n/a	n/a	"2021-02-03 13:44:20.705898"	"2021-02-03 13:44:21.174160"	29	2.04636258333333
"S210203"	"Processing_Speed"	"LEFT"	"DOWN"	287.335000000013	1400.0000028	n/a	n/a	n/a	n/a	n/a	n/a	n/a	"2021-02-03 13:44:22.583136"	"2021-02-03 13:44:23.078076"	30	2.04636258333333
"S210203"	"Processing_Speed"	"LEFT"	"DOWN"	277.051099999994	1466.6666696	n/a	n/a	n/a	n/a	n/a	n/a	n/a	"2021-02-03 13:44:24.553007"	"2021-02-03 13:44:25.037928"	31	2.04636258333333
"S210203"	"Processing_Speed"	"LEFT"	"DOWN"	227.864699999998	1300.0000026	n/a	n/a	n/a	n/a	n/a	n/a	n/a	"2021-02-03 13:44:26.346092"	"2021-02-03 13:44:26.781998"	32	2.04636258333333
"S210203"	"Processing_Speed"	"LEFT"	"DOWN"	322.264100000012	733.3333348	n/a	n/a	n/a	n/a	n/a	n/a	n/a	"2021-02-03 13:44:27.524034"	"2021-02-03 13:44:28.053631"	33	2.04636258333333
"S210203"	"Processing_Speed"	"RIGHT"	"DOWN"	244.285399999995	500.000001	n/a	n/a	n/a	n/a	n/a	n/a	n/a	"2021-02-03 13:44:28.562282"	"2021-02-03 13:44:29.015070"	34	2.04636258333333
"S210203"	"Processing_Speed"	"LEFT"	"DOWN"	304.088799999988	566.6666678	n/a	n/a	n/a	n/a	n/a	n/a	n/a	"2021-02-03 13:44:29.590037"	"2021-02-03 13:44:30.101530"	35	2.04636258333333
"S210203"	"Processing_Speed"	"LEFT"	"DOWN"	335.003400000005	1433.3333362	n/a	n/a	n/a	n/a	n/a	n/a	n/a	"2021-02-03 13:44:31.543259"	"2021-02-03 13:44:32.086386"	36	2.04636258333333
"S210203"	"Processing_Speed"	"RIGHT"	"DOWN"	271.547900000002	983.3333353	n/a	n/a	n/a	n/a	n/a	n/a	n/a	"2021-02-03 13:44:33.078590"	"2021-02-03 13:44:33.557369"	37	2.04636258333333
"S210203"	"Processing_Speed"	"RIGHT"	"DOWN"	341.348900000014	600.0000012	n/a	n/a	n/a	n/a	n/a	n/a	n/a	"2021-02-03 13:44:34.168337"	"2021-02-03 13:44:34.718913"	38	2.04636258333333
"S210203"	"Processing_Speed"	"RIGHT"	"DOWN"	290.231399999982	916.6666685	n/a	n/a	n/a	n/a	n/a	n/a	n/a	"2021-02-03 13:44:35.643973"	"2021-02-03 13:44:36.141954"	39	2.04636258333333
"S210203"	"Processing_Speed"	"RIGHT"	"DOWN"	227.822000000003	883.3333351	n/a	n/a	n/a	n/a	n/a	n/a	n/a	"2021-02-03 13:44:37.034567"	"2021-02-03 13:44:37.469559"	40	2.04636258333333
"S210203"	"Processing_Speed"	"LEFT"	"DOWN"	256.762100000003	1183.3333357	n/a	n/a	n/a	n/a	n/a	n/a	n/a	"2021-02-03 13:44:38.661751"	"2021-02-03 13:44:39.125867"	41	2.04636258333333
"S210203"	"Processing_Speed"	"LEFT"	"DOWN"	252.040600000015	700.0000014	n/a	n/a	n/a	n/a	n/a	n/a	n/a	"2021-02-03 13:44:39.834655"	"2021-02-03 13:44:40.293479"	42	2.04636258333333
"S210203"	"Processing_Speed"	"LEFT"	"DOWN"	283.978100000013	633.3333346	n/a	n/a	n/a	n/a	n/a	n/a	n/a	"2021-02-03 13:44:40.937768"	"2021-02-03 13:44:41.429906"	43	2.04636258333333
"S210203"	"Processing_Speed"	"LEFT"	"DOWN"	259.560199999981	1116.6666689	n/a	n/a	n/a	n/a	n/a	n/a	n/a	"2021-02-03 13:44:42.554975"	"2021-02-03 13:44:43.022113"	44	2.04636258333333
"S210203"	"Processing_Speed"	"LEFT"	"DOWN"	307.129000000003	1500.000003	n/a	n/a	n/a	n/a	n/a	n/a	n/a	"2021-02-03 13:44:44.530802"	"2021-02-03 13:44:45.047303"	45	2.04636258333333
"S210203"	"Processing_Speed"	"RIGHT"	"DOWN"	280.767400000002	733.3333348	n/a	n/a	n/a	n/a	n/a	n/a	n/a	"2021-02-03 13:44:45.788939"	"2021-02-03 13:44:46.277626"	46	2.04636258333333
"S210203"	"Processing_Speed"	"LEFT"	"DOWN"	402.059899999983	500.000001	n/a	n/a	n/a	n/a	n/a	n/a	n/a	"2021-02-03 13:44:46.787841"	"2021-02-03 13:44:47.398181"	47	2.04636258333333
"S210203"	"Processing_Speed"	"RIGHT"	"DOWN"	218.674800000002	1116.6666689	n/a	n/a	n/a	n/a	n/a	n/a	n/a	"2021-02-03 13:44:48.523330"	"2021-02-03 13:44:48.950618"	48	2.04636258333333
"S210203"	"Processing_Speed"	"RIGHT"	"DOWN"	230.074500000001	816.6666683	n/a	n/a	n/a	n/a	n/a	n/a	n/a	"2021-02-03 13:44:49.775648"	"2021-02-03 13:44:50.213919"	49	2.04636258333333
"S210203"	"Processing_Speed"	"RIGHT"	"DOWN"	280.522499999989	783.3333349	n/a	n/a	n/a	n/a	n/a	n/a	n/a	"2021-02-03 13:44:51.005917"	"2021-02-03 13:44:51.495101"	50	2.04636258333333
"S210203"	"Processing_Speed"	"RIGHT"	"DOWN"	242.542799999995	700.0000014	n/a	n/a	n/a	n/a	n/a	n/a	n/a	"2021-02-03 13:44:52.203283"	"2021-02-03 13:44:52.653623"	51	2.04636258333333
"S210203"	"Processing_Speed"	"LEFT"	"DOWN"	265.045600000008	950.0000019	n/a	n/a	n/a	n/a	n/a	n/a	n/a	"2021-02-03 13:44:53.613388"	"2021-02-03 13:44:54.086008"	52	2.04636258333333
"S210203"	"Processing_Speed"	"LEFT"	"DOWN"	249.733200000009	1333.333336	n/a	n/a	n/a	n/a	n/a	n/a	n/a	"2021-02-03 13:44:55.428726"	"2021-02-03 13:44:55.885728"	53	2.04636258333333
"S210203"	"Processing_Speed"	"RIGHT"	"DOWN"	237.31029999999	1466.6666696	n/a	n/a	n/a	n/a	n/a	n/a	n/a	"2021-02-03 13:44:57.360403"	"2021-02-03 13:44:57.805781"	54	2.04636258333333
"S210203"	"Processing_Speed"	"RIGHT"	"DOWN"	258.57160000001	1333.333336	n/a	n/a	n/a	n/a	n/a	n/a	n/a	"2021-02-03 13:44:59.147332"	"2021-02-03 13:44:59.613765"	55	2.04636258333333
"S210203"	"Processing_Speed"	"RIGHT"	"DOWN"	301.073000000002	1050.0000021	n/a	n/a	n/a	n/a	n/a	n/a	n/a	"2021-02-03 13:45:00.673475"	"2021-02-03 13:45:01.181980"	56	2.04636258333333
"S210203"	"Processing_Speed"	"RIGHT"	"DOWN"	284.561999999994	666.666668	n/a	n/a	n/a	n/a	n/a	n/a	n/a	"2021-02-03 13:45:01.857864"	"2021-02-03 13:45:02.349548"	57	2.04636258333333
"S210203"	"Processing_Speed"	"LEFT"	"DOWN"	241.709700000001	1366.6666694	n/a	n/a	n/a	n/a	n/a	n/a	n/a	"2021-02-03 13:45:03.723789"	"2021-02-03 13:45:04.173553"	58	2.04636258333333
"S210203"	"Processing_Speed"	"RIGHT"	"DOWN"	215.209300000026	1016.6666687	n/a	n/a	n/a	n/a	n/a	n/a	n/a	"2021-02-03 13:45:05.198987"	"2021-02-03 13:45:05.621904"	59	2.04636258333333
"S210203"	"Processing_Speed"	"RIGHT"	"DOWN"	259.062999999998	1300.0000026	n/a	n/a	n/a	n/a	n/a	n/a	n/a	"2021-02-03 13:45:06.930873"	"2021-02-03 13:45:07.397340"	60	2.04636258333333
"S210203"	"Response_Inhibition"	"LEFT"	"LEFT"	428.758500000015	900.0000018	n/a	n/a	n/a	n/a	n/a	n/a	n/a	"2021-02-03 13:48:41.777476"	"2021-02-03 13:48:42.414185"	1	5.89712131666667
"S210203"	"Response_Inhibition"	"RIGHT"	"RIGHT"	319.757299999992	583.3333345	n/a	n/a	n/a	n/a	n/a	n/a	n/a	"2021-02-03 13:48:43.005715"	"2021-02-03 13:48:43.534301"	2	5.89712131666667
"S210203"	"Response_Inhibition"	"RIGHT"	"RIGHT"	346.256700099958	633.3333346	n/a	n/a	n/a	n/a	n/a	n/a	n/a	"2021-02-03 13:48:44.176265"	"2021-02-03 13:48:44.733589"	3	5.89712131666667
"S210203"	"Response_Inhibition"	"LEFT"	"LEFT"	311.2165	1416.6666695	n/a	n/a	n/a	n/a	n/a	n/a	n/a	"2021-02-03 13:48:46.158338"	"2021-02-03 13:48:46.678018"	4	5.89712131666667
"S210203"	"Response_Inhibition"	"LEFT"	"LEFT"	383.323899999994	1200.0000024	n/a	n/a	n/a	n/a	n/a	n/a	n/a	"2021-02-03 13:48:47.886927"	"2021-02-03 13:48:48.478006"	5	5.89712131666667
"S210203"	"Response_Inhibition"	"LEFT"	"LEFT"	383.713900000032	783.3333349	n/a	n/a	n/a	n/a	n/a	n/a	n/a	"2021-02-03 13:48:49.269857"	"2021-02-03 13:48:49.861966"	6	5.89712131666667
"S210203"	"Response_Inhibition"	"RIGHT"	"RIGHT"	354.585799999995	1316.6666693	n/a	n/a	n/a	n/a	n/a	n/a	n/a	"2021-02-03 13:48:51.187530"	"2021-02-03 13:48:51.749723"	7	5.89712131666667
"S210203"	"Response_Inhibition"	"LEFT"	"LEFT"	322.710833499989	1416.6666695	n/a	n/a	n/a	n/a	n/a	n/a	n/a	"2021-02-03 13:48:53.175897"	"2021-02-03 13:48:53.710014"	8	5.89712131666667
"S210203"	"Response_Inhibition"	"RIGHT"	"RIGHT"	293.019166999996	583.3333345	n/a	n/a	n/a	n/a	n/a	n/a	n/a	"2021-02-03 13:48:54.301432"	"2021-02-03 13:48:54.806107"	9	5.89712131666667
"S210203"	"Response_Inhibition"	"LEFT"	"LEFT"	307.857266999959	800.0000016	n/a	n/a	n/a	n/a	n/a	n/a	n/a	"2021-02-03 13:48:55.614349"	"2021-02-03 13:48:56.133946"	10	5.89712131666667
"S210203"	"Response_Inhibition"	"RIGHT"	"RIGHT"	704.04480000002	783.3333349	n/a	n/a	n/a	n/a	n/a	n/a	n/a	"2021-02-03 13:48:56.925381"	"2021-02-03 13:48:57.837929"	11	5.89712131666667
"S210203"	"Response_Inhibition"	"LEFT"	"LEFT"	350.116599999978	1433.3333362	n/a	n/a	n/a	n/a	n/a	n/a	n/a	"2021-02-03 13:48:59.280069"	"2021-02-03 13:48:59.837853"	12	5.89712131666667
"S210203"	"Response_Inhibition"	"LEFT"	"LEFT"	371.552199999996	1100.0000022	n/a	n/a	n/a	n/a	n/a	n/a	n/a	"2021-02-03 13:49:00.946191"	"2021-02-03 13:49:01.524773"	13	5.89712131666667
"S210203"	"Response_Inhibition"	"RIGHT"	"RIGHT"	471.810500000004	633.3333346	n/a	n/a	n/a	n/a	n/a	n/a	n/a	"2021-02-03 13:49:02.166168"	"2021-02-03 13:49:02.847095"	14	5.89712131666667
"S210203"	"Response_Inhibition"	"RIGHT"	"RIGHT"	413.623499999972	1016.6666687	n/a	n/a	n/a	n/a	n/a	n/a	n/a	"2021-02-03 13:49:03.872020"	"2021-02-03 13:49:04.493411"	15	5.89712131666667
"S210203"	"Response_Inhibition"	"RIGHT"	"RIGHT"	371.42620000003	1316.6666693	n/a	n/a	n/a	n/a	n/a	n/a	n/a	"2021-02-03 13:49:05.818811"	"2021-02-03 13:49:06.398277"	16	5.89712131666667
"S210203"	"Response_Inhibition"	"LEFT"	"LEFT"	368.462600000043	1366.6666694	n/a	n/a	n/a	n/a	n/a	n/a	n/a	"2021-02-03 13:49:07.773724"	"2021-02-03 13:49:08.349688"	17	5.89712131666667
"S210203"	"Response_Inhibition"	"RIGHT"	"RIGHT"	269.819867099997	1333.333336	n/a	n/a	n/a	n/a	n/a	n/a	n/a	"2021-02-03 13:49:09.692242"	"2021-02-03 13:49:10.173656"	18	5.89712131666667
"S210203"	"Response_Inhibition"	"RIGHT"	"RIGHT"	437.573400299985	750.0000015	n/a	n/a	n/a	n/a	n/a	n/a	n/a	"2021-02-03 13:49:10.932883"	"2021-02-03 13:49:11.581341"	19	5.89712131666667
"S210203"	"Response_Inhibition"	"RIGHT"	"RIGHT"	548.540200000048	1266.6666692	n/a	n/a	n/a	n/a	n/a	n/a	n/a	"2021-02-03 13:49:12.857616"	"2021-02-03 13:49:13.613600"	20	5.89712131666667
"S210203"	"Response_Inhibition"	"RIGHT"	"Time_Max_Exceeded"	1500.05533349999	1000.000002	n/a	n/a	n/a	n/a	n/a	n/a	n/a	"2021-02-03 13:49:14.622074"	"2021-02-03 13:49:16.125555"	21	5.89712131666667
"S210203"	"Response_Inhibition"	"RIGHT"	"RIGHT"	417.25560070001	1050.0000021	n/a	n/a	n/a	n/a	n/a	n/a	n/a	"2021-02-03 13:49:17.184821"	"2021-02-03 13:49:17.814137"	22	5.89712131666667
"S210203"	"Response_Inhibition"	"LEFT"	"LEFT"	500.290767199986	600.0000012	n/a	n/a	n/a	n/a	n/a	n/a	n/a	"2021-02-03 13:49:18.422544"	"2021-02-03 13:49:19.133092"	23	5.89712131666667
"S210203"	"Response_Inhibition"	"RIGHT"	"RIGHT"	652.365099999997	1100.0000022	n/a	n/a	n/a	n/a	n/a	n/a	n/a	"2021-02-03 13:49:20.241213"	"2021-02-03 13:49:21.102005"	24	5.89712131666667
"S210203"	"Response_Inhibition"	"RIGHT"	"RIGHT"	534.353699999997	1216.6666691	n/a	n/a	n/a	n/a	n/a	n/a	n/a	"2021-02-03 13:49:22.326963"	"2021-02-03 13:49:23.068577"	25	5.89712131666667
"S210203"	"Response_Inhibition"	"LEFT"	"LEFT"	517.962199999999	866.6666684	n/a	n/a	n/a	n/a	n/a	n/a	n/a	"2021-02-03 13:49:23.943282"	"2021-02-03 13:49:24.669961"	26	5.89712131666667
"S210203"	"Response_Inhibition"	"LEFT"	"Time_Max_Exceeded"	1500.05973369999	850.0000017	n/a	n/a	n/a	n/a	n/a	n/a	n/a	"2021-02-03 13:49:25.528567"	"2021-02-03 13:49:27.032149"	27	5.89712131666667
"S210203"	"Response_Inhibition"	"RIGHT"	"RIGHT"	324.51930000002	783.3333349	n/a	n/a	n/a	n/a	n/a	n/a	n/a	"2021-02-03 13:49:27.825264"	"2021-02-03 13:49:28.357398"	28	5.89712131666667
"S210203"	"Response_Inhibition"	"LEFT"	"LEFT"	626.295599999992	516.6666677	n/a	n/a	n/a	n/a	n/a	n/a	n/a	"2021-02-03 13:49:28.883041"	"2021-02-03 13:49:29.717766"	29	5.89712131666667
"S210203"	"Response_Inhibition"	"LEFT"	"LEFT"	467.097200000012	716.6666681	n/a	n/a	n/a	n/a	n/a	n/a	n/a	"2021-02-03 13:49:30.442984"	"2021-02-03 13:49:31.117909"	30	5.89712131666667
"S210203"	"Response_Inhibition"	"LEFT"	"Time_Max_Exceeded"	1500.04920050003	733.3333348	n/a	n/a	n/a	n/a	n/a	n/a	n/a	"2021-02-03 13:49:31.859276"	"2021-02-03 13:49:33.362749"	31	5.89712131666667
"S210203"	"Response_Inhibition"	"RIGHT"	"RIGHT"	480.121199999985	833.333335	n/a	n/a	n/a	n/a	n/a	n/a	n/a	"2021-02-03 13:49:34.205588"	"2021-02-03 13:49:34.893980"	32	5.89712131666667
"S210203"	"Response_Inhibition"	"RIGHT"	"RIGHT"	517.9033	616.6666679	n/a	n/a	n/a	n/a	n/a	n/a	n/a	"2021-02-03 13:49:35.519470"	"2021-02-03 13:49:36.245744"	33	5.89712131666667
"S210203"	"Response_Inhibition"	"LEFT"	"LEFT"	485.729100000015	1216.6666691	n/a	n/a	n/a	n/a	n/a	n/a	n/a	"2021-02-03 13:49:37.472287"	"2021-02-03 13:49:38.165952"	34	5.89712131666667
"S210203"	"Response_Inhibition"	"LEFT"	"LEFT"	355.702167100034	1000.000002	n/a	n/a	n/a	n/a	n/a	n/a	n/a	"2021-02-03 13:49:39.174376"	"2021-02-03 13:49:39.740550"	35	5.89712131666667
"S210203"	"Response_Inhibition"	"RIGHT"	"RIGHT"	515.183799999988	533.3333344	n/a	n/a	n/a	n/a	n/a	n/a	n/a	"2021-02-03 13:49:40.282747"	"2021-02-03 13:49:41.005983"	36	5.89712131666667
"S210203"	"Response_Inhibition"	"LEFT"	"LEFT"	603.025099999968	700.0000014	n/a	n/a	n/a	n/a	n/a	n/a	n/a	"2021-02-03 13:49:41.715141"	"2021-02-03 13:49:42.526976"	37	5.89712131666667
"S210203"	"Response_Inhibition"	"RIGHT"	"RIGHT"	458.066900000006	916.6666685	n/a	n/a	n/a	n/a	n/a	n/a	n/a	"2021-02-03 13:49:43.451742"	"2021-02-03 13:49:44.117464"	38	5.89712131666667
"S210203"	"Response_Inhibition"	"LEFT"	"LEFT"	515.707099999986	1316.6666693	n/a	n/a	n/a	n/a	n/a	n/a	n/a	"2021-02-03 13:49:45.442143"	"2021-02-03 13:49:46.166160"	39	5.89712131666667
"S210203"	"Response_Inhibition"	"RIGHT"	"RIGHT"	404.59199999998	1266.6666692	n/a	n/a	n/a	n/a	n/a	n/a	n/a	"2021-02-03 13:49:47.441236"	"2021-02-03 13:49:48.052646"	40	5.89712131666667
"S210203"	"Response_Inhibition"	"RIGHT"	"RIGHT"	513.210833900043	516.6666677	n/a	n/a	n/a	n/a	n/a	n/a	n/a	"2021-02-03 13:49:48.577747"	"2021-02-03 13:49:49.302206"	41	5.89712131666667
"S210203"	"Response_Inhibition"	"LEFT"	"Time_Max_Exceeded"	1500.04780059999	1066.6666688	n/a	n/a	n/a	n/a	n/a	n/a	n/a	"2021-02-03 13:49:50.377495"	"2021-02-03 13:49:51.880775"	42	5.89712131666667
"S210203"	"Response_Inhibition"	"LEFT"	"LEFT"	503.751899999997	900.0000018	n/a	n/a	n/a	n/a	n/a	n/a	n/a	"2021-02-03 13:49:52.789915"	"2021-02-03 13:49:53.501581"	43	5.89712131666667
"S210203"	"Response_Inhibition"	"LEFT"	"Time_Max_Exceeded"	1500.06983369999	1450.0000029	n/a	n/a	n/a	n/a	n/a	n/a	n/a	"2021-02-03 13:49:54.960180"	"2021-02-03 13:49:56.463240"	44	5.89712131666667
"S210203"	"Response_Inhibition"	"RIGHT"	"RIGHT"	479.512100000022	1350.0000027	n/a	n/a	n/a	n/a	n/a	n/a	n/a	"2021-02-03 13:49:57.822218"	"2021-02-03 13:49:58.509688"	45	5.89712131666667
"S210203"	"Response_Inhibition"	"LEFT"	"LEFT"	379.93670000003	683.3333347	n/a	n/a	n/a	n/a	n/a	n/a	n/a	"2021-02-03 13:49:59.201915"	"2021-02-03 13:49:59.790139"	46	5.89712131666667
"S210203"	"Response_Inhibition"	"RIGHT"	"RIGHT"	375.384333899969	1500.000003	n/a	n/a	n/a	n/a	n/a	n/a	n/a	"2021-02-03 13:50:01.299507"	"2021-02-03 13:50:01.886075"	47	5.89712131666667
"S210203"	"Response_Inhibition"	"LEFT"	"LEFT"	625.580899999989	1133.3333356	n/a	n/a	n/a	n/a	n/a	n/a	n/a	"2021-02-03 13:50:03.028534"	"2021-02-03 13:50:03.861038"	48	5.89712131666667
"S210203"	"Response_Inhibition"	"LEFT"	"LEFT"	533.347999999989	1466.6666696	n/a	n/a	n/a	n/a	n/a	n/a	n/a	"2021-02-03 13:50:05.336470"	"2021-02-03 13:50:06.078057"	49	5.89712131666667
"S210203"	"Response_Inhibition"	"LEFT"	"LEFT"	513.992599999995	1333.333336	n/a	n/a	n/a	n/a	n/a	n/a	n/a	"2021-02-03 13:50:07.420100"	"2021-02-03 13:50:08.141442"	50	5.89712131666667
"S210203"	"Response_Inhibition"	"LEFT"	"LEFT"	675.625800000034	500.000001	n/a	n/a	n/a	n/a	n/a	n/a	n/a	"2021-02-03 13:50:08.649588"	"2021-02-03 13:50:09.533329"	51	5.89712131666667
"S210203"	"Response_Inhibition"	"RIGHT"	"Time_Max_Exceeded"	1500.0539006	566.6666678	n/a	n/a	n/a	n/a	n/a	n/a	n/a	"2021-02-03 13:50:10.107851"	"2021-02-03 13:50:11.611260"	52	5.89712131666667
"S210203"	"Response_Inhibition"	"RIGHT"	"Time_Max_Exceeded"	1500.0552668	966.6666686	n/a	n/a	n/a	n/a	n/a	n/a	n/a	"2021-02-03 13:50:12.587436"	"2021-02-03 13:50:14.090656"	53	5.89712131666667
"S210203"	"Response_Inhibition"	"RIGHT"	"RIGHT"	638.284999999996	883.3333351	n/a	n/a	n/a	n/a	n/a	n/a	n/a	"2021-02-03 13:50:14.983504"	"2021-02-03 13:50:15.830231"	54	5.89712131666667
"S210203"	"Response_Inhibition"	"LEFT"	"Time_Max_Exceeded"	1500.06300020005	533.3333344	n/a	n/a	n/a	n/a	n/a	n/a	n/a	"2021-02-03 13:50:16.371782"	"2021-02-03 13:50:17.875395"	55	5.89712131666667
"S210203"	"Response_Inhibition"	"LEFT"	"LEFT"	577.122300000042	816.6666683	n/a	n/a	n/a	n/a	n/a	n/a	n/a	"2021-02-03 13:50:18.700987"	"2021-02-03 13:50:19.485343"	56	5.89712131666667
"S210203"	"Response_Inhibition"	"RIGHT"	"RIGHT"	590.23650000006	1450.0000029	n/a	n/a	n/a	n/a	n/a	n/a	n/a	"2021-02-03 13:50:20.943652"	"2021-02-03 13:50:21.741518"	57	5.89712131666667
"S210203"	"Response_Inhibition"	"LEFT"	"LEFT"	432.571699999926	1183.3333357	n/a	n/a	n/a	n/a	n/a	n/a	n/a	"2021-02-03 13:50:22.932997"	"2021-02-03 13:50:23.573171"	58	5.89712131666667
"S210203"	"Response_Inhibition"	"RIGHT"	"RIGHT"	586.133099999984	950.0000019	n/a	n/a	n/a	n/a	n/a	n/a	n/a	"2021-02-03 13:50:24.531362"	"2021-02-03 13:50:25.325838"	59	5.89712131666667
"S210203"	"Response_Inhibition"	"RIGHT"	"RIGHT"	658.690299999989	1116.6666689	n/a	n/a	n/a	n/a	n/a	n/a	n/a	"2021-02-03 13:50:26.451415"	"2021-02-03 13:50:27.317943"	60	5.89712131666667
"S210203"	"Response_Inhibition"	"RIGHT"	"Time_Max_Exceeded"	1500.05803359996	1200.0000024	n/a	n/a	n/a	n/a	n/a	n/a	n/a	"2021-02-03 13:50:28.526371"	"2021-02-03 13:50:30.029522"	61	5.89712131666667
"S210203"	"Response_Inhibition"	"LEFT"	"Time_Max_Exceeded"	1500.05863340001	850.0000017	n/a	n/a	n/a	n/a	n/a	n/a	n/a	"2021-02-03 13:50:30.888736"	"2021-02-03 13:50:32.392087"	62	5.89712131666667
"S210203"	"Response_Inhibition"	"LEFT"	"LEFT"	460.935899999981	1383.3333361	n/a	n/a	n/a	n/a	n/a	n/a	n/a	"2021-02-03 13:50:33.784452"	"2021-02-03 13:50:34.453601"	63	5.89712131666667
"S210203"	"Response_Inhibition"	"RIGHT"	"Time_Max_Exceeded"	1500.06680000001	1300.0000026	n/a	n/a	n/a	n/a	n/a	n/a	n/a	"2021-02-03 13:50:35.762885"	"2021-02-03 13:50:37.262698"	64	5.89712131666667
"S210203"	"Response_Inhibition"	"RIGHT"	"RIGHT"	611.542900000018	1050.0000021	n/a	n/a	n/a	n/a	n/a	n/a	n/a	"2021-02-03 13:50:38.322543"	"2021-02-03 13:50:39.142076"	65	5.89712131666667
"S210203"	"Response_Inhibition"	"RIGHT"	"RIGHT"	719.209400000068	733.3333348	n/a	n/a	n/a	n/a	n/a	n/a	n/a	"2021-02-03 13:50:39.885926"	"2021-02-03 13:50:40.813441"	66	5.89712131666667
"S210203"	"Response_Inhibition"	"LEFT"	"LEFT"	559.899400000063	983.3333353	n/a	n/a	n/a	n/a	n/a	n/a	n/a	"2021-02-03 13:50:41.805831"	"2021-02-03 13:50:42.573823"	67	5.89712131666667
"S210203"	"Response_Inhibition"	"LEFT"	"LEFT"	568.625299999894	1166.666669	n/a	n/a	n/a	n/a	n/a	n/a	n/a	"2021-02-03 13:50:43.749431"	"2021-02-03 13:50:44.525323"	68	5.89712131666667
"S210203"	"Response_Inhibition"	"LEFT"	"LEFT"	667.025200000012	733.3333348	n/a	n/a	n/a	n/a	n/a	n/a	n/a	"2021-02-03 13:50:45.266958"	"2021-02-03 13:50:46.141853"	69	5.89712131666667
"S210203"	"Response_Inhibition"	"LEFT"	"LEFT"	413.008600000012	1000.000002	n/a	n/a	n/a	n/a	n/a	n/a	n/a	"2021-02-03 13:50:47.152654"	"2021-02-03 13:50:47.773373"	70	5.89712131666667
"S210203"	"Response_Inhibition"	"RIGHT"	"RIGHT"	538.894500000083	900.0000018	n/a	n/a	n/a	n/a	n/a	n/a	n/a	"2021-02-03 13:50:48.683099"	"2021-02-03 13:50:49.429912"	71	5.89712131666667
"S210203"	"Response_Inhibition"	"RIGHT"	"RIGHT"	461.746799999901	850.0000017	n/a	n/a	n/a	n/a	n/a	n/a	n/a	"2021-02-03 13:50:50.288231"	"2021-02-03 13:50:50.957662"	72	5.89712131666667
"S210203"	"Response_Inhibition"	"LEFT"	"Time_Max_Exceeded"	1500.05820030003	1116.6666689	n/a	n/a	n/a	n/a	n/a	n/a	n/a	"2021-02-03 13:50:52.082990"	"2021-02-03 13:50:53.586026"	73	5.89712131666667
"S210203"	"Response_Inhibition"	"LEFT"	"LEFT"	528.960834000001	1350.0000027	n/a	n/a	n/a	n/a	n/a	n/a	n/a	"2021-02-03 13:50:54.945835"	"2021-02-03 13:50:55.686310"	74	5.89712131666667
"S210203"	"Response_Inhibition"	"RIGHT"	"RIGHT"	529.721800000061	1083.3333355	n/a	n/a	n/a	n/a	n/a	n/a	n/a	"2021-02-03 13:50:56.779762"	"2021-02-03 13:50:57.519056"	75	5.89712131666667
"S210203"	"Response_Inhibition"	"LEFT"	"Time_Max_Exceeded"	1500.05860040006	566.6666678	n/a	n/a	n/a	n/a	n/a	n/a	n/a	"2021-02-03 13:50:58.094702"	"2021-02-03 13:50:59.597816"	76	5.89712131666667
"S210203"	"Response_Inhibition"	"RIGHT"	"Time_Max_Exceeded"	1500.05336710005	1100.0000022	n/a	n/a	n/a	n/a	n/a	n/a	n/a	"2021-02-03 13:51:00.707486"	"2021-02-03 13:51:02.210715"	77	5.89712131666667
"S210203"	"Response_Inhibition"	"LEFT"	"Time_Max_Exceeded"	1500.06046729998	1100.0000022	n/a	n/a	n/a	n/a	n/a	n/a	n/a	"2021-02-03 13:51:03.320395"	"2021-02-03 13:51:04.822986"	78	5.89712131666667
"S210203"	"Response_Inhibition"	"RIGHT"	"RIGHT"	699.076199999922	650.0000013	n/a	n/a	n/a	n/a	n/a	n/a	n/a	"2021-02-03 13:51:05.482794"	"2021-02-03 13:51:06.389561"	79	5.89712131666667
"S210203"	"Response_Inhibition"	"LEFT"	"LEFT"	814.166600000021	833.333335	n/a	n/a	n/a	n/a	n/a	n/a	n/a	"2021-02-03 13:51:07.231409"	"2021-02-03 13:51:08.254158"	80	5.89712131666667
"S210203"	"Response_Inhibition"	"RIGHT"	"Time_Max_Exceeded"	1500.06010070002	866.6666684	n/a	n/a	n/a	n/a	n/a	n/a	n/a	"2021-02-03 13:51:09.129915"	"2021-02-03 13:51:10.633396"	81	5.89712131666667
"S210203"	"Response_Inhibition"	"RIGHT"	"RIGHT"	745.31090000005	1033.3333354	n/a	n/a	n/a	n/a	n/a	n/a	n/a	"2021-02-03 13:51:11.676367"	"2021-02-03 13:51:12.630246"	82	5.89712131666667
"S210203"	"Response_Inhibition"	"RIGHT"	"Time_Max_Exceeded"	1500.05743360006	933.3333352	n/a	n/a	n/a	n/a	n/a	n/a	n/a	"2021-02-03 13:51:13.571853"	"2021-02-03 13:51:15.075070"	83	5.89712131666667
"S210203"	"Response_Inhibition"	"LEFT"	"LEFT"	628.939299999956	1300.0000026	n/a	n/a	n/a	n/a	n/a	n/a	n/a	"2021-02-03 13:51:16.384692"	"2021-02-03 13:51:17.221453"	84	5.89712131666667
"S210203"	"Response_Inhibition"	"RIGHT"	"RIGHT"	718.989400000055	816.6666683	n/a	n/a	n/a	n/a	n/a	n/a	n/a	"2021-02-03 13:51:18.046322"	"2021-02-03 13:51:18.973631"	85	5.89712131666667
"S210203"	"Response_Inhibition"	"RIGHT"	"RIGHT"	767.654200000038	1400.0000028	n/a	n/a	n/a	n/a	n/a	n/a	n/a	"2021-02-03 13:51:20.382057"	"2021-02-03 13:51:21.357843"	86	5.89712131666667
"S210203"	"Response_Inhibition"	"LEFT"	"LEFT"	876.079900000036	1083.3333355	n/a	n/a	n/a	n/a	n/a	n/a	n/a	"2021-02-03 13:51:22.449541"	"2021-02-03 13:51:23.534755"	87	5.89712131666667
"S210203"	"Response_Inhibition"	"LEFT"	"Time_Max_Exceeded"	1500.07096689994	1150.0000023	n/a	n/a	n/a	n/a	n/a	n/a	n/a	"2021-02-03 13:51:24.695816"	"2021-02-03 13:51:26.198995"	88	5.89712131666667
"S210203"	"Response_Inhibition"	"RIGHT"	"RIGHT"	815.619200000015	733.3333348	n/a	n/a	n/a	n/a	n/a	n/a	n/a	"2021-02-03 13:51:26.942146"	"2021-02-03 13:51:27.965724"	89	5.89712131666667
"S210203"	"Response_Inhibition"	"LEFT"	"LEFT"	775.154300000054	1016.6666687	n/a	n/a	n/a	n/a	n/a	n/a	n/a	"2021-02-03 13:51:28.990629"	"2021-02-03 13:51:29.972673"	90	5.89712131666667
"S210203"	"Response_Inhibition"	"RIGHT"	"Time_Max_Exceeded"	1500.05216679999	800.0000016	n/a	n/a	n/a	n/a	n/a	n/a	n/a	"2021-02-03 13:51:30.780672"	"2021-02-03 13:51:32.284828"	91	5.89712131666667
"S210203"	"Response_Inhibition"	"LEFT"	"LEFT"	788.667400000008	883.3333351	n/a	n/a	n/a	n/a	n/a	n/a	n/a	"2021-02-03 13:51:33.177317"	"2021-02-03 13:51:34.173975"	92	5.89712131666667
"S210203"	"Response_Inhibition"	"LEFT"	"LEFT"	831.87769999995	583.3333345	n/a	n/a	n/a	n/a	n/a	n/a	n/a	"2021-02-03 13:51:34.765429"	"2021-02-03 13:51:35.806027"	93	5.89712131666667
"S210203"	"Response_Inhibition"	"RIGHT"	"Time_Max_Exceeded"	1500.06270040001	1466.6666696	n/a	n/a	n/a	n/a	n/a	n/a	n/a	"2021-02-03 13:51:37.281165"	"2021-02-03 13:51:38.784489"	94	5.89712131666667
"S210203"	"Response_Inhibition"	"LEFT"	"Time_Max_Exceeded"	1500.04876699999	966.6666686	n/a	n/a	n/a	n/a	n/a	n/a	n/a	"2021-02-03 13:51:39.760944"	"2021-02-03 13:51:41.263618"	95	5.89712131666667
"S210203"	"Response_Inhibition"	"RIGHT"	"RIGHT"	712.680999999975	500.000001	n/a	n/a	n/a	n/a	n/a	n/a	n/a	"2021-02-03 13:51:41.772727"	"2021-02-03 13:51:42.693433"	96	5.89712131666667
"S210203"	"Response_Inhibition"	"RIGHT"	"RIGHT"	609.612499999912	533.3333344	n/a	n/a	n/a	n/a	n/a	n/a	n/a	"2021-02-03 13:51:43.236026"	"2021-02-03 13:51:44.052610"	97	5.89712131666667
"S210203"	"Response_Inhibition"	"LEFT"	"LEFT"	647.76280000001	616.6666679	n/a	n/a	n/a	n/a	n/a	n/a	n/a	"2021-02-03 13:51:44.677504"	"2021-02-03 13:51:45.533843"	98	5.89712131666667
"S210203"	"Response_Inhibition"	"LEFT"	"Time_Max_Exceeded"	1500.06996730001	1216.6666691	n/a	n/a	n/a	n/a	n/a	n/a	n/a	"2021-02-03 13:51:46.761169"	"2021-02-03 13:51:48.264429"	99	5.89712131666667
"S210203"	"Response_Inhibition"	"LEFT"	"LEFT"	644.443099999989	583.3333345	n/a	n/a	n/a	n/a	n/a	n/a	n/a	"2021-02-03 13:51:48.857349"	"2021-02-03 13:51:49.708692"	100	5.89712131666667
"S210203"	"Response_Inhibition"	"RIGHT"	"Time_Max_Exceeded"	1500.06336669996	766.6666682	n/a	n/a	n/a	n/a	n/a	n/a	n/a	"2021-02-03 13:51:50.483658"	"2021-02-03 13:51:51.987812"	101	5.89712131666667
"S210203"	"Response_Inhibition"	"LEFT"	"LEFT"	659.472899999969	550.0000011	n/a	n/a	n/a	n/a	n/a	n/a	n/a	"2021-02-03 13:51:52.545837"	"2021-02-03 13:51:53.414213"	102	5.89712131666667
"S210203"	"Response_Inhibition"	"RIGHT"	"Time_Max_Exceeded"	1500.06130049997	1066.6666688	n/a	n/a	n/a	n/a	n/a	n/a	n/a	"2021-02-03 13:51:54.489423"	"2021-02-03 13:51:55.992187"	103	5.89712131666667
"S210203"	"Response_Inhibition"	"RIGHT"	"Time_Max_Exceeded"	1500.0679339	1433.3333362	n/a	n/a	n/a	n/a	n/a	n/a	n/a	"2021-02-03 13:51:57.437509"	"2021-02-03 13:51:58.941122"	104	5.89712131666667
"S210203"	"Response_Inhibition"	"LEFT"	"LEFT"	810.242700000003	1250.0000025	n/a	n/a	n/a	n/a	n/a	n/a	n/a	"2021-02-03 13:52:00.202672"	"2021-02-03 13:52:01.224752"	105	5.89712131666667
"S210203"	"Response_Inhibition"	"RIGHT"	"RIGHT"	490.762199999949	1383.3333361	n/a	n/a	n/a	n/a	n/a	n/a	n/a	"2021-02-03 13:52:02.618317"	"2021-02-03 13:52:03.316450"	106	5.89712131666667
"S210203"	"Response_Inhibition"	"LEFT"	"LEFT"	692.57349999998	1500.000003	n/a	n/a	n/a	n/a	n/a	n/a	n/a	"2021-02-03 13:52:04.825639"	"2021-02-03 13:52:05.725477"	107	5.89712131666667
"S210203"	"Response_Inhibition"	"RIGHT"	"RIGHT"	588.116300000024	700.0000014	n/a	n/a	n/a	n/a	n/a	n/a	n/a	"2021-02-03 13:52:06.433807"	"2021-02-03 13:52:07.230265"	108	5.89712131666667
"S210203"	"Response_Inhibition"	"RIGHT"	"RIGHT"	670.336799999973	1216.6666691	n/a	n/a	n/a	n/a	n/a	n/a	n/a	"2021-02-03 13:52:08.455411"	"2021-02-03 13:52:09.334011"	109	5.89712131666667
"S210203"	"Response_Inhibition"	"LEFT"	"LEFT"	587.880699999914	683.3333347	n/a	n/a	n/a	n/a	n/a	n/a	n/a	"2021-02-03 13:52:10.025385"	"2021-02-03 13:52:10.820730"	110	5.89712131666667
"S210203"	"Response_Inhibition"	"LEFT"	"LEFT"	727.113599999939	1033.3333354	n/a	n/a	n/a	n/a	n/a	n/a	n/a	"2021-02-03 13:52:11.862533"	"2021-02-03 13:52:12.797536"	111	5.89712131666667
"S210203"	"Response_Inhibition"	"LEFT"	"Time_Max_Exceeded"	1500.05976729999	666.666668	n/a	n/a	n/a	n/a	n/a	n/a	n/a	"2021-02-03 13:52:13.472885"	"2021-02-03 13:52:14.975589"	112	5.89712131666667
"S210203"	"Response_Inhibition"	"LEFT"	"LEFT"	730.548699999986	650.0000013	n/a	n/a	n/a	n/a	n/a	n/a	n/a	"2021-02-03 13:52:15.634794"	"2021-02-03 13:52:16.573993"	113	5.89712131666667
"S210203"	"Response_Inhibition"	"LEFT"	"Time_Max_Exceeded"	1500.05340020005	950.0000019	n/a	n/a	n/a	n/a	n/a	n/a	n/a	"2021-02-03 13:52:17.533037"	"2021-02-03 13:52:19.036007"	114	5.89712131666667
"S210203"	"Response_Inhibition"	"LEFT"	"Time_Max_Exceeded"	1500.06050010006	766.6666682	n/a	n/a	n/a	n/a	n/a	n/a	n/a	"2021-02-03 13:52:19.810969"	"2021-02-03 13:52:21.314604"	115	5.89712131666667
"S210203"	"Response_Inhibition"	"LEFT"	"LEFT"	731.482399999891	750.0000015	n/a	n/a	n/a	n/a	n/a	n/a	n/a	"2021-02-03 13:52:22.074385"	"2021-02-03 13:52:23.013892"	116	5.89712131666667
"S210203"	"Response_Inhibition"	"RIGHT"	"RIGHT"	348.411999999939	1466.6666696	n/a	n/a	n/a	n/a	n/a	n/a	n/a	"2021-02-03 13:52:24.488939"	"2021-02-03 13:52:25.044589"	117	5.89712131666667
"S210203"	"Response_Inhibition"	"LEFT"	"LEFT"	930.197199999952	1150.0000023	n/a	n/a	n/a	n/a	n/a	n/a	n/a	"2021-02-03 13:52:26.203798"	"2021-02-03 13:52:27.341947"	118	5.89712131666667
"S210203"	"Response_Inhibition"	"LEFT"	"LEFT"	580.371300000024	1050.0000021	n/a	n/a	n/a	n/a	n/a	n/a	n/a	"2021-02-03 13:52:28.401329"	"2021-02-03 13:52:29.189402"	119	5.89712131666667
"S210203"	"Response_Inhibition"	"RIGHT"	"RIGHT"	565.133100000025	666.666668	n/a	n/a	n/a	n/a	n/a	n/a	n/a	"2021-02-03 13:52:29.864596"	"2021-02-03 13:52:30.636646"	120	5.89712131666667
"S210203"	"Response_Inhibition"	"RIGHT"	"RIGHT"	765.684800000031	1483.3333363	n/a	n/a	n/a	n/a	n/a	n/a	n/a	"2021-02-03 13:52:32.128063"	"2021-02-03 13:52:33.102246"	121	5.89712131666667
"S210203"	"Response_Inhibition"	"RIGHT"	"Time_Max_Exceeded"	1500.04856680009	1366.6666694	n/a	n/a	n/a	n/a	n/a	n/a	n/a	"2021-02-03 13:52:34.477800"	"2021-02-03 13:52:35.980963"	122	5.89712131666667
"S210203"	"Response_Inhibition"	"LEFT"	"Time_Max_Exceeded"	1500.0599	1316.6666693	n/a	n/a	n/a	n/a	n/a	n/a	n/a	"2021-02-03 13:52:37.307166"	"2021-02-03 13:52:38.807583"	123	5.89712131666667
"S210203"	"Response_Inhibition"	"RIGHT"	"Time_Max_Exceeded"	1500.06293340001	900.0000018	n/a	n/a	n/a	n/a	n/a	n/a	n/a	"2021-02-03 13:52:39.716770"	"2021-02-03 13:52:41.220352"	124	5.89712131666667
"S210203"	"Response_Inhibition"	"LEFT"	"LEFT"	686.148000000003	1266.6666692	n/a	n/a	n/a	n/a	n/a	n/a	n/a	"2021-02-03 13:52:42.496081"	"2021-02-03 13:52:43.390140"	125	5.89712131666667
"S210203"	"Response_Inhibition"	"RIGHT"	"RIGHT"	617.293099999983	550.0000011	n/a	n/a	n/a	n/a	n/a	n/a	n/a	"2021-02-03 13:52:43.948492"	"2021-02-03 13:52:44.774231"	126	5.89712131666667
"S210203"	"Response_Inhibition"	"RIGHT"	"RIGHT"	668.495000000007	1250.0000025	n/a	n/a	n/a	n/a	n/a	n/a	n/a	"2021-02-03 13:52:46.032614"	"2021-02-03 13:52:46.908456"	127	5.89712131666667
"S210203"	"Response_Inhibition"	"RIGHT"	"RIGHT"	739.375600000017	1133.3333356	n/a	n/a	n/a	n/a	n/a	n/a	n/a	"2021-02-03 13:52:48.050782"	"2021-02-03 13:52:48.996688"	128	5.89712131666667
"S210203"	"Response_Inhibition"	"RIGHT"	"RIGHT"	579.842699999972	716.6666681	n/a	n/a	n/a	n/a	n/a	n/a	n/a	"2021-02-03 13:52:49.721867"	"2021-02-03 13:52:50.509933"	129	5.89712131666667
"S210203"	"Response_Inhibition"	"LEFT"	"LEFT"	878.047699999911	633.3333346	n/a	n/a	n/a	n/a	n/a	n/a	n/a	"2021-02-03 13:52:51.152046"	"2021-02-03 13:52:52.238305"	130	5.89712131666667
"S210203"	"Response_Inhibition"	"RIGHT"	"RIGHT"	433.016500000008	1150.0000023	n/a	n/a	n/a	n/a	n/a	n/a	n/a	"2021-02-03 13:52:53.396328"	"2021-02-03 13:52:54.037821"	131	5.89712131666667
"S210203"	"Response_Inhibition"	"RIGHT"	"RIGHT"	440.646134000045	1283.3333359	n/a	n/a	n/a	n/a	n/a	n/a	n/a	"2021-02-03 13:52:55.330066"	"2021-02-03 13:52:55.982228"	132	5.89712131666667
"S210203"	"Response_Inhibition"	"LEFT"	"LEFT"	732.103400000028	1266.6666692	n/a	n/a	n/a	n/a	n/a	n/a	n/a	"2021-02-03 13:52:57.257583"	"2021-02-03 13:52:58.198038"	133	5.89712131666667
"S210203"	"Response_Inhibition"	"LEFT"	"Time_Max_Exceeded"	1500.06166669997	633.3333346	n/a	n/a	n/a	n/a	n/a	n/a	n/a	"2021-02-03 13:52:58.839399"	"2021-02-03 13:53:00.343069"	134	5.89712131666667
"S210203"	"Response_Inhibition"	"RIGHT"	"RIGHT"	523.102200000039	850.0000017	n/a	n/a	n/a	n/a	n/a	n/a	n/a	"2021-02-03 13:53:01.202838"	"2021-02-03 13:53:01.933970"	135	5.89712131666667
"S210203"	"Response_Inhibition"	"RIGHT"	"RIGHT"	543.745899999976	983.3333353	n/a	n/a	n/a	n/a	n/a	n/a	n/a	"2021-02-03 13:53:02.926091"	"2021-02-03 13:53:03.677349"	136	5.89712131666667
"S210203"	"Response_Inhibition"	"LEFT"	"LEFT"	620.553399999949	1483.3333363	n/a	n/a	n/a	n/a	n/a	n/a	n/a	"2021-02-03 13:53:05.169253"	"2021-02-03 13:53:05.998044"	137	5.89712131666667
"S210203"	"Response_Inhibition"	"RIGHT"	"RIGHT"	661.635799999999	600.0000012	n/a	n/a	n/a	n/a	n/a	n/a	n/a	"2021-02-03 13:53:06.607430"	"2021-02-03 13:53:07.476641"	138	5.89712131666667
"S210203"	"Response_Inhibition"	"LEFT"	"LEFT"	512.185900000077	1400.0000028	n/a	n/a	n/a	n/a	n/a	n/a	n/a	"2021-02-03 13:53:08.885219"	"2021-02-03 13:53:09.605869"	139	5.89712131666667
"S210203"	"Response_Inhibition"	"LEFT"	"LEFT"	696.147399999973	950.0000019	n/a	n/a	n/a	n/a	n/a	n/a	n/a	"2021-02-03 13:53:10.565647"	"2021-02-03 13:53:11.470128"	140	5.89712131666667
"S210203"	"Response_Inhibition"	"RIGHT"	"RIGHT"	511.823400000026	1183.3333357	n/a	n/a	n/a	n/a	n/a	n/a	n/a	"2021-02-03 13:53:12.661650"	"2021-02-03 13:53:13.380571"	141	5.89712131666667
"S210203"	"Response_Inhibition"	"LEFT"	"LEFT"	541.646399999991	1050.0000021	n/a	n/a	n/a	n/a	n/a	n/a	n/a	"2021-02-03 13:53:14.439829"	"2021-02-03 13:53:15.189383"	142	5.89712131666667
"S210203"	"Response_Inhibition"	"RIGHT"	"Time_Max_Exceeded"	1500.05136689997	1233.3333358	n/a	n/a	n/a	n/a	n/a	n/a	n/a	"2021-02-03 13:53:16.431612"	"2021-02-03 13:53:17.934508"	143	5.89712131666667
"S210203"	"Response_Inhibition"	"RIGHT"	"Time_Max_Exceeded"	1500.04803379997	1166.666669	n/a	n/a	n/a	n/a	n/a	n/a	n/a	"2021-02-03 13:53:19.111027"	"2021-02-03 13:53:20.614312"	144	5.89712131666667
"S210203"	"Response_Inhibition"	"LEFT"	"Time_Max_Exceeded"	1500.05170020006	1233.3333358	n/a	n/a	n/a	n/a	n/a	n/a	n/a	"2021-02-03 13:53:21.857576"	"2021-02-03 13:53:23.360961"	145	5.89712131666667
"S210203"	"Response_Inhibition"	"RIGHT"	"RIGHT"	478.201799999965	1150.0000023	n/a	n/a	n/a	n/a	n/a	n/a	n/a	"2021-02-03 13:53:24.518913"	"2021-02-03 13:53:25.206155"	146	5.89712131666667
"S210203"	"Response_Inhibition"	"RIGHT"	"Time_Max_Exceeded"	1500.05743379992	683.3333347	n/a	n/a	n/a	n/a	n/a	n/a	n/a	"2021-02-03 13:53:25.898050"	"2021-02-03 13:53:27.401531"	147	5.89712131666667
"S210203"	"Response_Inhibition"	"RIGHT"	"RIGHT"	932.665899999961	1366.6666694	n/a	n/a	n/a	n/a	n/a	n/a	n/a	"2021-02-03 13:53:28.776690"	"2021-02-03 13:53:29.918086"	148	5.89712131666667
"S210203"	"Response_Inhibition"	"RIGHT"	"Time_Max_Exceeded"	1500.05383360004	683.3333347	n/a	n/a	n/a	n/a	n/a	n/a	n/a	"2021-02-03 13:53:30.610997"	"2021-02-03 13:53:32.114748"	149	5.89712131666667
"S210203"	"Response_Inhibition"	"RIGHT"	"RIGHT"	929.02939999999	1000.000002	n/a	n/a	n/a	n/a	n/a	n/a	n/a	"2021-02-03 13:53:33.124595"	"2021-02-03 13:53:34.261151"	150	5.89712131666667
"S210203"	"Response_Inhibition"	"RIGHT"	"RIGHT"	754.030900000089	950.0000019	n/a	n/a	n/a	n/a	n/a	n/a	n/a	"2021-02-03 13:53:35.219253"	"2021-02-03 13:53:36.181389"	151	5.89712131666667
"S210203"	"Response_Inhibition"	"LEFT"	"Time_Max_Exceeded"	1500.07313340003	1466.6666696	n/a	n/a	n/a	n/a	n/a	n/a	n/a	"2021-02-03 13:53:37.656661"	"2021-02-03 13:53:39.160524"	152	5.89712131666667
"S210203"	"Response_Inhibition"	"LEFT"	"LEFT"	868.488200000002	1366.6666694	n/a	n/a	n/a	n/a	n/a	n/a	n/a	"2021-02-03 13:53:40.537228"	"2021-02-03 13:53:41.613437"	153	5.89712131666667
"S210203"	"Response_Inhibition"	"LEFT"	"Time_Max_Exceeded"	1500.05366719999	1283.3333359	n/a	n/a	n/a	n/a	n/a	n/a	n/a	"2021-02-03 13:53:42.905220"	"2021-02-03 13:53:44.408551"	154	5.89712131666667
"S210203"	"Response_Inhibition"	"LEFT"	"LEFT"	740.465999999969	783.3333349	n/a	n/a	n/a	n/a	n/a	n/a	n/a	"2021-02-03 13:53:45.200977"	"2021-02-03 13:53:46.149046"	155	5.89712131666667
"S210203"	"Response_Inhibition"	"RIGHT"	"RIGHT"	647.049299999935	1416.6666695	n/a	n/a	n/a	n/a	n/a	n/a	n/a	"2021-02-03 13:53:47.574016"	"2021-02-03 13:53:48.428729"	156	5.89712131666667
"S210203"	"Response_Inhibition"	"LEFT"	"LEFT"	746.039300000007	533.3333344	n/a	n/a	n/a	n/a	n/a	n/a	n/a	"2021-02-03 13:53:48.971865"	"2021-02-03 13:53:49.926189"	157	5.89712131666667
"S210203"	"Response_Inhibition"	"LEFT"	"Time_Max_Exceeded"	1500.05880049992	916.6666685	n/a	n/a	n/a	n/a	n/a	n/a	n/a	"2021-02-03 13:53:50.851222"	"2021-02-03 13:53:52.354880"	158	5.89712131666667
"S210203"	"Response_Inhibition"	"RIGHT"	"RIGHT"	728.946199999996	1416.6666695	n/a	n/a	n/a	n/a	n/a	n/a	n/a	"2021-02-03 13:53:53.780092"	"2021-02-03 13:53:54.717836"	159	5.89712131666667
"S210203"	"Response_Inhibition"	"LEFT"	"LEFT"	705.834999999979	933.3333352	n/a	n/a	n/a	n/a	n/a	n/a	n/a	"2021-02-03 13:53:55.659288"	"2021-02-03 13:53:56.572914"	160	5.89712131666667
"S210203"	"Response_Selection"	"LEFT"	"LEFT"	379.263899999984	1066.6666688	n/a	n/a	n/a	n/a	n/a	n/a	n/a	"2021-02-03 13:45:58.066278"	"2021-02-03 13:45:58.653554"	1	2.88968811666667
"S210203"	"Response_Selection"	"RIGHT"	"RIGHT"	281.448600000004	966.6666686	n/a	n/a	n/a	n/a	n/a	n/a	n/a	"2021-02-03 13:45:59.628458"	"2021-02-03 13:46:00.118692"	2	2.88968811666667
"S210203"	"Response_Selection"	"LEFT"	"LEFT"	288.185199999987	916.6666685	n/a	n/a	n/a	n/a	n/a	n/a	n/a	"2021-02-03 13:46:01.045638"	"2021-02-03 13:46:01.541340"	3	2.88968811666667
"S210203"	"Response_Selection"	"LEFT"	"LEFT"	329.388300000005	1350.0000027	n/a	n/a	n/a	n/a	n/a	n/a	n/a	"2021-02-03 13:46:02.901100"	"2021-02-03 13:46:03.438168"	4	2.88968811666667
"S210203"	"Response_Selection"	"RIGHT"	"RIGHT"	314.74639999999	700.0000014	n/a	n/a	n/a	n/a	n/a	n/a	n/a	"2021-02-03 13:46:04.146860"	"2021-02-03 13:46:04.669827"	5	2.88968811666667
"S210203"	"Response_Selection"	"RIGHT"	"RIGHT"	330.452799999989	916.6666685	n/a	n/a	n/a	n/a	n/a	n/a	n/a	"2021-02-03 13:46:05.595858"	"2021-02-03 13:46:06.134220"	6	2.88968811666667
"S210203"	"Response_Selection"	"RIGHT"	"RIGHT"	334.764100000029	1416.6666695	n/a	n/a	n/a	n/a	n/a	n/a	n/a	"2021-02-03 13:46:07.559502"	"2021-02-03 13:46:08.102296"	7	2.88968811666667
"S210203"	"Response_Selection"	"LEFT"	"LEFT"	276.534799999979	1466.6666696	n/a	n/a	n/a	n/a	n/a	n/a	n/a	"2021-02-03 13:46:09.577565"	"2021-02-03 13:46:10.062268"	8	2.88968811666667
"S210203"	"Response_Selection"	"RIGHT"	"RIGHT"	309.82419999998	633.3333346	n/a	n/a	n/a	n/a	n/a	n/a	n/a	"2021-02-03 13:46:10.704550"	"2021-02-03 13:46:11.223001"	9	2.88968811666667
"S210203"	"Response_Selection"	"LEFT"	"LEFT"	378.582800000004	500.000001	n/a	n/a	n/a	n/a	n/a	n/a	n/a	"2021-02-03 13:46:11.731672"	"2021-02-03 13:46:12.317621"	10	2.88968811666667
"S210203"	"Response_Selection"	"LEFT"	"LEFT"	350.947899999994	1033.3333354	n/a	n/a	n/a	n/a	n/a	n/a	n/a	"2021-02-03 13:46:13.359335"	"2021-02-03 13:46:13.917800"	11	2.88968811666667
"S210203"	"Response_Selection"	"LEFT"	"LEFT"	366.548399999999	1216.6666691	n/a	n/a	n/a	n/a	n/a	n/a	n/a	"2021-02-03 13:46:15.143652"	"2021-02-03 13:46:15.717391"	12	2.88968811666667
"S210203"	"Response_Selection"	"RIGHT"	"RIGHT"	305.262800000037	1166.666669	n/a	n/a	n/a	n/a	n/a	n/a	n/a	"2021-02-03 13:46:16.892934"	"2021-02-03 13:46:17.405562"	13	2.88968811666667
"S210203"	"Response_Selection"	"RIGHT"	"RIGHT"	381.954800000017	1250.0000025	n/a	n/a	n/a	n/a	n/a	n/a	n/a	"2021-02-03 13:46:18.664409"	"2021-02-03 13:46:19.253813"	14	2.88968811666667
"S210203"	"Response_Selection"	"RIGHT"	"RIGHT"	344.373899999994	1366.6666694	n/a	n/a	n/a	n/a	n/a	n/a	n/a	"2021-02-03 13:46:20.629249"	"2021-02-03 13:46:21.182767"	15	2.88968811666667
"S210203"	"Response_Selection"	"RIGHT"	"RIGHT"	299.296900000002	1083.3333355	n/a	n/a	n/a	n/a	n/a	n/a	n/a	"2021-02-03 13:46:22.275119"	"2021-02-03 13:46:22.781955"	16	2.88968811666667
"S210203"	"Response_Selection"	"LEFT"	"LEFT"	301.129000000003	1450.0000029	n/a	n/a	n/a	n/a	n/a	n/a	n/a	"2021-02-03 13:46:24.240828"	"2021-02-03 13:46:24.749453"	17	2.88968811666667
"S210203"	"Response_Selection"	"RIGHT"	"RIGHT"	341.68219999998	650.0000013	n/a	n/a	n/a	n/a	n/a	n/a	n/a	"2021-02-03 13:46:25.407939"	"2021-02-03 13:46:25.957643"	18	2.88968811666667
"S210203"	"Response_Selection"	"RIGHT"	"RIGHT"	337.554899999986	1350.0000027	n/a	n/a	n/a	n/a	n/a	n/a	n/a	"2021-02-03 13:46:27.316750"	"2021-02-03 13:46:27.861428"	19	2.88968811666667
"S210203"	"Response_Selection"	"LEFT"	"LEFT"	359.59889999998	1200.0000024	n/a	n/a	n/a	n/a	n/a	n/a	n/a	"2021-02-03 13:46:29.070338"	"2021-02-03 13:46:29.637954"	20	2.88968811666667
"S210203"	"Response_Selection"	"LEFT"	"LEFT"	362.815900000044	1500.000003	n/a	n/a	n/a	n/a	n/a	n/a	n/a	"2021-02-03 13:46:31.147088"	"2021-02-03 13:46:31.717561"	21	2.88968811666667
"S210203"	"Response_Selection"	"LEFT"	"LEFT"	378.357900000026	1116.6666689	n/a	n/a	n/a	n/a	n/a	n/a	n/a	"2021-02-03 13:46:32.843401"	"2021-02-03 13:46:33.430600"	22	2.88968811666667
"S210203"	"Response_Selection"	"LEFT"	"LEFT"	387.675000000002	1083.3333355	n/a	n/a	n/a	n/a	n/a	n/a	n/a	"2021-02-03 13:46:34.522051"	"2021-02-03 13:46:35.118080"	23	2.88968811666667
"S210203"	"Response_Selection"	"RIGHT"	"RIGHT"	310.683600000004	1216.6666691	n/a	n/a	n/a	n/a	n/a	n/a	n/a	"2021-02-03 13:46:36.342885"	"2021-02-03 13:46:36.862127"	24	2.88968811666667
"S210203"	"Response_Selection"	"RIGHT"	"RIGHT"	439.939900000013	783.3333349	n/a	n/a	n/a	n/a	n/a	n/a	n/a	"2021-02-03 13:46:37.653910"	"2021-02-03 13:46:38.301436"	25	2.88968811666667
"S210203"	"Response_Selection"	"RIGHT"	"RIGHT"	349.822600000039	833.333335	n/a	n/a	n/a	n/a	n/a	n/a	n/a	"2021-02-03 13:46:39.144297"	"2021-02-03 13:46:39.701593"	26	2.88968811666667
"S210203"	"Response_Selection"	"LEFT"	"LEFT"	371.856500000035	700.0000014	n/a	n/a	n/a	n/a	n/a	n/a	n/a	"2021-02-03 13:46:40.409787"	"2021-02-03 13:46:40.990234"	27	2.88968811666667
"S210203"	"Response_Selection"	"LEFT"	"LEFT"	410.172100000011	533.3333344	n/a	n/a	n/a	n/a	n/a	n/a	n/a	"2021-02-03 13:46:41.531945"	"2021-02-03 13:46:42.150333"	28	2.88968811666667
"S210203"	"Response_Selection"	"LEFT"	"LEFT"	392.9756	750.0000015	n/a	n/a	n/a	n/a	n/a	n/a	n/a	"2021-02-03 13:46:42.908579"	"2021-02-03 13:46:43.509981"	29	2.88968811666667
"S210203"	"Response_Selection"	"RIGHT"	"RIGHT"	312.188600000013	800.0000016	n/a	n/a	n/a	n/a	n/a	n/a	n/a	"2021-02-03 13:46:44.318115"	"2021-02-03 13:46:44.837689"	30	2.88968811666667
"S210203"	"Response_Selection"	"LEFT"	"LEFT"	310.685300000046	1400.0000028	n/a	n/a	n/a	n/a	n/a	n/a	n/a	"2021-02-03 13:46:46.247057"	"2021-02-03 13:46:46.765669"	31	2.88968811666667
"S210203"	"Response_Selection"	"LEFT"	"LEFT"	366.640899999993	633.3333346	n/a	n/a	n/a	n/a	n/a	n/a	n/a	"2021-02-03 13:46:47.407345"	"2021-02-03 13:46:47.982484"	32	2.88968811666667
"S210203"	"Response_Selection"	"RIGHT"	"RIGHT"	363.427999999999	883.3333351	n/a	n/a	n/a	n/a	n/a	n/a	n/a	"2021-02-03 13:46:48.874962"	"2021-02-03 13:46:49.447153"	33	2.88968811666667
"S210203"	"Response_Selection"	"RIGHT"	"RIGHT"	480.108099999995	533.3333344	n/a	n/a	n/a	n/a	n/a	n/a	n/a	"2021-02-03 13:46:49.989380"	"2021-02-03 13:46:50.676868"	34	2.88968811666667
"S210203"	"Response_Selection"	"LEFT"	"LEFT"	336.305799999991	600.0000012	n/a	n/a	n/a	n/a	n/a	n/a	n/a	"2021-02-03 13:46:51.285784"	"2021-02-03 13:46:51.830451"	35	2.88968811666667
"S210203"	"Response_Selection"	"LEFT"	"LEFT"	394.081200000016	933.3333352	n/a	n/a	n/a	n/a	n/a	n/a	n/a	"2021-02-03 13:46:52.771958"	"2021-02-03 13:46:53.373628"	36	2.88968811666667
"S210203"	"Response_Selection"	"LEFT"	"LEFT"	475.146900000027	883.3333351	n/a	n/a	n/a	n/a	n/a	n/a	n/a	"2021-02-03 13:46:54.266832"	"2021-02-03 13:46:54.949524"	37	2.88968811666667
"S210203"	"Response_Selection"	"LEFT"	"LEFT"	387.568999999985	733.3333348	n/a	n/a	n/a	n/a	n/a	n/a	n/a	"2021-02-03 13:46:55.690568"	"2021-02-03 13:46:56.285851"	38	2.88968811666667
"S210203"	"Response_Selection"	"LEFT"	"LEFT"	352.81329999998	1166.666669	n/a	n/a	n/a	n/a	n/a	n/a	n/a	"2021-02-03 13:46:57.461448"	"2021-02-03 13:46:58.021710"	39	2.88968811666667
"S210203"	"Response_Selection"	"LEFT"	"LEFT"	379.945099999986	1266.6666692	n/a	n/a	n/a	n/a	n/a	n/a	n/a	"2021-02-03 13:46:59.297715"	"2021-02-03 13:46:59.885341"	40	2.88968811666667
"S210203"	"Response_Selection"	"LEFT"	"LEFT"	409.056499999963	583.3333345	n/a	n/a	n/a	n/a	n/a	n/a	n/a	"2021-02-03 13:47:00.476816"	"2021-02-03 13:47:01.094164"	41	2.88968811666667
"S210203"	"Response_Selection"	"RIGHT"	"RIGHT"	337.907400000006	933.3333352	n/a	n/a	n/a	n/a	n/a	n/a	n/a	"2021-02-03 13:47:02.035472"	"2021-02-03 13:47:02.582245"	42	2.88968811666667
"S210203"	"Response_Selection"	"RIGHT"	"RIGHT"	347.719600000005	683.3333347	n/a	n/a	n/a	n/a	n/a	n/a	n/a	"2021-02-03 13:47:03.274481"	"2021-02-03 13:47:03.831188"	43	2.88968811666667
"S210203"	"Response_Selection"	"LEFT"	"LEFT"	302.863899999977	783.3333349	n/a	n/a	n/a	n/a	n/a	n/a	n/a	"2021-02-03 13:47:04.622729"	"2021-02-03 13:47:05.133400"	44	2.88968811666667
"S210203"	"Response_Selection"	"LEFT"	"LEFT"	374.041099999999	1250.0000025	n/a	n/a	n/a	n/a	n/a	n/a	n/a	"2021-02-03 13:47:06.391401"	"2021-02-03 13:47:06.974076"	45	2.88968811666667
"S210203"	"Response_Selection"	"RIGHT"	"RIGHT"	280.30160000003	1133.3333356	n/a	n/a	n/a	n/a	n/a	n/a	n/a	"2021-02-03 13:47:08.117709"	"2021-02-03 13:47:08.605401"	46	2.88968811666667
"S210203"	"Response_Selection"	"RIGHT"	"RIGHT"	385.655100000008	550.0000011	n/a	n/a	n/a	n/a	n/a	n/a	n/a	"2021-02-03 13:47:09.164476"	"2021-02-03 13:47:09.758290"	47	2.88968811666667
"S210203"	"Response_Selection"	"LEFT"	"LEFT"	283.7806	683.3333347	n/a	n/a	n/a	n/a	n/a	n/a	n/a	"2021-02-03 13:47:10.450513"	"2021-02-03 13:47:10.943231"	48	2.88968811666667
"S210203"	"Response_Selection"	"RIGHT"	"RIGHT"	417.189599999972	500.000001	n/a	n/a	n/a	n/a	n/a	n/a	n/a	"2021-02-03 13:47:11.453008"	"2021-02-03 13:47:12.077834"	49	2.88968811666667
"S210203"	"Response_Selection"	"LEFT"	"LEFT"	328.252500000019	966.6666686	n/a	n/a	n/a	n/a	n/a	n/a	n/a	"2021-02-03 13:47:13.053306"	"2021-02-03 13:47:13.589655"	50	2.88968811666667
"S210203"	"Response_Selection"	"RIGHT"	"RIGHT"	322.907799999996	733.3333348	n/a	n/a	n/a	n/a	n/a	n/a	n/a	"2021-02-03 13:47:14.331259"	"2021-02-03 13:47:14.861415"	51	2.88968811666667
"S210203"	"Response_Selection"	"LEFT"	"LEFT"	296.945899999969	983.3333353	n/a	n/a	n/a	n/a	n/a	n/a	n/a	"2021-02-03 13:47:15.853037"	"2021-02-03 13:47:16.357685"	52	2.88968811666667
"S210203"	"Response_Selection"	"RIGHT"	"RIGHT"	356.912299999976	1466.6666696	n/a	n/a	n/a	n/a	n/a	n/a	n/a	"2021-02-03 13:47:17.833191"	"2021-02-03 13:47:18.397453"	53	2.88968811666667
"S210203"	"Response_Selection"	"LEFT"	"LEFT"	332.166700000016	866.6666684	n/a	n/a	n/a	n/a	n/a	n/a	n/a	"2021-02-03 13:47:19.274152"	"2021-02-03 13:47:19.814241"	54	2.88968811666667
"S210203"	"Response_Selection"	"LEFT"	"LEFT"	335.178199999973	800.0000016	n/a	n/a	n/a	n/a	n/a	n/a	n/a	"2021-02-03 13:47:20.622844"	"2021-02-03 13:47:21.165857"	55	2.88968811666667
"S210203"	"Response_Selection"	"RIGHT"	"RIGHT"	348.777999999982	866.6666684	n/a	n/a	n/a	n/a	n/a	n/a	n/a	"2021-02-03 13:47:22.041330"	"2021-02-03 13:47:22.597859"	56	2.88968811666667
"S210203"	"Response_Selection"	"LEFT"	"LEFT"	305.834800000014	550.0000011	n/a	n/a	n/a	n/a	n/a	n/a	n/a	"2021-02-03 13:47:23.155873"	"2021-02-03 13:47:23.669524"	57	2.88968811666667
"S210203"	"Response_Selection"	"RIGHT"	"RIGHT"	328.533800000002	583.3333345	n/a	n/a	n/a	n/a	n/a	n/a	n/a	"2021-02-03 13:47:24.261045"	"2021-02-03 13:47:24.797885"	58	2.88968811666667
"S210203"	"Response_Selection"	"RIGHT"	"RIGHT"	359.59710000003	600.0000012	n/a	n/a	n/a	n/a	n/a	n/a	n/a	"2021-02-03 13:47:25.405895"	"2021-02-03 13:47:25.974133"	59	2.88968811666667
"S210203"	"Response_Selection"	"RIGHT"	"RIGHT"	363.247800000011	1300.0000026	n/a	n/a	n/a	n/a	n/a	n/a	n/a	"2021-02-03 13:47:27.282752"	"2021-02-03 13:47:27.853961"	60	2.88968811666667
"S210203"	"Response_Selection"	"LEFT"	"LEFT"	281.658400000026	1133.3333356	n/a	n/a	n/a	n/a	n/a	n/a	n/a	"2021-02-03 13:47:28.995788"	"2021-02-03 13:47:29.485335"	61	2.88968811666667
"S210203"	"Response_Selection"	"LEFT"	"LEFT"	364.571699999999	1300.0000026	n/a	n/a	n/a	n/a	n/a	n/a	n/a	"2021-02-03 13:47:30.793947"	"2021-02-03 13:47:31.365813"	62	2.88968811666667
"S210203"	"Response_Selection"	"LEFT"	"LEFT"	336.374299999989	1366.6666694	n/a	n/a	n/a	n/a	n/a	n/a	n/a	"2021-02-03 13:47:32.741525"	"2021-02-03 13:47:33.285822"	63	2.88968811666667
"S210203"	"Response_Selection"	"LEFT"	"LEFT"	362.863300000015	1316.6666693	n/a	n/a	n/a	n/a	n/a	n/a	n/a	"2021-02-03 13:47:34.611370"	"2021-02-03 13:47:35.182202"	64	2.88968811666667
"S210203"	"Response_Selection"	"LEFT"	"LEFT"	374.706199999991	1416.6666695	n/a	n/a	n/a	n/a	n/a	n/a	n/a	"2021-02-03 13:47:36.607461"	"2021-02-03 13:47:37.189593"	65	2.88968811666667
"S210203"	"Response_Selection"	"RIGHT"	"RIGHT"	368.052700000021	1400.0000028	n/a	n/a	n/a	n/a	n/a	n/a	n/a	"2021-02-03 13:47:38.598050"	"2021-02-03 13:47:39.173476"	66	2.88968811666667
"S210203"	"Response_Selection"	"RIGHT"	"RIGHT"	369.958300000008	750.0000015	n/a	n/a	n/a	n/a	n/a	n/a	n/a	"2021-02-03 13:47:39.932368"	"2021-02-03 13:47:40.509401"	67	2.88968811666667
"S210203"	"Response_Selection"	"LEFT"	"LEFT"	350.290599999994	833.333335	n/a	n/a	n/a	n/a	n/a	n/a	n/a	"2021-02-03 13:47:41.351216"	"2021-02-03 13:47:41.909656"	68	2.88968811666667
"S210203"	"Response_Selection"	"RIGHT"	"RIGHT"	350.001599999985	1450.0000029	n/a	n/a	n/a	n/a	n/a	n/a	n/a	"2021-02-03 13:47:43.368028"	"2021-02-03 13:47:43.925757"	69	2.88968811666667
"S210203"	"Response_Selection"	"RIGHT"	"RIGHT"	367.8855	1016.6666687	n/a	n/a	n/a	n/a	n/a	n/a	n/a	"2021-02-03 13:47:44.951054"	"2021-02-03 13:47:45.527260"	70	2.88968811666667
"S210203"	"Response_Selection"	"RIGHT"	"RIGHT"	364.917500000047	1033.3333354	n/a	n/a	n/a	n/a	n/a	n/a	n/a	"2021-02-03 13:47:46.569136"	"2021-02-03 13:47:47.140702"	71	2.88968811666667
"S210203"	"Response_Selection"	"RIGHT"	"RIGHT"	459.952799999996	1500.000003	n/a	n/a	n/a	n/a	n/a	n/a	n/a	"2021-02-03 13:47:48.649385"	"2021-02-03 13:47:49.317355"	72	2.88968811666667
"S210203"	"Response_Selection"	"RIGHT"	"RIGHT"	424.768700000016	983.3333353	n/a	n/a	n/a	n/a	n/a	n/a	n/a	"2021-02-03 13:47:50.309016"	"2021-02-03 13:47:50.941864"	73	2.88968811666667
"S210203"	"Response_Selection"	"RIGHT"	"RIGHT"	375.576799999976	1200.0000024	n/a	n/a	n/a	n/a	n/a	n/a	n/a	"2021-02-03 13:47:52.150732"	"2021-02-03 13:47:52.733491"	74	2.88968811666667
"S210203"	"Response_Selection"	"RIGHT"	"RIGHT"	397.573199999954	1066.6666688	n/a	n/a	n/a	n/a	n/a	n/a	n/a	"2021-02-03 13:47:53.808675"	"2021-02-03 13:47:54.413440"	75	2.88968811666667
"S210203"	"Response_Selection"	"RIGHT"	"RIGHT"	373.249799999996	1266.6666692	n/a	n/a	n/a	n/a	n/a	n/a	n/a	"2021-02-03 13:47:55.688730"	"2021-02-03 13:47:56.269747"	76	2.88968811666667
"S210203"	"Response_Selection"	"RIGHT"	"RIGHT"	315.074699999968	1116.6666689	n/a	n/a	n/a	n/a	n/a	n/a	n/a	"2021-02-03 13:47:57.394785"	"2021-02-03 13:47:57.917394"	77	2.88968811666667
"S210203"	"Response_Selection"	"LEFT"	"LEFT"	397.770299999991	650.0000013	n/a	n/a	n/a	n/a	n/a	n/a	n/a	"2021-02-03 13:47:58.576147"	"2021-02-03 13:47:59.182168"	78	2.88968811666667
"S210203"	"Response_Selection"	"RIGHT"	"RIGHT"	338.009199999988	1316.6666693	n/a	n/a	n/a	n/a	n/a	n/a	n/a	"2021-02-03 13:48:00.507495"	"2021-02-03 13:48:01.053877"	79	2.88968811666667
"S210203"	"Response_Selection"	"LEFT"	"LEFT"	390.873700000043	1016.6666687	n/a	n/a	n/a	n/a	n/a	n/a	n/a	"2021-02-03 13:48:02.078465"	"2021-02-03 13:48:02.677816"	80	2.88968811666667
