Participant	Task	Stimulus_Side	Response	RT	ITI	Previous_Response	Previous_RT	Trial_Onset	Trial_End	Trial_Order	Duration	Conflict	Cue_Response	Cue_Response_RT	Stop_Signal	Stop_Signal_RT
S210224	Conflict_Resolution	RIGHT	RIGHT	842.896999999994	983.3333353	n/a	n/a	2021-02-24 14:05:15.967896	2021-02-24 14:05:17.019473	1	6.12111183333333	True	n/a	n/a	n/a	n/a
S210224	Conflict_Resolution	RIGHT	RIGHT	573.201999999924	1366.6666694	n/a	n/a	2021-02-24 14:05:18.405598	2021-02-24 14:05:19.185601	2	6.12111183333333	True	n/a	n/a	n/a	n/a
S210224	Conflict_Resolution	LEFT	LEFT	589.680599999951	1416.6666695	n/a	n/a	2021-02-24 14:05:20.620788	2021-02-24 14:05:21.419299	3	6.12111183333333	True	n/a	n/a	n/a	n/a
S210224	Conflict_Resolution	LEFT	LEFT	575.266800000009	916.6666685	n/a	n/a	2021-02-24 14:05:22.354885	2021-02-24 14:05:23.137439	4	6.12111183333333	True	n/a	n/a	n/a	n/a
S210224	Conflict_Resolution	RIGHT	RIGHT	417.322100000092	1483.3333363	n/a	n/a	2021-02-24 14:05:24.641401	2021-02-24 14:05:25.265840	5	6.12111183333333	False	n/a	n/a	n/a	n/a
S210224	Conflict_Resolution	RIGHT	RIGHT	471.692699999949	550.0000011	n/a	n/a	2021-02-24 14:05:25.835049	2021-02-24 14:05:26.514816	6	6.12111183333333	False	n/a	n/a	n/a	n/a
S210224	Conflict_Resolution	LEFT	LEFT	541.92379999995	733.3333348	n/a	n/a	2021-02-24 14:05:27.268832	2021-02-24 14:05:28.018720	7	6.12111183333333	False	n/a	n/a	n/a	n/a
S210224	Conflict_Resolution	RIGHT	RIGHT	514.338100000032	1416.6666695	n/a	n/a	2021-02-24 14:05:29.455781	2021-02-24 14:05:30.179271	8	6.12111183333333	True	n/a	n/a	n/a	n/a
S210224	Conflict_Resolution	LEFT	LEFT	561.707500000011	633.3333346	n/a	n/a	2021-02-24 14:05:30.832480	2021-02-24 14:05:31.601592	9	6.12111183333333	True	n/a	n/a	n/a	n/a
S210224	Conflict_Resolution	RIGHT	RIGHT	562.359599999922	1033.3333354	n/a	n/a	2021-02-24 14:05:32.656265	2021-02-24 14:05:33.426411	10	6.12111183333333	True	n/a	n/a	n/a	n/a
S210224	Conflict_Resolution	LEFT	LEFT	569.443099999944	850.0000017	n/a	n/a	2021-02-24 14:05:34.297019	2021-02-24 14:05:35.074950	11	6.12111183333333	True	n/a	n/a	n/a	n/a
S210224	Conflict_Resolution	RIGHT	RIGHT	416.133700000046	1050.0000021	n/a	n/a	2021-02-24 14:05:36.145854	2021-02-24 14:05:36.770446	12	6.12111183333333	False	n/a	n/a	n/a	n/a
S210224	Conflict_Resolution	LEFT	LEFT	491.694100000018	1016.6666687	n/a	n/a	2021-02-24 14:05:37.806639	2021-02-24 14:05:38.507343	13	6.12111183333333	True	n/a	n/a	n/a	n/a
S210224	Conflict_Resolution	LEFT	LEFT	506.146600000079	1450.0000029	n/a	n/a	2021-02-24 14:05:39.976831	2021-02-24 14:05:40.690553	14	6.12111183333333	True	n/a	n/a	n/a	n/a
S210224	Conflict_Resolution	LEFT	LEFT	495.449599999915	516.6666677	n/a	n/a	2021-02-24 14:05:41.226613	2021-02-24 14:05:41.929469	15	6.12111183333333	True	n/a	n/a	n/a	n/a
S210224	Conflict_Resolution	LEFT	LEFT	492.525200000046	1000.000002	n/a	n/a	2021-02-24 14:05:42.949832	2021-02-24 14:05:43.650525	16	6.12111183333333	True	n/a	n/a	n/a	n/a
S210224	Conflict_Resolution	LEFT	LEFT	394.024700000045	1200.0000024	n/a	n/a	2021-02-24 14:05:44.872157	2021-02-24 14:05:45.474323	17	6.12111183333333	False	n/a	n/a	n/a	n/a
S210224	Conflict_Resolution	RIGHT	RIGHT	452.765699999986	1216.6666691	n/a	n/a	2021-02-24 14:05:46.709653	2021-02-24 14:05:47.371969	18	6.12111183333333	False	n/a	n/a	n/a	n/a
S210224	Conflict_Resolution	RIGHT	RIGHT	440.395400000057	650.0000013	n/a	n/a	2021-02-24 14:05:48.042346	2021-02-24 14:05:48.689426	19	6.12111183333333	False	n/a	n/a	n/a	n/a
S210224	Conflict_Resolution	LEFT	LEFT	496.788599999945	1350.0000027	n/a	n/a	2021-02-24 14:05:50.057894	2021-02-24 14:05:50.765107	20	6.12111183333333	True	n/a	n/a	n/a	n/a
S210224	Conflict_Resolution	RIGHT	RIGHT	566.981899999973	883.3333351	n/a	n/a	2021-02-24 14:05:51.667848	2021-02-24 14:05:52.442485	21	6.12111183333333	True	n/a	n/a	n/a	n/a
S210224	Conflict_Resolution	RIGHT	RIGHT	407.842200000005	1316.6666693	n/a	n/a	2021-02-24 14:05:53.778959	2021-02-24 14:05:54.394118	22	6.12111183333333	False	n/a	n/a	n/a	n/a
S210224	Conflict_Resolution	RIGHT	RIGHT	653.070000000071	1000.000002	n/a	n/a	2021-02-24 14:05:55.413740	2021-02-24 14:05:56.274759	23	6.12111183333333	True	n/a	n/a	n/a	n/a
S210224	Conflict_Resolution	LEFT	LEFT	437.386999999944	950.0000019	n/a	n/a	2021-02-24 14:05:57.244993	2021-02-24 14:05:57.891270	24	6.12111183333333	False	n/a	n/a	n/a	n/a
S210224	Conflict_Resolution	LEFT	LEFT	432.124499999986	683.3333347	n/a	n/a	2021-02-24 14:05:58.594471	2021-02-24 14:05:59.234762	25	6.12111183333333	False	n/a	n/a	n/a	n/a
S210224	Conflict_Resolution	LEFT	LEFT	427.94200000003	1416.6666695	n/a	n/a	2021-02-24 14:06:00.670548	2021-02-24 14:06:01.305516	26	6.12111183333333	False	n/a	n/a	n/a	n/a
S210224	Conflict_Resolution	LEFT	LEFT	410.003899999992	1266.6666692	n/a	n/a	2021-02-24 14:06:02.592161	2021-02-24 14:06:03.210615	27	6.12111183333333	False	n/a	n/a	n/a	n/a
S210224	Conflict_Resolution	RIGHT	RIGHT	435.690000000022	833.333335	n/a	n/a	2021-02-24 14:06:04.062158	2021-02-24 14:06:04.708751	28	6.12111183333333	False	n/a	n/a	n/a	n/a
S210224	Conflict_Resolution	LEFT	LEFT	489.226799999983	1266.6666692	n/a	n/a	2021-02-24 14:06:05.992906	2021-02-24 14:06:06.690663	29	6.12111183333333	True	n/a	n/a	n/a	n/a
S210224	Conflict_Resolution	RIGHT	RIGHT	504.514200000017	933.3333352	n/a	n/a	2021-02-24 14:06:07.641552	2021-02-24 14:06:08.353861	30	6.12111183333333	True	n/a	n/a	n/a	n/a
S210224	Conflict_Resolution	RIGHT	RIGHT	476.794499999983	850.0000017	n/a	n/a	2021-02-24 14:06:09.221553	2021-02-24 14:06:09.906574	31	6.12111183333333	False	n/a	n/a	n/a	n/a
S210224	Conflict_Resolution	LEFT	LEFT	431.493199999977	716.6666681	n/a	n/a	2021-02-24 14:06:10.643129	2021-02-24 14:06:11.281719	32	6.12111183333333	False	n/a	n/a	n/a	n/a
S210224	Conflict_Resolution	RIGHT	RIGHT	521.056599999952	1083.3333355	n/a	n/a	2021-02-24 14:06:12.385698	2021-02-24 14:06:13.114898	33	6.12111183333333	True	n/a	n/a	n/a	n/a
S210224	Conflict_Resolution	RIGHT	RIGHT	447.116400000027	533.3333344	n/a	n/a	2021-02-24 14:06:13.667388	2021-02-24 14:06:14.322774	34	6.12111183333333	False	n/a	n/a	n/a	n/a
S210224	Conflict_Resolution	LEFT	LEFT	495.681699999977	1500.000003	n/a	n/a	2021-02-24 14:06:15.843007	2021-02-24 14:06:16.545673	35	6.12111183333333	True	n/a	n/a	n/a	n/a
S210224	Conflict_Resolution	RIGHT	RIGHT	430.890099999942	1366.6666694	n/a	n/a	2021-02-24 14:06:17.931128	2021-02-24 14:06:18.569562	36	6.12111183333333	False	n/a	n/a	n/a	n/a
S210224	Conflict_Resolution	RIGHT	LEFT	393.151699999976	1100.0000022	n/a	n/a	2021-02-24 14:06:19.689942	2021-02-24 14:06:20.292895	37	6.12111183333333	True	n/a	n/a	n/a	n/a
S210224	Conflict_Resolution	RIGHT	RIGHT	615.450399999986	1283.3333359	n/a	n/a	2021-02-24 14:06:21.594654	2021-02-24 14:06:22.417809	38	6.12111183333333	True	n/a	n/a	n/a	n/a
S210224	Conflict_Resolution	LEFT	LEFT	508.00229999993	1400.0000028	n/a	n/a	2021-02-24 14:06:23.838156	2021-02-24 14:06:24.555278	39	6.12111183333333	False	n/a	n/a	n/a	n/a
S210224	Conflict_Resolution	RIGHT	RIGHT	563.713699999994	650.0000013	n/a	n/a	2021-02-24 14:06:25.224003	2021-02-24 14:06:25.996391	40	6.12111183333333	True	n/a	n/a	n/a	n/a
S210224	Conflict_Resolution	LEFT	LEFT	422.676700000011	900.0000018	n/a	n/a	2021-02-24 14:06:26.916362	2021-02-24 14:06:27.547674	41	6.12111183333333	False	n/a	n/a	n/a	n/a
S210224	Conflict_Resolution	RIGHT	RIGHT	493.300300000101	900.0000018	n/a	n/a	2021-02-24 14:06:28.468954	2021-02-24 14:06:29.169813	42	6.12111183333333	True	n/a	n/a	n/a	n/a
S210224	Conflict_Resolution	LEFT	LEFT	454.889499999922	1350.0000027	n/a	n/a	2021-02-24 14:06:30.539152	2021-02-24 14:06:31.201713	43	6.12111183333333	False	n/a	n/a	n/a	n/a
S210224	Conflict_Resolution	LEFT	LEFT	409.410800000046	1066.6666688	n/a	n/a	2021-02-24 14:06:32.289185	2021-02-24 14:06:32.907397	44	6.12111183333333	False	n/a	n/a	n/a	n/a
S210224	Conflict_Resolution	RIGHT	RIGHT	473.218900000006	1383.3333361	n/a	n/a	2021-02-24 14:06:34.312857	2021-02-24 14:06:34.995405	45	6.12111183333333	True	n/a	n/a	n/a	n/a
S210224	Conflict_Resolution	RIGHT	RIGHT	481.793699999912	800.0000016	n/a	n/a	2021-02-24 14:06:35.816190	2021-02-24 14:06:36.506578	46	6.12111183333333	False	n/a	n/a	n/a	n/a
S210224	Conflict_Resolution	LEFT	LEFT	613.133999999945	1150.0000023	n/a	n/a	2021-02-24 14:06:37.677026	2021-02-24 14:06:38.497531	47	6.12111183333333	True	n/a	n/a	n/a	n/a
S210224	Conflict_Resolution	RIGHT	RIGHT	459.660299999996	1050.0000021	n/a	n/a	2021-02-24 14:06:39.567180	2021-02-24 14:06:40.233841	48	6.12111183333333	True	n/a	n/a	n/a	n/a
S210224	Conflict_Resolution	RIGHT	RIGHT	438.512500000002	1133.3333356	n/a	n/a	2021-02-24 14:06:41.387570	2021-02-24 14:06:42.033527	49	6.12111183333333	False	n/a	n/a	n/a	n/a
S210224	Conflict_Resolution	LEFT	LEFT	531.928799999946	583.3333345	n/a	n/a	2021-02-24 14:06:42.637910	2021-02-24 14:06:43.379279	50	6.12111183333333	True	n/a	n/a	n/a	n/a
S210224	Conflict_Resolution	RIGHT	RIGHT	434.420499999987	1433.3333362	n/a	n/a	2021-02-24 14:06:44.831763	2021-02-24 14:06:45.475022	51	6.12111183333333	True	n/a	n/a	n/a	n/a
S210224	Conflict_Resolution	LEFT	LEFT	538.350100000002	1050.0000021	n/a	n/a	2021-02-24 14:06:46.544159	2021-02-24 14:06:47.290435	52	6.12111183333333	True	n/a	n/a	n/a	n/a
S210224	Conflict_Resolution	RIGHT	RIGHT	415.176499999916	950.0000019	n/a	n/a	2021-02-24 14:06:48.259618	2021-02-24 14:06:48.883076	53	6.12111183333333	False	n/a	n/a	n/a	n/a
S210224	Conflict_Resolution	LEFT	LEFT	502.257800000052	916.6666685	n/a	n/a	2021-02-24 14:06:49.819701	2021-02-24 14:06:50.530146	54	6.12111183333333	False	n/a	n/a	n/a	n/a
S210224	Conflict_Resolution	RIGHT	RIGHT	525.969499999974	783.3333349	n/a	n/a	2021-02-24 14:06:51.331958	2021-02-24 14:06:52.066976	55	6.12111183333333	False	n/a	n/a	n/a	n/a
S210224	Conflict_Resolution	RIGHT	RIGHT	475.80030000006	1000.000002	n/a	n/a	2021-02-24 14:06:53.087062	2021-02-24 14:06:53.770188	56	6.12111183333333	False	n/a	n/a	n/a	n/a
S210224	Conflict_Resolution	LEFT	LEFT	400.287899999967	1250.0000025	n/a	n/a	2021-02-24 14:06:55.041609	2021-02-24 14:06:55.649675	57	6.12111183333333	False	n/a	n/a	n/a	n/a
S210224	Conflict_Resolution	RIGHT	RIGHT	494.222299999933	1150.0000023	n/a	n/a	2021-02-24 14:06:56.820031	2021-02-24 14:06:57.521968	58	6.12111183333333	False	n/a	n/a	n/a	n/a
S210224	Conflict_Resolution	LEFT	LEFT	506.385499999965	1100.0000022	n/a	n/a	2021-02-24 14:06:58.639722	2021-02-24 14:06:59.353779	59	6.12111183333333	True	n/a	n/a	n/a	n/a
S210224	Conflict_Resolution	RIGHT	RIGHT	434.186999999952	1283.3333359	n/a	n/a	2021-02-24 14:07:00.656368	2021-02-24 14:07:01.298416	60	6.12111183333333	False	n/a	n/a	n/a	n/a
S210224	Conflict_Resolution	RIGHT	RIGHT	597.883400000001	733.3333348	n/a	n/a	2021-02-24 14:07:02.052493	2021-02-24 14:07:02.858608	61	6.12111183333333	True	n/a	n/a	n/a	n/a
S210224	Conflict_Resolution	LEFT	LEFT	446.52450000001	1316.6666693	n/a	n/a	2021-02-24 14:07:04.195962	2021-02-24 14:07:04.852253	62	6.12111183333333	False	n/a	n/a	n/a	n/a
S210224	Conflict_Resolution	RIGHT	RIGHT	385.039699999993	1033.3333354	n/a	n/a	2021-02-24 14:07:05.905848	2021-02-24 14:07:06.499381	63	6.12111183333333	False	n/a	n/a	n/a	n/a
S210224	Conflict_Resolution	RIGHT	RIGHT	584.469300000023	1266.6666692	n/a	n/a	2021-02-24 14:07:07.785593	2021-02-24 14:07:08.578515	64	6.12111183333333	True	n/a	n/a	n/a	n/a
S210224	Conflict_Resolution	LEFT	LEFT	419.988099999955	1450.0000029	n/a	n/a	2021-02-24 14:07:10.046550	2021-02-24 14:07:10.676686	65	6.12111183333333	False	n/a	n/a	n/a	n/a
S210224	Conflict_Resolution	LEFT	LEFT	606.6869	900.0000018	n/a	n/a	2021-02-24 14:07:11.595195	2021-02-24 14:07:12.410202	66	6.12111183333333	True	n/a	n/a	n/a	n/a
S210224	Conflict_Resolution	RIGHT	RIGHT	508.067399999959	583.3333345	n/a	n/a	2021-02-24 14:07:13.014620	2021-02-24 14:07:13.730362	67	6.12111183333333	False	n/a	n/a	n/a	n/a
S210224	Conflict_Resolution	LEFT	LEFT	548.790599999961	1366.6666694	n/a	n/a	2021-02-24 14:07:15.117007	2021-02-24 14:07:15.874177	68	6.12111183333333	True	n/a	n/a	n/a	n/a
S210224	Conflict_Resolution	RIGHT	RIGHT	557.103600000005	800.0000016	n/a	n/a	2021-02-24 14:07:16.693617	2021-02-24 14:07:17.459961	69	6.12111183333333	True	n/a	n/a	n/a	n/a
S210224	Conflict_Resolution	RIGHT	RIGHT	511.934099999962	900.0000018	n/a	n/a	2021-02-24 14:07:18.379605	2021-02-24 14:07:19.100021	70	6.12111183333333	False	n/a	n/a	n/a	n/a
S210224	Conflict_Resolution	RIGHT	RIGHT	579.661199999919	583.3333345	n/a	n/a	2021-02-24 14:07:19.702411	2021-02-24 14:07:20.489553	71	6.12111183333333	True	n/a	n/a	n/a	n/a
S210224	Conflict_Resolution	RIGHT	RIGHT	497.996700000044	1266.6666692	n/a	n/a	2021-02-24 14:07:21.776168	2021-02-24 14:07:22.482727	72	6.12111183333333	False	n/a	n/a	n/a	n/a
S210224	Conflict_Resolution	LEFT	LEFT	541.351400000053	1200.0000024	n/a	n/a	2021-02-24 14:07:23.700873	2021-02-24 14:07:24.452288	73	6.12111183333333	True	n/a	n/a	n/a	n/a
S210224	Conflict_Resolution	LEFT	LEFT	529.828100000032	616.6666679	n/a	n/a	2021-02-24 14:07:25.088618	2021-02-24 14:07:25.825614	74	6.12111183333333	True	n/a	n/a	n/a	n/a
S210224	Conflict_Resolution	LEFT	LEFT	553.12820000006	1300.0000026	n/a	n/a	2021-02-24 14:07:27.145019	2021-02-24 14:07:27.905480	75	6.12111183333333	True	n/a	n/a	n/a	n/a
S210224	Conflict_Resolution	LEFT	LEFT	944.050199999992	533.3333344	n/a	n/a	2021-02-24 14:07:28.459064	2021-02-24 14:07:29.610558	76	6.12111183333333	False	n/a	n/a	n/a	n/a
S210224	Conflict_Resolution	LEFT	LEFT	865.674499999955	866.6666684	n/a	n/a	2021-02-24 14:07:30.496250	2021-02-24 14:07:31.569932	77	6.12111183333333	True	n/a	n/a	n/a	n/a
S210224	Conflict_Resolution	LEFT	LEFT	537.021800000048	666.666668	n/a	n/a	2021-02-24 14:07:32.257562	2021-02-24 14:07:33.002837	78	6.12111183333333	True	n/a	n/a	n/a	n/a
S210224	Conflict_Resolution	LEFT	LEFT	531.805200000008	1016.6666687	n/a	n/a	2021-02-24 14:07:34.038429	2021-02-24 14:07:34.779987	79	6.12111183333333	False	n/a	n/a	n/a	n/a
S210224	Conflict_Resolution	RIGHT	RIGHT	618.641900000057	533.3333344	n/a	n/a	2021-02-24 14:07:35.336032	2021-02-24 14:07:36.164133	80	6.12111183333333	True	n/a	n/a	n/a	n/a
S210224	Conflict_Resolution	LEFT	LEFT	582.638900000006	1066.6666688	n/a	n/a	2021-02-24 14:07:37.252020	2021-02-24 14:07:38.042367	81	6.12111183333333	True	n/a	n/a	n/a	n/a
S210224	Conflict_Resolution	RIGHT	RIGHT	504.519200000004	683.3333347	n/a	n/a	2021-02-24 14:07:38.746627	2021-02-24 14:07:39.460046	82	6.12111183333333	False	n/a	n/a	n/a	n/a
S210224	Conflict_Resolution	RIGHT	RIGHT	507.298900000023	950.0000019	n/a	n/a	2021-02-24 14:07:40.431433	2021-02-24 14:07:41.147167	83	6.12111183333333	True	n/a	n/a	n/a	n/a
S210224	Conflict_Resolution	LEFT	LEFT	556.999700000006	783.3333349	n/a	n/a	2021-02-24 14:07:41.949580	2021-02-24 14:07:42.713646	84	6.12111183333333	True	n/a	n/a	n/a	n/a
S210224	Conflict_Resolution	RIGHT	RIGHT	535.380199999963	700.0000014	n/a	n/a	2021-02-24 14:07:43.434685	2021-02-24 14:07:44.177454	85	6.12111183333333	True	n/a	n/a	n/a	n/a
S210224	Conflict_Resolution	RIGHT	RIGHT	592.487199999937	783.3333349	n/a	n/a	2021-02-24 14:07:44.978765	2021-02-24 14:07:45.783201	86	6.12111183333333	True	n/a	n/a	n/a	n/a
S210224	Conflict_Resolution	LEFT	LEFT	401.158600000031	766.6666682	n/a	n/a	2021-02-24 14:07:46.569544	2021-02-24 14:07:47.178532	87	6.12111183333333	False	n/a	n/a	n/a	n/a
S210224	Conflict_Resolution	LEFT	LEFT	607.357200000024	533.3333344	n/a	n/a	2021-02-24 14:07:47.730634	2021-02-24 14:07:48.546539	88	6.12111183333333	True	n/a	n/a	n/a	n/a
S210224	Conflict_Resolution	LEFT	LEFT	502.20139999999	1300.0000026	n/a	n/a	2021-02-24 14:07:49.868308	2021-02-24 14:07:50.578407	89	6.12111183333333	False	n/a	n/a	n/a	n/a
S210224	Conflict_Resolution	LEFT	LEFT	547.786199999905	766.6666682	n/a	n/a	2021-02-24 14:07:51.366121	2021-02-24 14:07:52.121907	90	6.12111183333333	True	n/a	n/a	n/a	n/a
S210224	Conflict_Resolution	LEFT	LEFT	626.515800000107	1466.6666696	n/a	n/a	2021-02-24 14:07:53.607283	2021-02-24 14:07:54.443040	91	6.12111183333333	True	n/a	n/a	n/a	n/a
S210224	Conflict_Resolution	RIGHT	RIGHT	462.257299999919	1100.0000022	n/a	n/a	2021-02-24 14:07:55.563830	2021-02-24 14:07:56.234731	92	6.12111183333333	False	n/a	n/a	n/a	n/a
S210224	Conflict_Resolution	LEFT	LEFT	431.279700000005	1100.0000022	n/a	n/a	2021-02-24 14:07:57.354817	2021-02-24 14:07:57.996418	93	6.12111183333333	False	n/a	n/a	n/a	n/a
S210224	Conflict_Resolution	LEFT	LEFT	478.975900000023	850.0000017	n/a	n/a	2021-02-24 14:07:58.866810	2021-02-24 14:07:59.554472	94	6.12111183333333	False	n/a	n/a	n/a	n/a
S210224	Conflict_Resolution	LEFT	LEFT	452.638999999976	783.3333349	n/a	n/a	2021-02-24 14:08:00.357195	2021-02-24 14:08:01.018944	95	6.12111183333333	False	n/a	n/a	n/a	n/a
S210224	Conflict_Resolution	LEFT	LEFT	484.448900000075	1366.6666694	n/a	n/a	2021-02-24 14:08:02.405791	2021-02-24 14:08:03.099363	96	6.12111183333333	False	n/a	n/a	n/a	n/a
S210224	Conflict_Resolution	LEFT	LEFT	472.185400000058	816.6666683	n/a	n/a	2021-02-24 14:08:03.938152	2021-02-24 14:08:04.617853	97	6.12111183333333	False	n/a	n/a	n/a	n/a
S210224	Conflict_Resolution	LEFT	LEFT	456.274900000039	866.6666684	n/a	n/a	2021-02-24 14:08:05.505982	2021-02-24 14:08:06.171332	98	6.12111183333333	False	n/a	n/a	n/a	n/a
S210224	Conflict_Resolution	LEFT	LEFT	661.78960000002	966.6666686	n/a	n/a	2021-02-24 14:08:07.156347	2021-02-24 14:08:08.027368	99	6.12111183333333	True	n/a	n/a	n/a	n/a
S210224	Conflict_Resolution	LEFT	LEFT	461.80030000005	1500.000003	n/a	n/a	2021-02-24 14:08:09.548236	2021-02-24 14:08:10.219277	100	6.12111183333333	False	n/a	n/a	n/a	n/a
S210224	Conflict_Resolution	LEFT	LEFT	518.547200000057	1150.0000023	n/a	n/a	2021-02-24 14:08:11.387527	2021-02-24 14:08:12.115022	101	6.12111183333333	False	n/a	n/a	n/a	n/a
S210224	Conflict_Resolution	RIGHT	RIGHT	491.193399999929	1233.3333358	n/a	n/a	2021-02-24 14:08:13.366663	2021-02-24 14:08:14.065886	102	6.12111183333333	False	n/a	n/a	n/a	n/a
S210224	Conflict_Resolution	LEFT	LEFT	411.674800000128	1216.6666691	n/a	n/a	2021-02-24 14:08:15.302887	2021-02-24 14:08:15.921977	103	6.12111183333333	False	n/a	n/a	n/a	n/a
S210224	Conflict_Resolution	RIGHT	RIGHT	411.802200000011	1416.6666695	n/a	n/a	2021-02-24 14:08:17.358785	2021-02-24 14:08:17.979262	104	6.12111183333333	False	n/a	n/a	n/a	n/a
S210224	Conflict_Resolution	RIGHT	RIGHT	575.420900000154	750.0000015	n/a	n/a	2021-02-24 14:08:18.747299	2021-02-24 14:08:19.531217	105	6.12111183333333	True	n/a	n/a	n/a	n/a
S210224	Conflict_Resolution	RIGHT	RIGHT	552.426100000048	850.0000017	n/a	n/a	2021-02-24 14:08:20.402079	2021-02-24 14:08:21.164127	106	6.12111183333333	True	n/a	n/a	n/a	n/a
S210224	Conflict_Resolution	RIGHT	RIGHT	515.603000000056	550.0000011	n/a	n/a	2021-02-24 14:08:21.734970	2021-02-24 14:08:22.459370	107	6.12111183333333	True	n/a	n/a	n/a	n/a
S210224	Conflict_Resolution	RIGHT	RIGHT	512.019399999872	1483.3333363	n/a	n/a	2021-02-24 14:08:23.962545	2021-02-24 14:08:24.681808	108	6.12111183333333	True	n/a	n/a	n/a	n/a
S210224	Conflict_Resolution	RIGHT	RIGHT	510.781499999894	500.000001	n/a	n/a	2021-02-24 14:08:25.203410	2021-02-24 14:08:25.922463	109	6.12111183333333	True	n/a	n/a	n/a	n/a
S210224	Conflict_Resolution	RIGHT	RIGHT	575.253299999986	500.000001	n/a	n/a	2021-02-24 14:08:26.443023	2021-02-24 14:08:27.225565	110	6.12111183333333	False	n/a	n/a	n/a	n/a
S210224	Conflict_Resolution	RIGHT	RIGHT	493.352400000049	600.0000012	n/a	n/a	2021-02-24 14:08:27.844956	2021-02-24 14:08:28.546080	111	6.12111183333333	True	n/a	n/a	n/a	n/a
S210224	Conflict_Resolution	RIGHT	RIGHT	468.461800000114	983.3333353	n/a	n/a	2021-02-24 14:08:29.549805	2021-02-24 14:08:30.228064	112	6.12111183333333	False	n/a	n/a	n/a	n/a
S210224	Conflict_Resolution	LEFT	LEFT	465.050099999871	1000.000002	n/a	n/a	2021-02-24 14:08:31.249409	2021-02-24 14:08:31.921715	113	6.12111183333333	False	n/a	n/a	n/a	n/a
S210224	Conflict_Resolution	LEFT	LEFT	527.074899999889	516.6666677	n/a	n/a	2021-02-24 14:08:32.458816	2021-02-24 14:08:33.194617	114	6.12111183333333	False	n/a	n/a	n/a	n/a
S210224	Conflict_Resolution	LEFT	LEFT	390.375799999902	566.6666678	n/a	n/a	2021-02-24 14:08:33.779663	2021-02-24 14:08:34.377586	115	6.12111183333333	False	n/a	n/a	n/a	n/a
S210224	Conflict_Resolution	LEFT	LEFT	602.323800000022	716.6666681	n/a	n/a	2021-02-24 14:08:35.111611	2021-02-24 14:08:35.922441	116	6.12111183333333	True	n/a	n/a	n/a	n/a
S210224	Conflict_Resolution	RIGHT	RIGHT	446.152900000016	750.0000015	n/a	n/a	2021-02-24 14:08:36.692337	2021-02-24 14:08:37.345560	117	6.12111183333333	False	n/a	n/a	n/a	n/a
S210224	Conflict_Resolution	RIGHT	RIGHT	532.734199999823	1216.6666691	n/a	n/a	2021-02-24 14:08:38.581971	2021-02-24 14:08:39.322930	118	6.12111183333333	True	n/a	n/a	n/a	n/a
S210224	Conflict_Resolution	LEFT	LEFT	422.84050000012	1116.6666689	n/a	n/a	2021-02-24 14:08:40.459686	2021-02-24 14:08:41.090444	119	6.12111183333333	False	n/a	n/a	n/a	n/a
S210224	Conflict_Resolution	LEFT	LEFT	499.79489999987	1216.6666691	n/a	n/a	2021-02-24 14:08:42.326660	2021-02-24 14:08:43.034767	120	6.12111183333333	True	n/a	n/a	n/a	n/a
S210224	Conflict_Resolution	RIGHT	RIGHT	495.273300000008	1333.333336	n/a	n/a	2021-02-24 14:08:44.387293	2021-02-24 14:08:45.090457	121	6.12111183333333	True	n/a	n/a	n/a	n/a
S210224	Conflict_Resolution	LEFT	LEFT	579.791999999998	1400.0000028	n/a	n/a	2021-02-24 14:08:46.510560	2021-02-24 14:08:47.299238	122	6.12111183333333	True	n/a	n/a	n/a	n/a
S210224	Conflict_Resolution	RIGHT	RIGHT	518.604299999879	1150.0000023	n/a	n/a	2021-02-24 14:08:48.468130	2021-02-24 14:08:49.193594	123	6.12111183333333	True	n/a	n/a	n/a	n/a
S210224	Conflict_Resolution	LEFT	LEFT	484.751500000129	583.3333345	n/a	n/a	2021-02-24 14:08:49.797024	2021-02-24 14:08:50.489912	124	6.12111183333333	False	n/a	n/a	n/a	n/a
S210224	Conflict_Resolution	RIGHT	RIGHT	424.143799999911	700.0000014	n/a	n/a	2021-02-24 14:08:51.209967	2021-02-24 14:08:51.842062	125	6.12111183333333	False	n/a	n/a	n/a	n/a
S210224	Conflict_Resolution	RIGHT	RIGHT	473.519500000066	883.3333351	n/a	n/a	2021-02-24 14:08:52.744747	2021-02-24 14:08:53.426489	126	6.12111183333333	False	n/a	n/a	n/a	n/a
S210224	Conflict_Resolution	LEFT	LEFT	570.364800000107	816.6666683	n/a	n/a	2021-02-24 14:08:54.263763	2021-02-24 14:08:55.041616	127	6.12111183333333	True	n/a	n/a	n/a	n/a
S210224	Conflict_Resolution	LEFT	LEFT	448.429799999985	733.3333348	n/a	n/a	2021-02-24 14:08:55.793627	2021-02-24 14:08:56.450284	128	6.12111183333333	True	n/a	n/a	n/a	n/a
S210224	Conflict_Resolution	LEFT	LEFT	508.932299999969	566.6666678	n/a	n/a	2021-02-24 14:08:57.037072	2021-02-24 14:08:57.755416	129	6.12111183333333	True	n/a	n/a	n/a	n/a
S210224	Conflict_Resolution	RIGHT	RIGHT	569.8332999998	1466.6666696	n/a	n/a	2021-02-24 14:08:59.240821	2021-02-24 14:09:00.019884	130	6.12111183333333	True	n/a	n/a	n/a	n/a
S210224	Conflict_Resolution	LEFT	LEFT	689.105100000006	1250.0000025	n/a	n/a	2021-02-24 14:09:01.288983	2021-02-24 14:09:02.187207	131	6.12111183333333	True	n/a	n/a	n/a	n/a
S210224	Conflict_Resolution	LEFT	LEFT	488.122500000145	1050.0000021	n/a	n/a	2021-02-24 14:09:03.258200	2021-02-24 14:09:03.955152	132	6.12111183333333	False	n/a	n/a	n/a	n/a
S210224	Conflict_Resolution	RIGHT	RIGHT	689.867699999922	1233.3333358	n/a	n/a	2021-02-24 14:09:05.208773	2021-02-24 14:09:06.106555	133	6.12111183333333	True	n/a	n/a	n/a	n/a
S210224	Conflict_Resolution	LEFT	LEFT	432.378500000141	1466.6666696	n/a	n/a	2021-02-24 14:09:07.594002	2021-02-24 14:09:08.233846	134	6.12111183333333	False	n/a	n/a	n/a	n/a
S210224	Conflict_Resolution	RIGHT	RIGHT	416.920800000071	1083.3333355	n/a	n/a	2021-02-24 14:09:09.337031	2021-02-24 14:09:09.961802	135	6.12111183333333	False	n/a	n/a	n/a	n/a
S210224	Conflict_Resolution	RIGHT	RIGHT	462.059700000054	600.0000012	n/a	n/a	2021-02-24 14:09:10.579731	2021-02-24 14:09:11.251616	136	6.12111183333333	False	n/a	n/a	n/a	n/a
S210224	Conflict_Resolution	RIGHT	RIGHT	545.520600000145	633.3333346	n/a	n/a	2021-02-24 14:09:11.904883	2021-02-24 14:09:12.663367	137	6.12111183333333	True	n/a	n/a	n/a	n/a
S210224	Conflict_Resolution	RIGHT	RIGHT	454.37250000009	1433.3333362	n/a	n/a	2021-02-24 14:09:14.116263	2021-02-24 14:09:14.778938	138	6.12111183333333	False	n/a	n/a	n/a	n/a
S210224	Conflict_Resolution	LEFT	LEFT	485.491400000001	1316.6666693	n/a	n/a	2021-02-24 14:09:16.116871	2021-02-24 14:09:16.810676	139	6.12111183333333	True	n/a	n/a	n/a	n/a
S210224	Conflict_Resolution	RIGHT	RIGHT	468.605000000025	1183.3333357	n/a	n/a	2021-02-24 14:09:18.014176	2021-02-24 14:09:18.690376	140	6.12111183333333	True	n/a	n/a	n/a	n/a
S210224	Conflict_Resolution	LEFT	LEFT	573.536199999808	950.0000019	n/a	n/a	2021-02-24 14:09:19.660316	2021-02-24 14:09:20.442942	141	6.12111183333333	True	n/a	n/a	n/a	n/a
S210224	Conflict_Resolution	RIGHT	RIGHT	512.989800000014	833.333335	n/a	n/a	2021-02-24 14:09:21.297220	2021-02-24 14:09:22.017714	142	6.12111183333333	True	n/a	n/a	n/a	n/a
S210224	Conflict_Resolution	LEFT	LEFT	518.101699999988	1166.666669	n/a	n/a	2021-02-24 14:09:23.204094	2021-02-24 14:09:23.930257	143	6.12111183333333	True	n/a	n/a	n/a	n/a
S210224	Conflict_Resolution	RIGHT	RIGHT	427.672799999982	1383.3333361	n/a	n/a	2021-02-24 14:09:25.334349	2021-02-24 14:09:25.969779	144	6.12111183333333	False	n/a	n/a	n/a	n/a
S210224	Conflict_Resolution	LEFT	LEFT	521.011199999975	666.666668	n/a	n/a	2021-02-24 14:09:26.657245	2021-02-24 14:09:27.385951	145	6.12111183333333	False	n/a	n/a	n/a	n/a
S210224	Conflict_Resolution	RIGHT	RIGHT	520.10150000001	1133.3333356	n/a	n/a	2021-02-24 14:09:28.538393	2021-02-24 14:09:29.266488	146	6.12111183333333	True	n/a	n/a	n/a	n/a
S210224	Conflict_Resolution	RIGHT	RIGHT	391.207399999985	733.3333348	n/a	n/a	2021-02-24 14:09:30.019261	2021-02-24 14:09:30.618762	147	6.12111183333333	False	n/a	n/a	n/a	n/a
S210224	Conflict_Resolution	LEFT	LEFT	527.939099999912	683.3333347	n/a	n/a	2021-02-24 14:09:31.321938	2021-02-24 14:09:32.057525	148	6.12111183333333	True	n/a	n/a	n/a	n/a
S210224	Conflict_Resolution	LEFT	LEFT	607.815299999857	1116.6666689	n/a	n/a	2021-02-24 14:09:33.194682	2021-02-24 14:09:34.011136	149	6.12111183333333	True	n/a	n/a	n/a	n/a
S210224	Conflict_Resolution	RIGHT	RIGHT	541.502300000047	1316.6666693	n/a	n/a	2021-02-24 14:09:35.348820	2021-02-24 14:09:36.098634	150	6.12111183333333	True	n/a	n/a	n/a	n/a
S210224	Conflict_Resolution	RIGHT	RIGHT	474.239399999988	633.3333346	n/a	n/a	2021-02-24 14:09:36.751906	2021-02-24 14:09:37.435153	151	6.12111183333333	False	n/a	n/a	n/a	n/a
S210224	Conflict_Resolution	RIGHT	RIGHT	441.444099999899	1466.6666696	n/a	n/a	2021-02-24 14:09:38.920556	2021-02-24 14:09:39.569444	152	6.12111183333333	False	n/a	n/a	n/a	n/a
S210224	Conflict_Resolution	RIGHT	RIGHT	544.801000000007	683.3333347	n/a	n/a	2021-02-24 14:09:40.273772	2021-02-24 14:09:41.029211	153	6.12111183333333	True	n/a	n/a	n/a	n/a
S210224	Conflict_Resolution	LEFT	LEFT	499.013800000057	616.6666679	n/a	n/a	2021-02-24 14:09:41.664215	2021-02-24 14:09:42.371182	154	6.12111183333333	False	n/a	n/a	n/a	n/a
S210224	Conflict_Resolution	RIGHT	RIGHT	452.532100000099	1183.3333357	n/a	n/a	2021-02-24 14:09:43.574117	2021-02-24 14:09:44.233589	155	6.12111183333333	False	n/a	n/a	n/a	n/a
S210224	Conflict_Resolution	LEFT	LEFT	485.13180000009	966.6666686	n/a	n/a	2021-02-24 14:09:45.220928	2021-02-24 14:09:45.914445	156	6.12111183333333	False	n/a	n/a	n/a	n/a
S210224	Conflict_Resolution	LEFT	LEFT	434.494800000039	633.3333346	n/a	n/a	2021-02-24 14:09:46.567400	2021-02-24 14:09:47.210977	157	6.12111183333333	False	n/a	n/a	n/a	n/a
S210224	Conflict_Resolution	LEFT	LEFT	389.607100000148	1166.666669	n/a	n/a	2021-02-24 14:09:48.397836	2021-02-24 14:09:48.998346	158	6.12111183333333	False	n/a	n/a	n/a	n/a
S210224	Conflict_Resolution	RIGHT	RIGHT	427.23490000003	933.3333352	n/a	n/a	2021-02-24 14:09:49.950558	2021-02-24 14:09:50.587403	159	6.12111183333333	False	n/a	n/a	n/a	n/a
S210224	Conflict_Resolution	RIGHT	RIGHT	455.779699999994	1333.333336	n/a	n/a	2021-02-24 14:09:51.937836	2021-02-24 14:09:52.603328	160	6.12111183333333	False	n/a	n/a	n/a	n/a
