index	Trial_Type	Participant_ID	Trial_Probability	Question_Position_Prediction_Correct	Question_Position_Prediction_Agent	Question_Position_Comparison_Self	Question_Position_Comparison_Irrelevant	Trial_Stake	Trial_Stake_Jitter	Trial_Type_Jitter	Trial_Result_Jitter	Balance_Update_Jitter	Question_Comparison_Condition	Question_Comparison_Type	Question_Comparison_Question	Question_Comparison_Label	Question_Comparison_Item	Question_Comparison_Proportion_Yes	Question_Factual_Condition	Question_Factual_Item	Question_Factual_Question	Question_Factual_Label	Question_Factual_Proportion_DontKnow	Question_Factual_Type	Answer_Prediction_Correct	Answer_Prediction_Correct_RT	Answer_Prediction_Agent	Answer_Prediction_Agent_RT	Answer_Irrelevant	Answer_Irrelevant_RT	Answer_Self	Answer_Self_RT	Trial_Balance	Trial_Balance_Effect	Trial_Condition	Trial_ProbableSide	Prediction_Choice	Prediction_Result	Prediction_RT	Trial_Order	Trial_Datetime
52	Self	S210317	0.5	1	2	2	1	0.8	1350.0000027	1283.3333359	2066.6666708	2066.6666708	Minor	Good_deeds	58	You have attended all lectures as a student	C1_58	0.95	Easy	I2_1	23	Singapore is in Africa	0.0	Yes	RIGHT	811.7443000000435	RIGHT	600.1878999999803	LEFT	1136.312500000031	RIGHT	1455.085100000019	10.8	0.8	Probable_Truth	RIGHT	LEFT	1	1596.6913999999974	0	2021-03-17 15:13:26.597757
126	Computer	S210317	0.6666666666666666	2	1	2	1	0.3	1283.3333359	1216.6666691	2350.0000047	1500.000003	Major	Good_deeds	19	You have taken months off to volunteer	C2_26	0.0	Hard	I1_58	28	The Amazon forest covers an area of 1 billion acres	0.888888888888889	Yes	RIGHT	519.2400999999904	LEFT	1229.3144999999868	RIGHT	1413.7860999999816	LEFT	1399.3351000000305	10.8	0.3	Probable_Truth	RIGHT	RIGHT	6	504.8202963691919	1	2021-03-17 15:13:50.589262
127	Computer	S210317	0.6666666666666666	2	1	2	1	0.1	1433.3333362	1150.0000023	2216.6666711000003	2350.0000047	Minor	Good_deeds	7	You have violated a traffic law	C2_58	0.0	Easy	I1_41	58	Christmas Day is in March	0.777777777777778	Yes	LEFT	2407.6443000000154	LEFT	805.921699999999	LEFT	1346.0129999999708	LEFT	1239.733899999976	10.8	0.1	Probable_Lie	RIGHT	RIGHT	2	750.5883489365161	2	2021-03-17 15:14:16.861734
77	Self	S210317	0.6666666666666666	2	1	2	1	0.4	1000.000002	1216.6666691	2350.0000047	2216.6666711000003	Minor	Good_deeds	9	You have watched an M18 movie when you were underage	C2_9	1.0	Hard	I2_16	52	Afghan Hound is the first cloned cat	0.0	No	LEFT	2584.584599999971	LEFT	732.4057000000153	LEFT	2328.5940999999752	LEFT	1879.670799999985	10.8	0.4	Probable_Lie	RIGHT	RIGHT	2	1163.8781999999992	3	2021-03-17 15:14:44.908030
66	Self	S210317	0.6666666666666666	1	2	1	2	0.4	1500.000003	1000.000002	1500.000003	1500.000003	Minor	Wrong_doings	24	You have a non-judgmental attitude towards everyone	C1_24	0.85	Easy	I1_42	42	Most plants emit oxygen in the day	0.944444444444444	Yes	LEFT	1211.6680000000315	RIGHT	365.7676000000265	RIGHT	1720.226499999967	RIGHT	1645.492900000022	10.4	0.4	Probable_Lie	RIGHT	RIGHT	2	866.9054000000642	4	2021-03-17 15:15:08.796867
120	Computer	S210317	0.6666666666666666	2	1	1	2	0.2	1150.0000023	1000.000002	1500.000003	1650.0000033	Major	Wrong_doings	13	You have cheated on a national exam	C1_7	0.05	Hard	I2_4	34	A triangle has three sides	0.0	No	RIGHT	471.9933999999739	LEFT	853.1391000000212	RIGHT	1095.8855000000085	LEFT	1038.8966999998956	10.4	0.2	Probable_Truth	RIGHT	RIGHT	4	940.2112612013162	5	2021-03-17 15:15:31.059961
112	Computer	S210317	0.6666666666666666	1	2	1	2	0.4	1216.6666691	1000.000002	2066.6666708	1783.3333369	Major	Wrong_doings	8	You have borrowed things and never returned	C1_44	0.0	Hard	I1_50	24	December is the last month of the year	0.0	Yes	LEFT	936.7326999999932	LEFT	481.8397999999888	RIGHT	1182.902399999989	LEFT	2120.742199999995	10.4	0.4	Probable_Truth	LEFT	LEFT	2	921.6407082119944	6	2021-03-17 15:15:55.341768
96	Computer	S210317	0.5	1	2	1	2	0.1	1150.0000023	1283.3333359	2216.6666711000003	1650.0000033	Minor	Wrong_doings	20	You have failed to keep promises	C1_53	0.0	Easy	I2_55	35	Cernan was the second last man to walk on the Moon	0.833333333333333	Yes	RIGHT	986.8855000000848	LEFT	600.9019000000535	LEFT	1527.140300000042	LEFT	2287.820699999997	10.4	0.1	Probable_Truth	LEFT	RIGHT	6	942.7708193675226	7	2021-03-17 15:16:20.565164
121	Computer	S210317	0.6666666666666666	2	1	1	2	0.8	1500.000003	1500.000003	1933.3333372	2066.6666708	Major	Good_deeds	26	You have stopped using plastics completely	C2_13	0.95	Hard	I2_33	33	North Korea is more developed than South Korea	0.833333333333333	Yes	RIGHT	385.1038000000244	LEFT	775.8774999999787	LEFT	1678.5619999999426	LEFT	1788.2219000000532	10.4	0.8	Probable_Lie	RIGHT	LEFT	5	679.9481115282533	8	2021-03-17 15:16:45.452643
3	Self	S210317	0.5	1	2	1	2	0.2	1283.3333359	1066.6666688	1500.000003	1783.3333369	Major	Wrong_doings	27	You have intentionally let others cut in line	C2_54	0.7	Hard	I2_51	46	Today is a weekday	0.0555555555555556	No	RIGHT	2109.4909000000825	LEFT	3136.393099999964	RIGHT	1223.0127999999922	RIGHT	2611.683399999947	10.4	0.2	Probable_Lie	RIGHT	LEFT	6	1163.0969999999934	9	2021-03-17 15:17:13.901337
130	Computer	S210317	0.8333333333333334	1	2	1	2	0.3	1000.000002	1066.6666688	2216.6666711000003	2500.000005	Minor	Good_deeds	17	You have sold illegal drugs	C1_33	0.0	Easy	I2_41	46	Arabi is the oldest surviving breed of horse	0.0555555555555556	No	RIGHT	833.3872000000611	LEFT	544.4281000000046	LEFT	1623.053899999945	LEFT	947.8308999999854	10.4	0.3	Probable_Lie	LEFT	LEFT	2	779.1163746069926	10	2021-03-17 15:17:37.988632
139	Computer	S210317	0.8333333333333334	2	1	1	2	0.5	1283.3333359	1066.6666688	2066.6666708	2350.0000047	Major	Good_deeds	39	You have volunteered every week for many years	C2_11	1.0	Hard	I1_5	38	Chickens lay eggs	0.0	Yes	RIGHT	831.2518999999838	RIGHT	2934.287600000061	RIGHT	1312.4915000000783	LEFT	3627.297200000044	10.9	0.5	Probable_Lie	RIGHT	LEFT	6	862.1172883823795	11	2021-03-17 15:18:06.900144
84	Self	S210317	0.8333333333333334	1	2	2	1	0.3	1283.3333359	1283.3333359	2066.6666708	1650.0000033	Major	Wrong_doings	36	You have made counterfeit money	C1_36	1.0	Easy	I2_45	26	Carnivore refers to meat-eater	0.611111111111111	Yes	RIGHT	717.1145000000934	RIGHT	767.3158999999714	RIGHT	1671.5410000000477	LEFT	888.6962000000267	11.2	0.3	Probable_Lie	LEFT	LEFT	2	2693.956000000071	12	2021-03-17 15:18:32.500052
143	Computer	S210317	0.8333333333333334	2	1	2	1	0.6	1216.6666691	1283.3333359	1783.3333369	2066.6666708	Minor	Wrong_doings	29	You have lost everything just to help others	C1_48	0.15	Hard	I1_11	11	It takes 500 days to travel from Earth to Mars	0.0	No	LEFT	2000.8037000000056	LEFT	1366.2494000000152	LEFT	1419.1283999999769	LEFT	1390.5409999999847	11.2	0.6	Probable_Lie	LEFT	RIGHT	1	524.1081245995854	13	2021-03-17 15:18:58.117636
29	Self	S210317	0.6666666666666666	2	1	2	1	0.7	1283.3333359	1500.000003	1933.3333372	1650.0000033	Minor	Wrong_doings	45	You have used a fake name online	C2_42	0.05	Easy	I2_34	4	There are 6 million animal species on Earth	0.0555555555555556	No	RIGHT	599.8271000000841	RIGHT	2812.427400000047	LEFT	790.6388000000106	LEFT	1479.770099999996	11.9	0.7	Probable_Lie	LEFT	LEFT	6	1295.07650000005	14	2021-03-17 15:19:24.036017
34	Self	S210317	0.8333333333333334	1	2	1	2	0.3	1000.000002	1066.6666688	2066.6666708	1500.000003	Minor	Good_deeds	17	You have sold illegal drugs	C1_33	0.0	Easy	I2_41	46	Arabi is the oldest surviving breed of horse	0.0555555555555556	No	RIGHT	621.465599999965	RIGHT	441.9419999999264	LEFT	784.1602999999395	LEFT	867.1427000000449	12.2	0.3	Probable_Lie	LEFT	LEFT	2	2132.225900000094	15	2021-03-17 15:19:47.093543
68	Self	S210317	0.6666666666666666	1	2	2	1	0.1	1066.6666688	1500.000003	1783.3333369	2066.6666708	Major	Good_deeds	2	You have gossiped about your best friend	C2_25	0.0	Easy	I1_47	9	The Franco-Prussian War occurred in the 19th century	0.111111111111111	No	RIGHT	1015.7778999999892	RIGHT	544.7699000000057	RIGHT	2190.3793999999834	LEFT	1046.1398999999574	12.3	0.1	Probable_Lie	RIGHT	RIGHT	2	847.0680000000357	16	2021-03-17 15:20:11.731862
1	Self	S210317	0.5	1	2	1	2	0.3	1216.6666691	1216.6666691	2500.000005	2350.0000047	Major	Good_deeds	53	You have complimented others for good work	C1_23	0.85	Hard	I1_17	17	Brazil is in South America	1.0	Yes	RIGHT	717.6282000000356	RIGHT	288.40839999998025	RIGHT	1176.348500000017	RIGHT	1058.986799999957	12.6	0.3	Probable_Lie	RIGHT	RIGHT	2	838.6592000000519	17	2021-03-17 15:20:35.669728
0	Self	S210317	0.5	1	2	1	2	0.1	1500.000003	1000.000002	1650.0000033	2066.6666708	Minor	Wrong_doings	20	You have failed to keep promises	C1_53	0.0	Easy	I2_55	35	Cernan was the second last man to walk on the Moon	0.833333333333333	Yes	RIGHT	583.9149000000816	RIGHT	319.8587999999063	LEFT	781.5358999999944	LEFT	1045.3668000000107	12.7	0.1	Probable_Lie	RIGHT	RIGHT	2	778.6212999999407	18	2021-03-17 15:20:57.971911
53	Self	S210317	0.5	1	2	2	1	0.7	1000.000002	1216.6666691	1783.3333369	2500.000005	Major	Wrong_doings	16	You have taken part in violent demonstration	C1_59	0.0	Hard	I2_30	57	Kangaroos live in Africa	0.944444444444444	No	RIGHT	688.569799999982	RIGHT	568.5969999999543	LEFT	1158.2451000000449	LEFT	960.2161000000252	13.4	0.7	Probable_Truth	RIGHT	LEFT	1	1119.1142999999784	19	2021-03-17 15:21:21.540515
93	Self	S210317	0.8333333333333334	2	1	2	1	0.8	1283.3333359	1216.6666691	2500.000005	1650.0000033	Minor	Wrong_doings	6	You have donated blood every 6 months for many years	C2_53	0.05	Easy	I1_35	3	China is a part of Asia	0.0	Yes	RIGHT	368.2195000000093	RIGHT	765.3377999999975	RIGHT	1182.2420999999397	RIGHT	2102.6780999999346	14.2	0.8	Probable_Truth	RIGHT	RIGHT	6	932.0724000000382	20	2021-03-17 15:21:46.116464
21	Self	S210317	0.6666666666666666	1	2	2	1	0.8	1066.6666688	1350.0000027	1650.0000033	1933.3333372	Minor	Good_deeds	44	You have made someone cry	C1_8	0.95	Hard	I1_12	24	The Seine river is 50 feet above sea level	0.0555555555555556	Yes	RIGHT	542.3610000000281	RIGHT	543.8740999999254	LEFT	1005.2168000000848	LEFT	1366.393300000027	15.000000000000002	0.8	Probable_Truth	LEFT	LEFT	2	1239.8927000000413	21	2021-03-17 15:22:09.387955
108	Computer	S210317	0.5	2	1	2	1	0.5	1500.000003	1350.0000027	1783.3333369	1500.000003	Minor	Good_deeds	42	You have signed up as a bone marrow donor	C2_14	0.0	Easy	I1_33	15	Nanyang Technological University is in Australia	0.0	No	LEFT	345.238800000061	LEFT	846.4281000000256	LEFT	1395.6610000000182	LEFT	1128.3138000000008	15.000000000000002	0.5	Probable_Lie	LEFT	LEFT	5	978.9755480986764	22	2021-03-17 15:22:32.788546
39	Self	S210317	0.8333333333333334	1	2	2	1	0.7	1283.3333359	1150.0000023	1933.3333372	2500.000005	Minor	Wrong_doings	18	You have said sorry when you were rude	C1_11	0.55	Easy	I1_13	43	Septicemia is a lung infection condition	0.0	Yes	RIGHT	484.4147999999677	RIGHT	352.65079999999216	LEFT	1325.8564000000206	RIGHT	1687.465599999996	15.7	0.7	Probable_Truth	LEFT	LEFT	1	965.3167999999824	23	2021-03-17 15:22:57.044075
78	Self	S210317	0.6666666666666666	2	1	2	1	0.6	1066.6666688	1150.0000023	1500.000003	1500.000003	Minor	Wrong_doings	28	You have given directions to a lost tourist	C1_28	0.65	Easy	I2_23	39	There are 30 hours in a day	0.666666666666667	No	LEFT	1520.3094000000874	LEFT	1605.485999999928	LEFT	2252.903199999992	RIGHT	1215.7454999999118	15.7	0.6	Probable_Lie	LEFT	LEFT	5	644.6103000000676	24	2021-03-17 15:23:22.075823
61	Self	S210317	0.5	2	1	2	1	0.5	1000.000002	1066.6666688	2066.6666708	1783.3333369	Major	Wrong_doings	7	You have illegally stayed in a country	C2_1	1.0	Easy	I1_6	25	Fishes can swim in water	0.944444444444444	No	RIGHT	368.100400000003	RIGHT	1598.3016000000134	RIGHT	2273.213199999873	LEFT	2263.030400000161	16.200000000000003	0.5	Probable_Lie	RIGHT	LEFT	4	956.78410000005	25	2021-03-17 15:23:48.028464
123	Computer	S210317	0.6666666666666666	2	1	1	2	0.5	1350.0000027	1066.6666688	1650.0000033	2216.6666711000003	Major	Wrong_doings	42	You have given way to the handicapped	C1_45	0.75	Easy	I1_29	41	There are 6000 spoken languages in the World	0.0	Yes	LEFT	440.3603999999177	LEFT	1285.5835000000295	RIGHT	974.495299999944	RIGHT	1294.6882999999616	16.200000000000003	0.5	Probable_Lie	LEFT	RIGHT	1	878.5554767447957	26	2021-03-17 15:24:11.764431
105	Computer	S210317	0.5	2	1	1	2	0.6	1433.3333362	1433.3333362	1650.0000033	1783.3333369	Major	Good_deeds	59	You have faked an illness	C1_1	0.0	Easy	I1_15	19	Beer is an alcoholic drink	0.764705882352941	Yes	RIGHT	432.7568000001065	RIGHT	657.1509000000333	RIGHT	1231.548499999917	LEFT	2008.7925999998788	16.800000000000004	0.6	Probable_Truth	RIGHT	LEFT	1	930.40480536452	27	2021-03-17 15:24:35.900784
75	Self	S210317	0.6666666666666666	2	1	1	2	0.5	1216.6666691	1350.0000027	1933.3333372	2066.6666708	Major	Wrong_doings	23	You have been convicted in court	C2_43	0.15	Hard	I1_8	16	It is night time now	0.833333333333333	Yes	RIGHT	352.37129999995886	RIGHT	524.0820999999869	LEFT	967.168799999854	LEFT	893.6409999998887	17.300000000000004	0.5	Probable_Lie	LEFT	LEFT	3	831.4688000000388	28	2021-03-17 15:24:58.611768
44	Self	S210317	0.8333333333333334	2	1	2	1	0.8	1433.3333362	1216.6666691	1500.000003	1650.0000033	Minor	Wrong_doings	31	You have bribed someone to improve a grade	C1_17	0.0	Easy	I2_18	28	Slavery was abolished in Cuba in 1886	0.0555555555555556	No	RIGHT	487.9613999999037	RIGHT	636.4604999998846	RIGHT	1662.5781000000188	LEFT	1416.8948000001365	18.100000000000005	0.8	Probable_Lie	LEFT	LEFT	4	606.5292999999201	29	2021-03-17 15:25:21.796569
14	Self	S210317	0.5	2	1	2	1	0.6	1066.6666688	1066.6666688	2500.000005	1783.3333369	Minor	Wrong_doings	14	You have helped your parents when asked to	C2_34	0.9	Easy	I1_53	56	There is typically 0.6 grams of mercury in glass thermometer	0.722222222222222	Yes	RIGHT	352.0745999999235	RIGHT	1267.9719000000205	LEFT	1401.253400000087	RIGHT	1463.3295000001	18.700000000000006	0.6	Probable_Lie	RIGHT	LEFT	6	1190.5259000000117	30	2021-03-17 15:25:46.468271
106	Computer	S210317	0.5	2	1	1	2	0.2	1350.0000027	1150.0000023	2350.0000047	2066.6666708	Major	Wrong_doings	1	You have provided shelter for stray animals	C1_5	1.0	Easy	I2_56	44	The Earth is round	0.0	No	LEFT	743.6727000001611	LEFT	859.9802000001091	RIGHT	951.703800000132	RIGHT	1110.7822999999826	18.700000000000006	0.2	Probable_Lie	RIGHT	RIGHT	3	954.2472279057872	31	2021-03-17 15:26:10.570957
107	Computer	S210317	0.5	2	1	1	2	0.1	1150.0000023	1216.6666691	2066.6666708	2216.6666711000003	Major	Wrong_doings	19	You have drunk alcohol when you were underage	C1_42	1.0	Hard	I1_19	27	Acoustic Kitty refers to cat with implants	0.111111111111111	No	RIGHT	314.0598999998474	RIGHT	531.736900000169	LEFT	1327.215600000045	LEFT	1319.3513000001076	18.800000000000008	0.1	Probable_Truth	LEFT	RIGHT	6	912.5058231023844	32	2021-03-17 15:26:34.203907
12	Self	S210317	0.5	2	1	2	1	0.8	1500.000003	1500.000003	1500.000003	1500.000003	Minor	Good_deeds	42	You have signed up as a bone marrow donor	C2_14	0.0	Easy	I1_33	15	Nanyang Technological University is in Australia	0.0	No	RIGHT	337.31669999997393	RIGHT	563.097000000198	LEFT	1044.3199999999706	LEFT	855.6876000000102	19.60000000000001	0.8	Probable_Lie	RIGHT	LEFT	4	1293.7274999999318	33	2021-03-17 15:26:56.876656
118	Computer	S210317	0.6666666666666666	1	2	2	1	0.7	1000.000002	1350.0000027	1500.000003	2216.6666711000003	Major	Wrong_doings	40	You have risked your life to save another person's life	C2_35	0.95	Hard	I1_52	12	Cleopatra was born in Greece	0.888888888888889	Yes	RIGHT	514.3723999999565	RIGHT	295.4095000000052	RIGHT	1344.0700000001016	LEFT	1424.1034000001491	20.300000000000008	0.7	Probable_Truth	LEFT	LEFT	2	762.073038292968	34	2021-03-17 15:27:19.860617
133	Computer	S210317	0.8333333333333334	1	2	2	1	0.2	1216.6666691	1433.3333362	2500.000005	1650.0000033	Major	Wrong_doings	60	You have been arrested	C2_39	0.7	Easy	I2_31	31	The Moon orbits around the Earth	1.0	Yes	RIGHT	657.7747999999701	RIGHT	545.3423999999814	RIGHT	941.5189999999712	LEFT	703.6301000000549	20.500000000000007	0.2	Probable_Lie	LEFT	LEFT	2	625.6090702470972	35	2021-03-17 15:27:42.715273
48	Self	S210317	0.5	1	2	1	2	0.5	1066.6666688	1433.3333362	1500.000003	1500.000003	Minor	Good_deeds	37	You have sorted your trash into recycling bin	C1_15	0.5	Hard	I2_54	30	Airbags in cars are filled with sodium azide	0.833333333333333	No	RIGHT	885.0502999998753	RIGHT	319.5127000001321	RIGHT	894.7330999999394	RIGHT	1165.1438000001235	21.000000000000007	0.5	Probable_Truth	RIGHT	LEFT	1	1226.5845999997964	36	2021-03-17 15:28:05.283907
95	Self	S210317	0.8333333333333334	2	1	2	1	0.4	1500.000003	1283.3333359	2216.6666711000003	1783.3333369	Major	Wrong_doings	16	You have cursed at others	C1_46	1.0	Easy	I1_3	10	Bears have the biggest eyes among mammals	0.0	No	RIGHT	264.3618999998125	RIGHT	640.6696999999895	RIGHT	1561.0948999999437	RIGHT	1686.8643000000247	21.40000000000001	0.4	Probable_Lie	LEFT	LEFT	3	568.5213000001568	37	2021-03-17 15:28:29.362875
142	Computer	S210317	0.8333333333333334	2	1	2	1	0.2	1433.3333362	1500.000003	2350.0000047	2500.000005	Minor	Wrong_doings	48	You have thrown your trash into the bin	C1_29	1.0	Hard	I1_40	39	There are 9 rings in the Olympic flag	0.0	No	RIGHT	303.95510000016657	RIGHT	469.7859000000335	LEFT	1612.157699999898	RIGHT	983.615699999973	21.600000000000005	0.2	Probable_Truth	LEFT	LEFT	1	538.9874923628046	38	2021-03-17 15:28:53.620453
141	Computer	S210317	0.8333333333333334	2	1	2	1	0.1	1066.6666688	1000.000002	1500.000003	2216.6666711000003	Minor	Good_deeds	60	You have organized a violent protest	C1_39	0.8	Hard	I2_39	40	Animals are living things	0.944444444444444	Yes	RIGHT	376.71799999998257	RIGHT	510.14469999995526	RIGHT	1134.7842000000128	LEFT	1135.0385000000642	21.700000000000006	0.1	Probable_Lie	RIGHT	RIGHT	1	839.1366276323729	39	2021-03-17 15:29:15.963797
119	Computer	S210317	0.6666666666666666	1	2	2	1	0.8	1283.3333359	1433.3333362	2350.0000047	2066.6666708	Major	Good_deeds	31	You have held the elevator doors for others	C2_10	0.0	Easy	I2_24	50	Malay is one of the races in Singapore	0.944444444444444	No	RIGHT	662.5695000000178	RIGHT	367.38739999987047	RIGHT	1124.8399000000973	RIGHT	935.5339000001096	22.500000000000007	0.8	Probable_Lie	RIGHT	LEFT	4	510.6287231622493	40	2021-03-17 15:29:39.275417
70	Self	S210317	0.6666666666666666	1	2	2	1	0.7	1433.3333362	1150.0000023	2500.000005	2350.0000047	Minor	Good_deeds	57	You have bought cigarettes for a minor	C1_57	0.1	Hard	I2_49	27	The first Olympic Games was held in the 5th century B.C	0.0555555555555556	No	RIGHT	558.0225000001064	RIGHT	359.8119000000679	RIGHT	1334.4586999999135	LEFT	911.4062999999531	23.200000000000006	0.7	Probable_Truth	RIGHT	RIGHT	3	3678.925299999946	41	2021-03-17 15:30:06.133263
45	Self	S210317	0.8333333333333334	2	1	2	1	0.7	1283.3333359	1433.3333362	2066.6666708	2350.0000047	Minor	Good_deeds	60	You have organized a violent protest	C1_39	0.8	Hard	I2_39	40	Animals are living things	0.944444444444444	Yes	RIGHT	344.802399999935	RIGHT	462.15490000008685	RIGHT	948.5532999999576	LEFT	727.6255000001584	23.90000000000001	0.7	Probable_Truth	RIGHT	RIGHT	5	938.370999999961	42	2021-03-17 15:30:29.259140
67	Self	S210317	0.6666666666666666	1	2	1	2	0.3	1283.3333359	1433.3333362	2350.0000047	2500.000005	Major	Good_deeds	46	You have given up your seat in the MRT	C2_36	0.05	Hard	I1_9	6	The sun rises at night	0.888888888888889	Yes	RIGHT	882.5148000000809	RIGHT	249.0170999999464	LEFT	800.7420999999795	RIGHT	950.7332999999109	24.200000000000006	0.3	Probable_Truth	RIGHT	RIGHT	4	754.6350000000075	43	2021-03-17 15:30:53.035242
134	Computer	S210317	0.8333333333333334	1	2	2	1	0.1	1066.6666688	1500.000003	2066.6666708	1933.3333372	Major	Wrong_doings	48	You have shown your appreciation to your teachers	C2_18	0.0	Hard	I1_14	31	There are 7 days in a week	0.944444444444444	No	RIGHT	843.5022000001027	RIGHT	528.148099999953	RIGHT	1694.251599999916	RIGHT	1119.0065000000686	24.300000000000008	0.1	Probable_Lie	LEFT	LEFT	3	546.9152237386313	44	2021-03-17 15:31:16.908407
83	Self	S210317	0.8333333333333334	1	2	1	2	0.6	1350.0000027	1433.3333362	1933.3333372	1933.3333372	Minor	Good_deeds	33	You have engaged in underage smoking	C2_3	0.95	Hard	I1_26	36	Saturn's rings are between 30 and 300 feet thick	0.777777777777778	No	RIGHT	588.8984000000619	RIGHT	304.3983999998545	LEFT	1406.9418000001406	LEFT	1060.410900000079	24.90000000000001	0.6	Probable_Truth	RIGHT	RIGHT	3	688.9759000000595	45	2021-03-17 15:31:40.179461
40	Self	S210317	0.8333333333333334	2	1	1	2	0.6	1500.000003	1283.3333359	2350.0000047	2066.6666708	Major	Wrong_doings	11	You have told someone's secret to others	C2_60	0.0	Easy	I2_38	18	Hot chocolate was created by the Mayan culture	0.722222222222222	Yes	RIGHT	295.98140000007334	RIGHT	603.8711999999578	LEFT	1046.6722000001027	LEFT	2128.060099999857	25.50000000000001	0.6	Probable_Truth	LEFT	LEFT	1	625.7364999999027	46	2021-03-17 15:32:04.651398
101	Computer	S210317	0.5	1	2	2	1	0.8	1350.0000027	1350.0000027	1933.3333372	2066.6666708	Major	Good_deeds	38	You have been donating all your excess food to a food bank	C2_38	0.85	Hard	I2_46	51	The Earth turns the closest to the sun in May	0.888888888888889	Yes	RIGHT	838.7206999998398	RIGHT	359.0214000000742	LEFT	1086.2792999998874	RIGHT	2734.9969000001693	26.30000000000001	0.8	Probable_Lie	LEFT	LEFT	6	521.3450783817113	47	2021-03-17 15:32:29.460537
49	Self	S210317	0.5	1	2	1	2	0.3	1500.000003	1150.0000023	2350.0000047	1933.3333372	Major	Good_deeds	14	You have volunteered for a disaster-related humanitarian mission	C2_30	0.7	Easy	I1_4	25	The current century is 21st	0.166666666666667	Yes	RIGHT	384.8953000001529	RIGHT	343.11129999991863	RIGHT	1167.6354000001083	LEFT	1507.5262000000291	26.60000000000001	0.3	Probable_Truth	LEFT	RIGHT	6	4690.348900000117	48	2021-03-17 15:33:44.115644
94	Self	S210317	0.8333333333333334	2	1	2	1	0.7	1350.0000027	1066.6666688	1500.000003	2350.0000047	Minor	Good_deeds	37	You have extorted money from anyone	C2_57	0.85	Easy	I2_2	48	It is snowing outside now	0.0	No	RIGHT	272.0041999998557	RIGHT	597.1245000000636	LEFT	893.124700000044	LEFT	911.4614000000074	27.30000000000001	0.7	Probable_Lie	LEFT	LEFT	2	618.7689000000773	49	2021-03-17 15:34:06.251380
76	Self	S210317	0.6666666666666666	2	1	2	1	0.3	1350.0000027	1066.6666688	2500.000005	1933.3333372	Major	Good_deeds	47	You have followed instructions	C1_4	0.9	Hard	I1_44	44	It takes 112 years to build the Pisa Tower	0.0	Yes	RIGHT	391.3328999999521	RIGHT	462.3077999999623	RIGHT	952.348499999971	RIGHT	887.4918000001344	27.60000000000001	0.3	Probable_Lie	RIGHT	RIGHT	2	781.8680000000313	50	2021-03-17 15:34:29.155081
102	Computer	S210317	0.5	1	2	2	1	0.3	1433.3333362	1150.0000023	1650.0000033	2350.0000047	Minor	Good_deeds	28	You have participated in a scamming business	C1_43	0.95	Easy	I1_32	32	Lehman Brothers went bankrupt on 20th September	0.0555555555555556	No	RIGHT	668.0630999999266	RIGHT	432.1932000000288	RIGHT	1469.169299999976	LEFT	1151.8718000002082	27.900000000000013	0.3	Probable_Lie	RIGHT	LEFT	4	896.0092170629305	51	2021-03-17 15:34:52.930824
58	Self	S210317	0.5	2	1	1	2	0.8	1150.0000023	1000.000002	1933.3333372	1500.000003	Minor	Wrong_doings	35	You have sign up to sponsor a needy child	C2_50	0.0	Hard	I1_43	37	Mozambique is the world's poorest country	0.833333333333333	Yes	RIGHT	335.83340000018325	RIGHT	668.3146999998826	RIGHT	1280.1108999999542	RIGHT	1525.7669000000078	28.700000000000014	0.8	Probable_Truth	LEFT	LEFT	2	1976.9331999998485	52	2021-03-17 15:35:16.874946
16	Self	S210317	0.6666666666666666	1	2	1	2	0.3	1283.3333359	1000.000002	1933.3333372	2066.6666708	Major	Wrong_doings	8	You have borrowed things and never returned	C1_44	0.0	Hard	I1_50	24	December is the last month of the year	0.0	Yes	RIGHT	795.3482000000349	RIGHT	335.99759999992784	RIGHT	935.4378000000452	LEFT	1175.9673999999904	29.00000000000001	0.3	Probable_Lie	LEFT	LEFT	6	705.7726999998977	53	2021-03-17 15:35:39.683807
19	Self	S210317	0.6666666666666666	1	2	1	2	0.5	1000.000002	1283.3333359	2350.0000047	1783.3333369	Major	Wrong_doings	10	You have bought cocaine	C2_40	0.8	Hard	I2_58	17	It is 20th Century now	0.722222222222222	Yes	RIGHT	873.0412000002161	RIGHT	288.5544000000664	LEFT	1023.7930999999209	LEFT	823.8653999999315	29.50000000000001	0.5	Probable_Lie	LEFT	LEFT	5	698.2489000001806	54	2021-03-17 15:36:02.389463
74	Self	S210317	0.6666666666666666	2	1	1	2	0.8	1500.000003	1000.000002	1783.3333369	2350.0000047	Major	Wrong_doings	4	You have done something against your values	C1_38	0.0	Easy	I2_22	8	Summer is hotter than winter	0.666666666666667	Yes	RIGHT	296.24909999984084	RIGHT	930.5066000001716	LEFT	1048.342299999831	LEFT	1658.4059000001616	30.30000000000001	0.8	Probable_Lie	LEFT	LEFT	5	753.2079999998587	55	2021-03-17 15:36:26.283735
73	Self	S210317	0.6666666666666666	2	1	1	2	0.7	1433.3333362	1500.000003	1650.0000033	1783.3333369	Major	Good_deeds	43	You have sheltered others from disasters	C2_23	0.0	Easy	I1_39	2	A dog has four legs	1.0	No	RIGHT	272.0197000001008	RIGHT	502.4940999999217	RIGHT	896.4452000000165	RIGHT	1074.2503999999826	31.00000000000001	0.7	Probable_Truth	LEFT	LEFT	1	968.5151999999562	56	2021-03-17 15:36:48.939198
125	Computer	S210317	0.6666666666666666	2	1	2	1	0.6	1216.6666691	1350.0000027	2066.6666708	1783.3333369	Minor	Wrong_doings	45	You have used a fake name online	C2_42	0.05	Easy	I2_34	4	There are 6 million animal species on Earth	0.0555555555555556	No	RIGHT	279.677300000003	RIGHT	1154.7963000000436	RIGHT	1296.914900000047	LEFT	1015.7014000001254	31.600000000000016	0.6	Probable_Truth	LEFT	RIGHT	3	929.6113078651688	57	2021-03-17 15:37:12.611910
50	Self	S210317	0.5	1	2	1	2	0.6	1216.6666691	1000.000002	1933.3333372	1650.0000033	Major	Good_deeds	52	You have assisted in a crime	C1_14	0.0	Hard	I1_54	54	The first Grammy awards was held in 1959	0.0	No	RIGHT	482.0054000001619	RIGHT	296.2506999999732	RIGHT	1095.2264000000014	RIGHT	1213.931300000013	32.20000000000002	0.6	Probable_Truth	LEFT	RIGHT	4	788.2692000000588	58	2021-03-17 15:37:34.867334
132	Computer	S210317	0.8333333333333334	1	2	2	1	0.4	1150.0000023	1283.3333359	1650.0000033	2066.6666708	Major	Wrong_doings	33	You have let a homeless man into your house	C2_17	1.0	Hard	I1_31	14	R. Amundsen discovered the South Pole	0.888888888888889	Yes	RIGHT	648.7514000000374	RIGHT	280.0746000000345	RIGHT	935.0531999998566	LEFT	1391.3546999999653	32.600000000000016	0.4	Probable_Truth	LEFT	LEFT	1	961.220271492235	59	2021-03-17 15:37:57.813567
82	Self	S210317	0.8333333333333334	1	2	1	2	0.4	1500.000003	1066.6666688	1500.000003	2500.000005	Major	Wrong_doings	3	You have deceived a loved one	C1_40	0.65	Easy	I1_60	5	Last day of the year is 30th December	0.0	No	RIGHT	661.0745000000406	RIGHT	312.4735000001237	LEFT	1215.801600000077	LEFT	1365.9880000000155	33.000000000000014	0.4	Probable_Truth	LEFT	LEFT	1	797.6456999999755	60	2021-03-17 15:38:21.307323
91	Self	S210317	0.8333333333333334	2	1	1	2	0.2	1066.6666688	1433.3333362	2066.6666708	2216.6666711000003	Major	Good_deeds	57	You have engaged in money laundering	C1_37	0.0	Hard	I1_36	36	Singapore is a country	0.888888888888889	No	RIGHT	224.0338999999949	RIGHT	670.0479999999516	RIGHT	864.0417999999954	LEFT	918.7692999998944	33.20000000000002	0.2	Probable_Truth	RIGHT	RIGHT	5	835.6009999999969	61	2021-03-17 15:38:44.180036
10	Self	S210317	0.5	2	1	1	2	0.3	1433.3333362	1433.3333362	1933.3333372	1650.0000033	Major	Wrong_doings	1	You have provided shelter for stray animals	C1_5	1.0	Easy	I2_56	44	The Earth is round	0.0	No	RIGHT	320.6664999997884	RIGHT	524.4936999999936	RIGHT	1055.5283999999574	LEFT	1382.9412000000048	33.500000000000014	0.3	Probable_Truth	LEFT	RIGHT	4	730.9321000000182	62	2021-03-17 15:39:07.219166
13	Self	S210317	0.5	2	1	2	1	0.5	1350.0000027	1216.6666691	2350.0000047	2500.000005	Major	Good_deeds	5	You have been sued	C1_34	0.1	Hard	I2_27	53	There are 20 bones in the human skull	0.0	Yes	RIGHT	328.1703000000107	RIGHT	394.276600000012	LEFT	1309.6321999998963	LEFT	806.8808000000445	34.000000000000014	0.5	Probable_Lie	RIGHT	RIGHT	3	639.1333000001396	63	2021-03-17 15:39:30.691118
8	Self	S210317	0.5	2	1	1	2	0.2	1150.0000023	1283.3333359	2216.6666711000003	2350.0000047	Minor	Wrong_doings	34	You have used heroin	C2_59	0.55	Hard	I2_44	42	A caterpillar has more muscle than a human	0.833333333333333	No	RIGHT	256.367500000124	RIGHT	657.2091000000455	LEFT	1335.703499999909	LEFT	723.3546999998453	34.20000000000002	0.2	Probable_Truth	RIGHT	LEFT	3	769.8785999998563	64	2021-03-17 15:39:54.011539
15	Self	S210317	0.5	2	1	2	1	0.1	1000.000002	1000.000002	1783.3333369	2066.6666708	Minor	Good_deeds	34	You have returned your trays in food courts	C2_19	0.2	Hard	I2_42	33	Cheese is an Asian staple	0.722222222222222	Yes	RIGHT	32.37130000002253	RIGHT	538.9748999998574	LEFT	1391.7481000000862	RIGHT	1040.5276999999842	34.30000000000002	0.1	Probable_Lie	RIGHT	LEFT	6	1036.763300000075	65	2021-03-17 15:40:16.476681
122	Computer	S210317	0.6666666666666666	2	1	1	2	0.4	1066.6666688	1433.3333362	1783.3333369	2500.000005	Minor	Wrong_doings	49	You have taken responsibility for your actions	C1_49	0.7	Hard	I2_11	29	Some owl species hunt fish	0.0	No	RIGHT	296.5836000003037	RIGHT	552.9234999999062	LEFT	1365.886699999919	RIGHT	1006.0275000000728	34.70000000000002	0.4	Probable_Lie	LEFT	RIGHT	1	758.9766933953676	66	2021-03-17 15:40:39.804434
69	Self	S210317	0.6666666666666666	1	2	2	1	0.5	1000.000002	1283.3333359	1933.3333372	1783.3333369	Major	Good_deeds	3	You have engaged in arson	C2_46	0.95	Hard	I2_50	47	South East Asia is currently free from polio	0.0	Yes	RIGHT	745.3655999997864	RIGHT	241.05520000011893	LEFT	2408.1209999999373	LEFT	863.5156999998799	35.20000000000002	0.5	Probable_Lie	LEFT	LEFT	4	794.1707999998471	67	2021-03-17 15:41:03.434912
72	Self	S210317	0.6666666666666666	2	1	1	2	0.1	1283.3333359	1283.3333359	2216.6666711000003	1650.0000033	Minor	Good_deeds	51	You have taken part in burglary	C2_47	0.0	Hard	I1_2	22	Earth's atmosphere extends up to 10,000km into space	0.0	Yes	RIGHT	253.7822999997843	RIGHT	841.7394000002787	RIGHT	1038.50089999969	LEFT	856.4390999999887	35.30000000000002	0.1	Probable_Lie	RIGHT	RIGHT	1	1135.9741999999642	68	2021-03-17 15:41:26.571633
51	Self	S210317	0.5	1	2	1	2	0.4	1433.3333362	1066.6666688	2500.000005	2216.6666711000003	Major	Wrong_doings	30	You have fabricated facts about yourself	C2_16	0.2	Easy	I2_25	54	Vegetarians can eat vegetable products	0.0	No	RIGHT	556.159100000059	RIGHT	273.36689999992814	RIGHT	1664.4442000001618	LEFT	1472.5702000000638	35.70000000000002	0.4	Probable_Lie	LEFT	RIGHT	3	1144.355600000381	69	2021-03-17 15:41:51.474871
116	Computer	S210317	0.6666666666666666	1	2	2	1	0.3	1150.0000023	1216.6666691	2500.000005	1933.3333372	Minor	Good_deeds	12	You have offered a listening ear to a friend	C1_31	0.05	Easy	I1_24	58	Dutch is the 6th Europe's most widely spoken language	0.0	No	RIGHT	1733.8893000001008	RIGHT	448.3136999997441	RIGHT	2229.470199999924	RIGHT	1150.9209000000735	36.000000000000014	0.3	Probable_Lie	LEFT	RIGHT	2	654.3440591662873	70	2021-03-17 15:42:17.059512
113	Computer	S210317	0.6666666666666666	1	2	1	2	0.2	1500.000003	1150.0000023	2216.6666711000003	1500.000003	Minor	Good_deeds	35	You have donated a pay cheque to charity	C2_29	1.0	Easy	I2_17	12	Nomophobia is the fear of being without a phone or computer	0.944444444444444	No	RIGHT	458.3585999998832	RIGHT	217.1891000002688	RIGHT	1648.7932	RIGHT	1564.075100000082	36.20000000000002	0.2	Probable_Lie	LEFT	RIGHT	2	918.7098790019912	71	2021-03-17 15:42:40.811346
79	Self	S210317	0.6666666666666666	2	1	2	1	0.2	1150.0000023	1433.3333362	2066.6666708	2500.000005	Minor	Wrong_doings	38	You have started a hotline for victims of bully	C1_51	0.95	Easy	I2_52	23	Milwaukee Art Museum is located in California	0.0	No	RIGHT	319.6917999998732	RIGHT	558.852300000126	RIGHT	2543.013200000132	LEFT	1742.5846000001002	36.40000000000002	0.2	Probable_Lie	LEFT	LEFT	6	711.7129000002933	72	2021-03-17 15:43:06.411163
110	Computer	S210317	0.5	2	1	2	1	0.3	1000.000002	1283.3333359	1933.3333372	1650.0000033	Minor	Wrong_doings	14	You have helped your parents when asked to	C2_34	0.9	Easy	I1_53	56	There is typically 0.6 grams of mercury in glass thermometer	0.722222222222222	Yes	RIGHT	216.30940000022747	RIGHT	750.9364999996251	RIGHT	1062.312099999872	RIGHT	1047.716600000058	36.70000000000002	0.3	Probable_Lie	LEFT	RIGHT	3	750.503619665089	73	2021-03-17 15:43:28.675491
7	Self	S210317	0.5	1	2	2	1	0.8	1066.6666688	1433.3333362	2216.6666711000003	1933.3333372	Minor	Wrong_doings	54	You have engaged in drink-driving	C1_27	0.05	Easy	I1_1	45	Today is Sunday	0.0	No	RIGHT	424.5711999997184	RIGHT	208.50909999990108	LEFT	780.6298000000425	LEFT	751.5748000000713	37.500000000000014	0.8	Probable_Lie	RIGHT	RIGHT	2	801.3667999998688	74	2021-03-17 15:43:50.867110
138	Computer	S210317	0.8333333333333334	2	1	1	2	0.7	1350.0000027	1216.6666691	2500.000005	1500.000003	Major	Good_deeds	27	You have cheated on a test	C2_27	0.65	Easy	I2_28	38	A square has 3 corners	1.0	No	RIGHT	128.87050000017553	RIGHT	1042.1489999998812	LEFT	992.604399999891	LEFT	983.0220999997435	38.20000000000002	0.7	Probable_Truth	RIGHT	RIGHT	3	884.2188357580274	75	2021-03-17 15:44:14.034922
109	Computer	S210317	0.5	2	1	2	1	0.8	1066.6666688	1500.000003	1500.000003	2500.000005	Major	Good_deeds	5	You have been sued	C1_34	0.1	Hard	I2_27	53	There are 20 bones in the human skull	0.0	Yes	RIGHT	231.48130000026867	RIGHT	487.5747000000956	RIGHT	1011.9656000001668	LEFT	672.5913000000219	39.000000000000014	0.8	Probable_Truth	RIGHT	LEFT	2	521.0912373578462	76	2021-03-17 15:44:36.098942
124	Computer	S210317	0.6666666666666666	2	1	2	1	0.7	1000.000002	1283.3333359	2500.000005	1933.3333372	Minor	Good_deeds	58	You have kidnapped someone	C1_19	1.0	Easy	I1_28	11	Statute of Liberty is in New York	0.888888888888889	No	RIGHT	272.24459999979445	RIGHT	483.3960999999362	RIGHT	885.212600000159	LEFT	600.507899999684	39.70000000000002	0.7	Probable_Truth	LEFT	LEFT	1	633.6014837464097	77	2021-03-17 15:44:58.258840
20	Self	S210317	0.6666666666666666	1	2	2	1	0.1	1500.000003	1433.3333362	2066.6666708	1500.000003	Minor	Good_deeds	12	You have offered a listening ear to a friend	C1_31	0.05	Easy	I1_24	58	Dutch is the 6th Europe's most widely spoken language	0.0	No	RIGHT	550.673199999892	RIGHT	215.94790000017383	RIGHT	884.9452999997993	RIGHT	912.647300000117	39.80000000000002	0.1	Probable_Truth	LEFT	LEFT	2	1653.2208999997238	78	2021-03-17 15:45:21.546003
135	Computer	S210317	0.8333333333333334	1	2	2	1	0.6	1283.3333359	1150.0000023	2350.0000047	2350.0000047	Minor	Wrong_doings	18	You have said sorry when you were rude	C1_11	0.55	Easy	I1_13	43	Septicemia is a lung infection condition	0.0	Yes	RIGHT	1192.9270999999062	RIGHT	407.712399999582	LEFT	1251.1527999999998	RIGHT	768.2927000000745	40.40000000000002	0.6	Probable_Lie	RIGHT	RIGHT	1	528.9217089064919	79	2021-03-17 15:45:45.402963
36	Self	S210317	0.8333333333333334	1	2	2	1	0.4	1500.000003	1433.3333362	2350.0000047	1650.0000033	Major	Wrong_doings	33	You have let a homeless man into your house	C2_17	1.0	Hard	I1_31	14	R. Amundsen discovered the South Pole	0.888888888888889	Yes	RIGHT	834.565399999974	RIGHT	271.4860999999473	RIGHT	1603.5044999998718	LEFT	871.3965000001735	40.80000000000002	0.4	Probable_Lie	LEFT	LEFT	3	687.7182000002904	80	2021-03-17 15:46:09.186671
87	Self	S210317	0.8333333333333334	1	2	2	1	0.7	1433.3333362	1150.0000023	2216.6666711000003	2216.6666711000003	Major	Good_deeds	40	You have started a movement to support a cause	C2_45	0.0	Easy	I1_48	48	Africa is the continent with the least rainfall	0.0555555555555556	No	RIGHT	808.4429999998974	RIGHT	1159.4230000000607	RIGHT	1966.7030000000525	LEFT	1654.6696999998858	41.50000000000002	0.7	Probable_Truth	RIGHT	RIGHT	2	1007.658099999844	81	2021-03-17 15:46:35.378239
9	Self	S210317	0.5	2	1	1	2	0.7	1216.6666691	1350.0000027	2066.6666708	2216.6666711000003	Major	Good_deeds	59	You have faked an illness	C1_1	0.0	Easy	I1_15	19	Beer is an alcoholic drink	0.764705882352941	Yes	RIGHT	401.2463000003663	RIGHT	367.2251999996661	RIGHT	1078.3950000000004	LEFT	902.1017000000028	42.20000000000002	0.7	Probable_Lie	LEFT	RIGHT	3	688.1905999998708	82	2021-03-17 15:46:58.243342
140	Computer	S210317	0.8333333333333334	2	1	2	1	0.8	1000.000002	1350.0000027	1650.0000033	1650.0000033	Minor	Wrong_doings	31	You have bribed someone to improve a grade	C1_17	0.0	Easy	I2_18	28	Slavery was abolished in Cuba in 1886	0.0555555555555556	No	RIGHT	456.4642000000276	RIGHT	551.6609999999673	RIGHT	857.0340000001124	LEFT	927.412000000004	43.00000000000002	0.8	Probable_Lie	RIGHT	LEFT	6	550.1960507973952	83	2021-03-17 15:47:19.810705
99	Computer	S210317	0.5	1	2	1	2	0.4	1500.000003	1433.3333362	2500.000005	2216.6666711000003	Major	Wrong_doings	27	You have intentionally let others cut in line	C2_54	0.7	Hard	I2_51	46	Today is a weekday	0.0555555555555556	No	RIGHT	1053.500399999848	RIGHT	118.46009999999296	RIGHT	927.9112999997778	RIGHT	1647.4224000003233	43.40000000000002	0.4	Probable_Lie	RIGHT	RIGHT	2	906.6566757348288	84	2021-03-17 15:47:44.682200
59	Self	S210317	0.5	2	1	1	2	0.2	1350.0000027	1350.0000027	2350.0000047	2216.6666711000003	Major	Good_deeds	30	You have been physically hurt to protect others	C2_56	0.45	Hard	I1_37	3	Singapore has four seasons	0.0	No	RIGHT	304.69319999974687	RIGHT	514.1776000000391	LEFT	760.642100000041	RIGHT	1673.4050999998544	43.60000000000002	0.2	Probable_Lie	RIGHT	RIGHT	1	1089.7125000001324	85	2021-03-17 15:48:08.867530
22	Self	S210317	0.6666666666666666	1	2	2	1	0.2	1150.0000023	1216.6666691	2216.6666711000003	2350.0000047	Major	Wrong_doings	40	You have risked your life to save another person's life	C2_35	0.95	Hard	I1_52	12	Cleopatra was born in Greece	0.888888888888889	Yes	RIGHT	488.9379999999619	RIGHT	271.1156000000301	RIGHT	1011.4754999999604	LEFT	1343.9794000000802	43.800000000000026	0.2	Probable_Truth	RIGHT	RIGHT	5	751.3855000001968	86	2021-03-17 15:48:32.243228
27	Self	S210317	0.6666666666666666	2	1	1	2	0.6	1066.6666688	1066.6666688	1783.3333369	2350.0000047	Major	Wrong_doings	42	You have given way to the handicapped	C1_45	0.75	Easy	I1_29	41	There are 6000 spoken languages in the World	0.0	Yes	RIGHT	225.2547000002778	RIGHT	601.3605000002826	RIGHT	696.5189000002283	RIGHT	1051.789000000099	44.40000000000003	0.6	Probable_Truth	RIGHT	RIGHT	3	477.806899999905	87	2021-03-17 15:48:54.138003
137	Computer	S210317	0.8333333333333334	2	1	1	2	0.3	1500.000003	1150.0000023	2216.6666711000003	1783.3333369	Major	Good_deeds	17	You have queued to enter the MRT train	C2_31	0.0	Easy	I1_38	5	Algeria is Africa's second largest country	0.666666666666667	Yes	RIGHT	81.40240000011545	RIGHT	570.6688000000213	LEFT	2160.2092000002813	RIGHT	1106.4068999999108	44.70000000000002	0.3	Probable_Lie	RIGHT	RIGHT	1	593.5062569924208	88	2021-03-17 15:49:17.874130
128	Computer	S210317	0.8333333333333334	1	2	1	2	0.8	1500.000003	1350.0000027	1500.000003	1783.3333369	Major	Good_deeds	11	You have been restricting your electricity consumption	C1_6	0.0	Easy	I2_59	13	Teddy Roosevelt was the youngest US President	0.833333333333333	No	RIGHT	426.1228000000301	RIGHT	240.7098000003316	LEFT	1639.133899999706	RIGHT	1570.5321999998887	45.50000000000002	0.8	Probable_Lie	RIGHT	LEFT	5	712.0080218467349	89	2021-03-17 15:49:41.169949
60	Self	S210317	0.5	2	1	2	1	0.1	1216.6666691	1500.000003	2500.000005	1933.3333372	Major	Good_deeds	47	You have blackmailed others for money	C1_47	0.05	Hard	I1_25	6	It sometimes snows in Singapore	0.888888888888889	Yes	RIGHT	312.7124000002368	RIGHT	365.0946000002477	LEFT	806.5237000000707	LEFT	736.5537000000586	45.60000000000002	0.1	Probable_Truth	RIGHT	RIGHT	5	957.804699999997	90	2021-03-17 15:50:04.074729
64	Self	S210317	0.6666666666666666	1	2	1	2	0.2	1150.0000023	1216.6666691	1650.0000033	1933.3333372	Major	Wrong_doings	50	You have stopped using products tested on animals	C2_2	0.25	Easy	I1_27	50	Pyramid of Giza is 468 feet tall	0.888888888888889	No	RIGHT	581.7812000000231	RIGHT	72.45740000007572	RIGHT	1063.4282000000894	RIGHT	2003.295099999832	45.800000000000026	0.2	Probable_Truth	RIGHT	RIGHT	6	760.160100000121	91	2021-03-17 15:50:27.082719
62	Self	S210317	0.5	2	1	2	1	0.3	1066.6666688	1216.6666691	1650.0000033	2500.000005	Minor	Good_deeds	56	You have switched off appliances when not in use	C1_35	0.9	Hard	I2_3	60	Astatine is the rarest element in the Earth's crust	0.611111111111111	No	RIGHT	552.3120999996536	RIGHT	422.62669999990976	LEFT	1677.0717999997942	RIGHT	896.755100000064	46.10000000000002	0.3	Probable_Truth	RIGHT	RIGHT	4	602.296899999601	92	2021-03-17 15:50:50.243172
114	Computer	S210317	0.6666666666666666	1	2	1	2	0.1	1066.6666688	1500.000003	1933.3333372	2350.0000047	Minor	Wrong_doings	29	You have bribed a police officer	C1_12	0.2	Easy	I2_12	52	Penguin can fly with their wings	0.0	No	RIGHT	1860.1246999996877	RIGHT	889.1030999998293	LEFT	1127.898499999901	LEFT	908.0079000000296	46.20000000000002	0.1	Probable_Truth	RIGHT	LEFT	2	818.4209465176652	93	2021-03-17 15:51:15.266803
97	Computer	S210317	0.5	1	2	1	2	0.7	1216.6666691	1216.6666691	1783.3333369	2500.000005	Major	Good_deeds	53	You have complimented others for good work	C1_23	0.85	Hard	I1_17	17	Brazil is in South America	1.0	Yes	RIGHT	501.5898000001471	RIGHT	279.7034000000167	RIGHT	800.4104999999981	RIGHT	869.050000000243	46.90000000000003	0.7	Probable_Lie	LEFT	LEFT	4	846.0792439877498	94	2021-03-17 15:51:37.858780
104	Computer	S210317	0.5	2	1	1	2	0.4	1216.6666691	1066.6666688	2500.000005	2350.0000047	Minor	Wrong_doings	34	You have used heroin	C2_59	0.55	Hard	I2_44	42	A caterpillar has more muscle than a human	0.833333333333333	No	RIGHT	336.592400000427	RIGHT	1835.0960000002488	LEFT	839.4167999999809	LEFT	1081.460800000059	47.300000000000026	0.4	Probable_Truth	LEFT	LEFT	3	788.0958854019459	95	2021-03-17 15:52:02.442427
24	Self	S210317	0.6666666666666666	2	1	1	2	0.5	1500.000003	1433.3333362	2066.6666708	2216.6666711000003	Major	Wrong_doings	13	You have cheated on a national exam	C1_7	0.05	Hard	I2_4	34	A triangle has three sides	0.0	No	RIGHT	264.1135000003487	RIGHT	669.3833000003906	RIGHT	1104.2390000002342	LEFT	720.8229000002575	47.800000000000026	0.5	Probable_Lie	RIGHT	RIGHT	2	1345.9556999996494	96	2021-03-17 15:52:56.522766
11	Self	S210317	0.5	2	1	1	2	0.4	1283.3333359	1150.0000023	1650.0000033	1933.3333372	Major	Wrong_doings	19	You have drunk alcohol when you were underage	C1_42	1.0	Hard	I1_19	27	Acoustic Kitty refers to cat with implants	0.111111111111111	No	RIGHT	336.08379999986937	RIGHT	423.0979000003572	LEFT	711.0204000000522	LEFT	1107.7415999998266	48.20000000000002	0.4	Probable_Truth	RIGHT	LEFT	1	1549.3968000000675	97	2021-03-17 15:53:19.242243
63	Self	S210317	0.5	2	1	2	1	0.7	1433.3333362	1433.3333362	1783.3333369	1650.0000033	Minor	Wrong_doings	20	You have helped others to pick up their belongings	C2_7	1.0	Easy	I2_21	43	The hardest bone in human body is the jawbone	0.0	Yes	RIGHT	174.92029999993974	RIGHT	775.8646999996017	LEFT	1902.2537000000736	RIGHT	791.9194000000971	48.90000000000003	0.7	Probable_Truth	LEFT	RIGHT	4	667.2288999998273	98	2021-03-17 15:53:42.435674
30	Self	S210317	0.6666666666666666	2	1	2	1	0.2	1350.0000027	1216.6666691	2350.0000047	1783.3333369	Major	Good_deeds	19	You have taken months off to volunteer	C2_26	0.0	Hard	I1_58	28	The Amazon forest covers an area of 1 billion acres	0.888888888888889	Yes	RIGHT	176.08199999995122	RIGHT	427.8387999997904	RIGHT	872.9803999999604	LEFT	839.176899999984	49.10000000000003	0.2	Probable_Lie	LEFT	LEFT	3	692.0927999999549	99	2021-03-17 15:54:04.721878
103	Computer	S210317	0.5	1	2	2	1	0.2	1283.3333359	1066.6666688	1500.000003	1933.3333372	Minor	Wrong_doings	54	You have engaged in drink-driving	C1_27	0.05	Easy	I1_1	45	Today is Sunday	0.0	No	RIGHT	1063.3199999997487	RIGHT	256.8897000001016	LEFT	734.6345000000838	LEFT	751.1098999998467	49.30000000000003	0.2	Probable_Lie	LEFT	RIGHT	2	870.7478872158856	100	2021-03-17 15:54:26.746658
86	Self	S210317	0.8333333333333334	1	2	2	1	0.8	1150.0000023	1350.0000027	1783.3333369	1500.000003	Minor	Wrong_doings	45	You have said thank you when you have received help	C2_33	0.0	Hard	I2_36	8	Marijuana is legal in Singapore	0.0	Yes	RIGHT	817.3553000001448	RIGHT	383.91290000026856	LEFT	1231.024400000024	RIGHT	1519.8656999996274	50.10000000000003	0.8	Probable_Truth	LEFT	LEFT	1	1192.9359999999178	101	2021-03-17 15:54:50.251417
38	Self	S210317	0.8333333333333334	1	2	2	1	0.2	1350.0000027	1000.000002	2216.6666711000003	2216.6666711000003	Major	Wrong_doings	48	You have shown your appreciation to your teachers	C2_18	0.0	Hard	I1_14	31	There are 7 days in a week	0.944444444444444	No	RIGHT	592.3050999999759	RIGHT	552.3499000000811	RIGHT	864.1990000000987	RIGHT	655.1604000001134	50.30000000000003	0.2	Probable_Truth	LEFT	LEFT	1	630.442099999982	102	2021-03-17 15:55:12.905196
23	Self	S210317	0.6666666666666666	1	2	2	1	0.6	1350.0000027	1066.6666688	1500.000003	1650.0000033	Major	Good_deeds	31	You have held the elevator doors for others	C2_10	0.0	Easy	I2_24	50	Malay is one of the races in Singapore	0.944444444444444	No	RIGHT	589.7156999999424	RIGHT	279.63950000003024	RIGHT	1127.233299999716	RIGHT	688.52969999989	50.900000000000034	0.6	Probable_Lie	RIGHT	RIGHT	1	566.4566000000377	103	2021-03-17 15:55:34.298717
100	Computer	S210317	0.5	1	2	2	1	0.5	1000.000002	1500.000003	2066.6666708	1500.000003	Minor	Wrong_doings	23	You have coveted things that belong to others	C2_20	0.0	Hard	I2_35	1	Singapore ranked 8th in World's smallest countries	0.777777777777778	No	RIGHT	912.17319999987	RIGHT	304.1184999997313	LEFT	2645.852100000411	LEFT	3286.9187000001148	51.400000000000034	0.5	Probable_Truth	RIGHT	LEFT	2	860.821331530849	104	2021-03-17 15:56:00.954345
17	Self	S210317	0.6666666666666666	1	2	1	2	0.7	1433.3333362	1500.000003	2500.000005	2500.000005	Minor	Good_deeds	35	You have donated a pay cheque to charity	C2_29	1.0	Easy	I2_17	12	Nomophobia is the fear of being without a phone or computer	0.944444444444444	No	RIGHT	693.5512999998537	RIGHT	248.73660000002928	LEFT	1095.5314000002545	LEFT	1358.7668000000122	52.10000000000004	0.7	Probable_Truth	LEFT	LEFT	2	998.4197000003404	105	2021-03-17 15:56:25.857905
54	Self	S210317	0.5	1	2	2	1	0.1	1283.3333359	1500.000003	1650.0000033	1783.3333369	Minor	Wrong_doings	59	You have held the door open for a stranger	C2_37	0.05	Hard	I1_57	4	The human's inner ear is larger than a pencil eraser	0.666666666666667	Yes	RIGHT	486.6086000001815	RIGHT	321.0711000001538	RIGHT	2071.931099999801	RIGHT	775.3622000000178	52.20000000000004	0.1	Probable_Lie	LEFT	RIGHT	2	940.0127999997494	106	2021-03-17 15:56:49.250317
5	Self	S210317	0.5	1	2	2	1	0.7	1000.000002	1283.3333359	2066.6666708	2500.000005	Major	Good_deeds	38	You have been donating all your excess food to a food bank	C2_38	0.85	Hard	I2_46	51	The Earth turns the closest to the sun in May	0.888888888888889	Yes	RIGHT	542.1555000002627	RIGHT	185.4432999998608	RIGHT	1117.2980999999709	RIGHT	1342.2950999997738	52.90000000000004	0.7	Probable_Truth	LEFT	RIGHT	4	794.7295000003578	107	2021-03-17 15:57:12.658801
31	Self	S210317	0.6666666666666666	2	1	2	1	0.4	1216.6666691	1350.0000027	2216.6666711000003	2066.6666708	Minor	Good_deeds	7	You have violated a traffic law	C2_58	0.0	Easy	I1_41	58	Christmas Day is in March	0.777777777777778	Yes	RIGHT	280.2099000000453	RIGHT	511.2785000001168	LEFT	855.5322000001979	LEFT	816.4323999999397	53.30000000000004	0.4	Probable_Truth	RIGHT	RIGHT	5	670.9922000000006	108	2021-03-17 15:57:35.218269
117	Computer	S210317	0.6666666666666666	1	2	2	1	0.6	1433.3333362	1066.6666688	1783.3333369	2500.000005	Minor	Good_deeds	44	You have made someone cry	C1_8	0.95	Hard	I1_12	24	The Seine river is 50 feet above sea level	0.0555555555555556	Yes	RIGHT	1542.9902000000766	RIGHT	591.8873000000531	RIGHT	1186.5242999997463	RIGHT	1110.9582999997656	53.90000000000004	0.6	Probable_Truth	LEFT	LEFT	2	620.6260504731222	109	2021-03-17 15:57:59.625614
80	Self	S210317	0.8333333333333334	1	2	1	2	0.5	1066.6666688	1216.6666691	1650.0000033	2350.0000047	Minor	Good_deeds	22	You have pretended to be busy to avoid a social situation	C1_22	0.05	Hard	I1_21	21	The Eiffel Tower is in Paris	0.0	No	RIGHT	423.761800000193	RIGHT	288.21749999997337	RIGHT	799.2835000000014	LEFT	1699.3814000002203	54.40000000000004	0.5	Probable_Truth	LEFT	LEFT	1	714.1590999999607	110	2021-03-17 15:58:22.410344
90	Self	S210317	0.8333333333333334	2	1	1	2	0.6	1150.0000023	1500.000003	1783.3333369	2500.000005	Minor	Wrong_doings	46	You have helped a friend in need	C1_13	1.0	Hard	I2_40	35	Polish is 20th most spoken language in the World	0.666666666666667	No	RIGHT	248.1076000003668	RIGHT	1625.881699999809	LEFT	1175.309599999764	RIGHT	765.6475999997383	55.00000000000004	0.6	Probable_Lie	RIGHT	RIGHT	1	601.3788999998724	111	2021-03-17 15:58:46.338167
65	Self	S210317	0.6666666666666666	1	2	1	2	0.8	1350.0000027	1066.6666688	2066.6666708	1650.0000033	Minor	Wrong_doings	36	You have kept your promises	C1_3	0.55	Hard	I2_53	49	There are 10 continents in the World	0.777777777777778	Yes	RIGHT	460.1407999998628	RIGHT	336.2665999998171	LEFT	887.597999999798	RIGHT	736.9717999999921	55.80000000000004	0.8	Probable_Lie	RIGHT	RIGHT	2	1076.5282999996089	112	2021-03-17 15:59:08.544868
129	Computer	S210317	0.8333333333333334	1	2	1	2	0.7	1350.0000027	1000.000002	1933.3333372	1500.000003	Minor	Good_deeds	6	You have claimed doing things that you never did	C1_60	0.45	Hard	I1_46	41	February has 30 days	0.0	No	RIGHT	573.3626999999615	RIGHT	208.30369999976028	LEFT	728.7182999998549	LEFT	1862.0711000003207	56.50000000000004	0.7	Probable_Truth	LEFT	RIGHT	5	574.5807888491292	113	2021-03-17 15:59:30.842474
43	Self	S210317	0.8333333333333334	2	1	1	2	0.5	1216.6666691	1066.6666688	2500.000005	1933.3333372	Major	Good_deeds	39	You have volunteered every week for many years	C2_11	1.0	Hard	I1_5	38	Chickens lay eggs	0.0	Yes	RIGHT	439.4523000000845	RIGHT	405.2267000001848	RIGHT	1078.9808999998058	LEFT	780.8064000000741	57.00000000000004	0.5	Probable_Truth	RIGHT	RIGHT	5	597.6027000001523	114	2021-03-17 15:59:53.441076
111	Computer	S210317	0.5	2	1	2	1	0.7	1283.3333359	1000.000002	2216.6666711000003	1933.3333372	Minor	Good_deeds	34	You have returned your trays in food courts	C2_19	0.2	Hard	I2_42	33	Cheese is an Asian staple	0.722222222222222	Yes	RIGHT	248.1156999997438	RIGHT	614.7965999998632	LEFT	1029.5083999999406	RIGHT	735.8475999999428	57.700000000000045	0.7	Probable_Lie	RIGHT	RIGHT	3	807.457144651735	115	2021-03-17 16:00:15.874577
4	Self	S210317	0.5	1	2	2	1	0.6	1150.0000023	1350.0000027	2350.0000047	1500.000003	Minor	Wrong_doings	23	You have coveted things that belong to others	C2_20	0.0	Hard	I2_35	1	Singapore ranked 8th in World's smallest countries	0.777777777777778	No	RIGHT	603.3927000003132	RIGHT	345.1751000002332	LEFT	1126.17309999996	LEFT	1455.380900000364	58.30000000000005	0.6	Probable_Lie	RIGHT	LEFT	4	721.1765000001833	116	2021-03-17 16:00:39.050066
56	Self	S210317	0.5	2	1	1	2	0.6	1283.3333359	1283.3333359	2216.6666711000003	2350.0000047	Major	Wrong_doings	50	You have lied to your parents	C1_30	0.0	Easy	I2_60	21	Red is a color	0.0	Yes	RIGHT	368.07379999982	RIGHT	792.3627000000124	LEFT	744.1876000002594	LEFT	946.6880999998466	58.90000000000005	0.6	Probable_Truth	RIGHT	LEFT	2	695.0231999999232	117	2021-03-17 16:01:02.305334
85	Self	S210317	0.8333333333333334	1	2	2	1	0.2	1000.000002	1000.000002	2350.0000047	1783.3333369	Minor	Wrong_doings	9	You have confessed to your mistake	C2_24	1.0	Hard	I2_5	45	The hyoid bone is the only jointless bone	0.777777777777778	Yes	RIGHT	676.2885999996797	RIGHT	304.85689999977694	LEFT	1753.4891000000243	RIGHT	814.897899999778	59.10000000000005	0.2	Probable_Lie	RIGHT	RIGHT	1	1182.4588999998014	118	2021-03-17 16:01:25.745636
57	Self	S210317	0.5	2	1	1	2	0.4	1500.000003	1150.0000023	1500.000003	2066.6666708	Minor	Good_deeds	1	You have stolen something	C1_20	0.65	Easy	I2_26	26	Mageirocophobia is a fear of deathly disease	0.0555555555555556	No	RIGHT	336.2563000000591	RIGHT	853.0835000001389	LEFT	982.2358999999778	LEFT	974.02749999992	59.50000000000005	0.4	Probable_Lie	RIGHT	RIGHT	3	802.6045000001432	119	2021-03-17 16:01:48.489125
41	Self	S210317	0.8333333333333334	2	1	1	2	0.3	1066.6666688	1350.0000027	1933.3333372	1783.3333369	Major	Good_deeds	17	You have queued to enter the MRT train	C2_31	0.0	Easy	I1_38	5	Algeria is Africa's second largest country	0.666666666666667	Yes	RIGHT	263.4087000001273	RIGHT	716.0625999999866	LEFT	944.8701999999683	RIGHT	756.9355999999061	59.80000000000005	0.3	Probable_Truth	RIGHT	RIGHT	2	611.8390999999974	120	2021-03-17 16:02:10.489880
47	Self	S210317	0.8333333333333334	2	1	2	1	0.2	1350.0000027	1500.000003	2216.6666711000003	2216.6666711000003	Minor	Wrong_doings	29	You have lost everything just to help others	C1_48	0.15	Hard	I1_11	11	It takes 500 days to travel from Earth to Mars	0.0	No	RIGHT	233.2747000000381	RIGHT	487.5981000000138	RIGHT	2238.8945000002423	LEFT	3191.1677999996755	60.00000000000005	0.2	Probable_Truth	RIGHT	RIGHT	4	587.4374999998508	121	2021-03-17 16:02:37.090324
88	Self	S210317	0.8333333333333334	2	1	1	2	0.3	1433.3333362	1150.0000023	1650.0000033	2066.6666708	Major	Good_deeds	13	You have watched a pirated movie	C2_8	0.1	Hard	I1_10	40	Fibers in oranges can be used to make fabric	0.611111111111111	Yes	RIGHT	1424.326899999869	RIGHT	861.8710000000647	LEFT	2231.5763999999945	LEFT	1590.8660999998574	60.30000000000005	0.3	Probable_Lie	RIGHT	RIGHT	1	716.9203000003108	122	2021-03-17 16:03:02.794589
35	Self	S210317	0.8333333333333334	1	2	1	2	0.5	1066.6666688	1500.000003	1783.3333369	2350.0000047	Minor	Good_deeds	39	You have downloaded pirated movies	C2_48	0.95	Hard	I2_43	59	Obama is the USA president now	0.0	Yes	RIGHT	610.6733000001441	RIGHT	343.60049999986586	LEFT	1168.6319000000367	LEFT	1338.7606999999662	60.80000000000005	0.5	Probable_Truth	LEFT	LEFT	1	751.2891999999738	123	2021-03-17 16:03:26.282068
131	Computer	S210317	0.8333333333333334	1	2	1	2	0.5	1433.3333362	1216.6666691	1783.3333369	2216.6666711000003	Minor	Good_deeds	39	You have downloaded pirated movies	C2_48	0.95	Hard	I2_43	59	Obama is the USA president now	0.0	Yes	LEFT	1216.5084000002937	LEFT	1177.202800000032	LEFT	1096.704999999929	LEFT	1198.0991999998878	60.80000000000005	0.5	Probable_Lie	RIGHT	LEFT	5	976.593052650532	124	2021-03-17 16:03:51.177474
71	Self	S210317	0.6666666666666666	1	2	2	1	0.6	1216.6666691	1350.0000027	2216.6666711000003	2216.6666711000003	Minor	Wrong_doings	25	You have eaten something in the MRT train	C1_50	0.85	Easy	I2_6	53	Beef comes from cows	0.0	No	RIGHT	615.6857999999374	RIGHT	431.51620000026014	RIGHT	1240.4317000000449	LEFT	1168.3139000001574	61.40000000000005	0.6	Probable_Truth	LEFT	LEFT	2	726.8819999999323	125	2021-03-17 16:04:14.937631
92	Self	S210317	0.8333333333333334	2	1	2	1	0.1	1216.6666691	1350.0000027	1933.3333372	1500.000003	Major	Good_deeds	53	You have helped with household chores	C1_16	1.0	Easy	I2_48	2	French is Singapore's official language	1.0	Yes	RIGHT	471.8664000001809	RIGHT	460.57840000003125	LEFT	1125.3884000002472	LEFT	1079.6293999997033	61.50000000000005	0.1	Probable_Truth	LEFT	LEFT	1	639.3447000000378	126	2021-03-17 16:04:37.291416
25	Self	S210317	0.6666666666666666	2	1	1	2	0.1	1000.000002	1283.3333359	2500.000005	2500.000005	Major	Good_deeds	26	You have stopped using plastics completely	C2_13	0.95	Hard	I2_33	33	North Korea is more developed than South Korea	0.833333333333333	Yes	RIGHT	568.4940999999526	RIGHT	740.4043999999885	LEFT	863.1894999998622	LEFT	1492.758099999719	61.60000000000005	0.1	Probable_Truth	LEFT	LEFT	2	736.1321999997017	127	2021-03-17 16:05:01.553885
2	Self	S210317	0.5	1	2	1	2	0.5	1433.3333362	1150.0000023	1933.3333372	1650.0000033	Major	Good_deeds	43	You have rescued others from a catastrophe	C2_28	0.05	Easy	I1_45	55	Singapore is a poor country	0.0	Yes	RIGHT	1048.301899999842	RIGHT	1293.7984999998662	LEFT	846.9245000001138	LEFT	1320.2847000002291	62.10000000000005	0.5	Probable_Lie	RIGHT	LEFT	6	965.4627999998412	128	2021-03-17 16:05:25.777304
32	Self	S210317	0.8333333333333334	1	2	1	2	0.1	1150.0000023	1350.0000027	1500.000003	1933.3333372	Major	Good_deeds	11	You have been restricting your electricity consumption	C1_6	0.0	Easy	I2_59	13	Teddy Roosevelt was the youngest US President	0.833333333333333	No	RIGHT	2361.8704000000434	RIGHT	272.8729000000385	LEFT	879.7680000002401	RIGHT	1244.683399999758	62.20000000000005	0.1	Probable_Truth	LEFT	LEFT	1	704.8036999999567	129	2021-03-17 16:05:49.753164
6	Self	S210317	0.5	1	2	2	1	0.4	1350.0000027	1500.000003	1783.3333369	2216.6666711000003	Minor	Good_deeds	28	You have participated in a scamming business	C1_43	0.95	Easy	I1_32	32	Lehman Brothers went bankrupt on 20th September	0.0555555555555556	No	RIGHT	616.6330000000926	RIGHT	1080.4097000000183	RIGHT	1254.6449999999822	LEFT	855.4977999997391	62.60000000000005	0.4	Probable_Lie	LEFT	RIGHT	2	637.0665999997982	130	2021-03-17 16:06:13.624997
81	Self	S210317	0.8333333333333334	1	2	1	2	0.1	1216.6666691	1500.000003	2500.000005	2066.6666708	Major	Good_deeds	24	You have adopted a zero-waste lifestyle	C1_9	0.05	Easy	I2_8	60	Feijoa is a type of grape	0.944444444444444	Yes	RIGHT	354.7883000001093	RIGHT	184.7883999998885	RIGHT	1206.091000000015	RIGHT	1455.259500000011	62.70000000000005	0.1	Probable_Truth	LEFT	LEFT	1	775.6655999996838	131	2021-03-17 16:06:37.466060
98	Computer	S210317	0.5	1	2	1	2	0.6	1066.6666688	1000.000002	2350.0000047	1783.3333369	Major	Good_deeds	43	You have rescued others from a catastrophe	C2_28	0.05	Easy	I1_45	55	Singapore is a poor country	0.0	Yes	RIGHT	1371.6856999999436	RIGHT	448.7068000003092	LEFT	767.87639999975	LEFT	848.7455999998019	63.30000000000005	0.6	Probable_Lie	LEFT	RIGHT	3	650.1292649135884	132	2021-03-17 16:07:00.330675
18	Self	S210317	0.6666666666666666	1	2	1	2	0.4	1216.6666691	1150.0000023	1783.3333369	2216.6666711000003	Minor	Wrong_doings	29	You have bribed a police officer	C1_12	0.2	Easy	I2_12	52	Penguin can fly with their wings	0.0	No	RIGHT	545.970699999998	RIGHT	231.5009999997528	LEFT	648.00809999997	LEFT	720.3296999996383	63.70000000000005	0.4	Probable_Truth	RIGHT	RIGHT	5	798.4065000000555	133	2021-03-17 16:07:22.217733
115	Computer	S210317	0.6666666666666666	1	2	1	2	0.5	1350.0000027	1283.3333359	1650.0000033	1650.0000033	Major	Wrong_doings	10	You have bought cocaine	C2_40	0.8	Hard	I2_58	17	It is 20th Century now	0.722222222222222	Yes	LEFT	1337.6505000001089	LEFT	768.0414999999812	LEFT	640.0194999996529	LEFT	750.3328999996484	63.70000000000005	0.5	Probable_Lie	RIGHT	RIGHT	1	865.7942261879989	134	2021-03-17 16:07:45.088986
26	Self	S210317	0.6666666666666666	2	1	1	2	0.3	1433.3333362	1150.0000023	1500.000003	1500.000003	Minor	Wrong_doings	49	You have taken responsibility for your actions	C1_49	0.7	Hard	I2_11	29	Some owl species hunt fish	0.0	No	RIGHT	199.88800000010087	RIGHT	413.1083000002036	LEFT	1015.930600000047	RIGHT	1185.7563999997185	64.00000000000006	0.3	Probable_Truth	RIGHT	RIGHT	4	485.6743999998798	135	2021-03-17 16:08:06.553252
46	Self	S210317	0.8333333333333334	2	1	2	1	0.4	1150.0000023	1150.0000023	1650.0000033	2500.000005	Minor	Wrong_doings	48	You have thrown your trash into the bin	C1_29	1.0	Hard	I1_40	39	There are 9 rings in the Olympic flag	0.0	No	RIGHT	207.86520000001477	RIGHT	751.9044999999096	LEFT	772.1605000001546	RIGHT	855.2987000002759	64.40000000000006	0.4	Probable_Lie	RIGHT	RIGHT	1	1377.538299999742	136	2021-03-17 16:08:29.545688
42	Self	S210317	0.8333333333333334	2	1	1	2	0.1	1000.000002	1000.000002	1783.3333369	1500.000003	Major	Good_deeds	27	You have cheated on a test	C2_27	0.65	Easy	I2_28	38	A square has 3 corners	1.0	No	RIGHT	343.29120000029434	RIGHT	498.0037000000266	LEFT	888.0285000000185	LEFT	675.555699999677	64.50000000000006	0.1	Probable_Truth	RIGHT	RIGHT	3	677.0484000003307	137	2021-03-17 16:08:50.489382
28	Self	S210317	0.6666666666666666	2	1	2	1	0.8	1150.0000023	1000.000002	1650.0000033	1933.3333372	Minor	Good_deeds	58	You have kidnapped someone	C1_19	1.0	Easy	I1_28	11	Statute of Liberty is in New York	0.888888888888889	No	RIGHT	351.1518000000251	RIGHT	381.9214000000102	RIGHT	827.7366000002075	LEFT	655.4909999999836	65.30000000000005	0.8	Probable_Lie	LEFT	LEFT	3	664.3867000002501	138	2021-03-17 16:09:11.681665
136	Computer	S210317	0.8333333333333334	2	1	1	2	0.4	1150.0000023	1433.3333362	1933.3333372	1933.3333372	Major	Wrong_doings	11	You have told someone's secret to others	C2_60	0.0	Easy	I2_38	18	Hot chocolate was created by the Mayan culture	0.722222222222222	Yes	LEFT	440.8853999998428	LEFT	1013.028100000156	LEFT	742.5280000002203	LEFT	1411.4113000000543	65.30000000000005	0.4	Probable_Lie	RIGHT	LEFT	2	619.6002980868742	139	2021-03-17 16:09:34.929767
55	Self	S210317	0.5	1	2	2	1	0.2	1150.0000023	1350.0000027	2216.6666711000003	2350.0000047	Minor	Wrong_doings	15	You have cursed at your loved ones	C2_52	0.85	Easy	I1_23	1	"Statue of Liberty is 151 feet tall"	0.888888888888889	Yes	LEFT	1080.225199999859	RIGHT	464.1354999998839	LEFT	1091.5288000001055	LEFT	800.282100000004	65.10000000000005	0.2	Probable_Lie	RIGHT	RIGHT	1	673.2130000000325	140	2021-03-17 16:09:58.680910
89	Self	S210317	0.8333333333333334	2	1	1	2	0.5	1000.000002	1000.000002	2350.0000047	1933.3333372	Minor	Wrong_doings	8	You have started an NGO using your savings	C2_6	0.0	Hard	I2_13	13	Mexico's National Day is September 16	0.0	Yes	RIGHT	359.0523000002577	RIGHT	522.9732000002514	LEFT	1095.642100000077	LEFT	1459.783299999799	65.60000000000005	0.5	Probable_Lie	LEFT	LEFT	3	588.2427000001371	141	2021-03-17 16:10:21.569143
37	Self	S210317	0.8333333333333334	1	2	2	1	0.8	1433.3333362	1283.3333359	2500.000005	1783.3333369	Major	Wrong_doings	60	You have been arrested	C2_39	0.7	Easy	I2_31	31	The Moon orbits around the Earth	1.0	Yes	RIGHT	1397.9036000000633	LEFT	791.6736000001947	LEFT	1090.1586999998472	LEFT	664.0164000000368	65.60000000000005	0.8	Probable_Lie	RIGHT	RIGHT	1	825.6406000000425	142	2021-03-17 16:10:45.912990
33	Self	S210317	0.8333333333333334	1	2	1	2	0.6	1216.6666691	1216.6666691	1650.0000033	2066.6666708	Minor	Good_deeds	6	You have claimed doing things that you never did	C1_60	0.45	Hard	I1_46	41	February has 30 days	0.0	No	RIGHT	464.2014000000927	RIGHT	343.846300000223	LEFT	800.4430999999386	LEFT	1909.973199999968	66.20000000000005	0.6	Probable_Truth	RIGHT	RIGHT	5	573.0089000003318	143	2021-03-17 16:11:08.729686
