"Participant"	"Task"	"Stimulus_Side"	"Response"	"RT"	"ITI"	"Previous_Response"	"Previous_RT"	"Stop_Signal"	"Stop_Signal_RT"	"Conflict"	"Cue_Response"	"Cue_Response_RT"	"Trial_Onset"	"Trial_End"	"Trial_Order"	"Duration"
"S210208"	"Conflict_Resolution"	"LEFT"	"LEFT"	544.681200000014	1466.6666696	n/a	n/a	n/a	n/a	"True"	n/a	n/a	"2021-02-08 14:06:56.450309"	"2021-02-08 14:06:57.203337"	1	5.94041183333333
"S210208"	"Conflict_Resolution"	"RIGHT"	"LEFT"	446.368000000007	550.0000011	n/a	n/a	n/a	n/a	"True"	n/a	n/a	"2021-02-08 14:06:57.772292"	"2021-02-08 14:06:58.428101"	2	5.94041183333333
"S210208"	"Conflict_Resolution"	"RIGHT"	"RIGHT"	569.653900000048	783.3333349	n/a	n/a	n/a	n/a	"True"	n/a	n/a	"2021-02-08 14:06:59.233751"	"2021-02-08 14:07:00.011730"	3	5.94041183333333
"S210208"	"Conflict_Resolution"	"LEFT"	"LEFT"	509.157100000039	716.6666681	n/a	n/a	n/a	n/a	"True"	n/a	n/a	"2021-02-08 14:07:00.749875"	"2021-02-08 14:07:01.467020"	4	5.94041183333333
"S210208"	"Conflict_Resolution"	"LEFT"	"LEFT"	622.249500000066	1350.0000027	n/a	n/a	n/a	n/a	"False"	n/a	n/a	"2021-02-08 14:07:02.837423"	"2021-02-08 14:07:03.669602"	5	5.94041183333333
"S210208"	"Conflict_Resolution"	"RIGHT"	"RIGHT"	448.594200000002	1033.3333354	n/a	n/a	n/a	n/a	"False"	n/a	n/a	"2021-02-08 14:07:04.722429"	"2021-02-08 14:07:05.379622"	6	5.94041183333333
"S210208"	"Conflict_Resolution"	"LEFT"	"LEFT"	386.945900000001	1216.6666691	n/a	n/a	n/a	n/a	"False"	n/a	n/a	"2021-02-08 14:07:06.615486"	"2021-02-08 14:07:07.210561"	7	5.94041183333333
"S210208"	"Conflict_Resolution"	"LEFT"	"RIGHT"	372.001999999952	1216.6666691	n/a	n/a	n/a	n/a	"True"	n/a	n/a	"2021-02-08 14:07:08.446909"	"2021-02-08 14:07:09.026854"	8	5.94041183333333
"S210208"	"Conflict_Resolution"	"RIGHT"	"RIGHT"	428.845499999966	950.0000019	n/a	n/a	n/a	n/a	"False"	n/a	n/a	"2021-02-08 14:07:09.997876"	"2021-02-08 14:07:10.636531"	9	5.94041183333333
"S210208"	"Conflict_Resolution"	"RIGHT"	"RIGHT"	366.44339999998	1483.3333363	n/a	n/a	n/a	n/a	"False"	n/a	n/a	"2021-02-08 14:07:12.140513"	"2021-02-08 14:07:12.715768"	10	5.94041183333333
"S210208"	"Conflict_Resolution"	"LEFT"	"LEFT"	474.10519999994	633.3333346	n/a	n/a	n/a	n/a	"False"	n/a	n/a	"2021-02-08 14:07:13.369145"	"2021-02-08 14:07:14.051956"	11	5.94041183333333
"S210208"	"Conflict_Resolution"	"RIGHT"	"RIGHT"	399.76409999997	900.0000018	n/a	n/a	n/a	n/a	"False"	n/a	n/a	"2021-02-08 14:07:14.971563"	"2021-02-08 14:07:15.580213"	12	5.94041183333333
"S210208"	"Conflict_Resolution"	"RIGHT"	"RIGHT"	551.319899999953	883.3333351	n/a	n/a	n/a	n/a	"True"	n/a	n/a	"2021-02-08 14:07:16.483279"	"2021-02-08 14:07:17.242764"	13	5.94041183333333
"S210208"	"Conflict_Resolution"	"RIGHT"	"RIGHT"	451.528900000085	1383.3333361	n/a	n/a	n/a	n/a	"False"	n/a	n/a	"2021-02-08 14:07:18.647324"	"2021-02-08 14:07:19.307441"	14	5.94041183333333
"S210208"	"Conflict_Resolution"	"LEFT"	"LEFT"	527.064800000062	1066.6666688	n/a	n/a	n/a	n/a	"True"	n/a	n/a	"2021-02-08 14:07:20.395579"	"2021-02-08 14:07:21.131351"	15	5.94041183333333
"S210208"	"Conflict_Resolution"	"RIGHT"	"RIGHT"	571.059999999989	633.3333346	n/a	n/a	n/a	n/a	"True"	n/a	n/a	"2021-02-08 14:07:21.784572"	"2021-02-08 14:07:22.565113"	16	5.94041183333333
"S210208"	"Conflict_Resolution"	"RIGHT"	"RIGHT"	452.887899999951	750.0000015	n/a	n/a	n/a	n/a	"False"	n/a	n/a	"2021-02-08 14:07:23.334603"	"2021-02-08 14:07:23.995597"	17	5.94041183333333
"S210208"	"Conflict_Resolution"	"LEFT"	"LEFT"	344.62689999998	683.3333347	n/a	n/a	n/a	n/a	"False"	n/a	n/a	"2021-02-08 14:07:24.698709"	"2021-02-08 14:07:25.251249"	18	5.94041183333333
"S210208"	"Conflict_Resolution"	"LEFT"	"LEFT"	364.268100000004	1166.666669	n/a	n/a	n/a	n/a	"False"	n/a	n/a	"2021-02-08 14:07:26.438667"	"2021-02-08 14:07:27.011180"	19	5.94041183333333
"S210208"	"Conflict_Resolution"	"RIGHT"	"RIGHT"	347.227700000076	1416.6666695	n/a	n/a	n/a	n/a	"False"	n/a	n/a	"2021-02-08 14:07:28.447296"	"2021-02-08 14:07:29.002774"	20	5.94041183333333
"S210208"	"Conflict_Resolution"	"LEFT"	"LEFT"	401.46470000002	1066.6666688	n/a	n/a	n/a	n/a	"False"	n/a	n/a	"2021-02-08 14:07:30.089491"	"2021-02-08 14:07:30.698988"	21	5.94041183333333
"S210208"	"Conflict_Resolution"	"RIGHT"	"RIGHT"	563.909200000012	800.0000016	n/a	n/a	n/a	n/a	"True"	n/a	n/a	"2021-02-08 14:07:31.519105"	"2021-02-08 14:07:32.292195"	22	5.94041183333333
"S210208"	"Conflict_Resolution"	"LEFT"	"LEFT"	534.280500000023	916.6666685	n/a	n/a	n/a	n/a	"True"	n/a	n/a	"2021-02-08 14:07:33.228927"	"2021-02-08 14:07:33.972116"	23	5.94041183333333
"S210208"	"Conflict_Resolution"	"RIGHT"	"RIGHT"	664.598700000056	1050.0000021	n/a	n/a	n/a	n/a	"True"	n/a	n/a	"2021-02-08 14:07:35.041770"	"2021-02-08 14:07:35.915156"	24	5.94041183333333
"S210208"	"Conflict_Resolution"	"LEFT"	"LEFT"	529.264000000012	1450.0000029	n/a	n/a	n/a	n/a	"True"	n/a	n/a	"2021-02-08 14:07:37.385907"	"2021-02-08 14:07:38.124264"	25	5.94041183333333
"S210208"	"Conflict_Resolution"	"RIGHT"	"RIGHT"	442.340699999932	600.0000012	n/a	n/a	n/a	n/a	"False"	n/a	n/a	"2021-02-08 14:07:38.744242"	"2021-02-08 14:07:39.396403"	26	5.94041183333333
"S210208"	"Conflict_Resolution"	"RIGHT"	"RIGHT"	495.142200000032	1416.6666695	n/a	n/a	n/a	n/a	"True"	n/a	n/a	"2021-02-08 14:07:40.835698"	"2021-02-08 14:07:41.538874"	27	5.94041183333333
"S210208"	"Conflict_Resolution"	"RIGHT"	"RIGHT"	507.612600000016	983.3333353	n/a	n/a	n/a	n/a	"True"	n/a	n/a	"2021-02-08 14:07:42.543738"	"2021-02-08 14:07:43.259622"	28	5.94041183333333
"S210208"	"Conflict_Resolution"	"LEFT"	"LEFT"	423.192100000051	1116.6666689	n/a	n/a	n/a	n/a	"False"	n/a	n/a	"2021-02-08 14:07:44.396195"	"2021-02-08 14:07:45.028610"	29	5.94041183333333
"S210208"	"Conflict_Resolution"	"LEFT"	"LEFT"	388.877500000035	966.6666686	n/a	n/a	n/a	n/a	"False"	n/a	n/a	"2021-02-08 14:07:46.014544"	"2021-02-08 14:07:46.611805"	30	5.94041183333333
"S210208"	"Conflict_Resolution"	"RIGHT"	"RIGHT"	389.08529999992	983.3333353	n/a	n/a	n/a	n/a	"False"	n/a	n/a	"2021-02-08 14:07:47.614589"	"2021-02-08 14:07:48.211564"	31	5.94041183333333
"S210208"	"Conflict_Resolution"	"RIGHT"	"RIGHT"	608.536399999934	1283.3333359	n/a	n/a	n/a	n/a	"True"	n/a	n/a	"2021-02-08 14:07:49.514257"	"2021-02-08 14:07:50.331968"	32	5.94041183333333
"S210208"	"Conflict_Resolution"	"RIGHT"	"RIGHT"	462.695399999916	900.0000018	n/a	n/a	n/a	n/a	"True"	n/a	n/a	"2021-02-08 14:07:51.252146"	"2021-02-08 14:07:51.923391"	33	5.94041183333333
"S210208"	"Conflict_Resolution"	"RIGHT"	"RIGHT"	392.32759999993	883.3333351	n/a	n/a	n/a	n/a	"False"	n/a	n/a	"2021-02-08 14:07:52.826611"	"2021-02-08 14:07:53.426924"	34	5.94041183333333
"S210208"	"Conflict_Resolution"	"LEFT"	"LEFT"	533.576700000026	1366.6666694	n/a	n/a	n/a	n/a	"True"	n/a	n/a	"2021-02-08 14:07:54.812927"	"2021-02-08 14:07:55.555513"	35	5.94041183333333
"S210208"	"Conflict_Resolution"	"LEFT"	"LEFT"	620.772600000009	516.6666677	n/a	n/a	n/a	n/a	"True"	n/a	n/a	"2021-02-08 14:07:56.094373"	"2021-02-08 14:07:56.923144"	36	5.94041183333333
"S210208"	"Conflict_Resolution"	"RIGHT"	"RIGHT"	401.624100000049	850.0000017	n/a	n/a	n/a	n/a	"False"	n/a	n/a	"2021-02-08 14:07:57.793547"	"2021-02-08 14:07:58.402868"	37	5.94041183333333
"S210208"	"Conflict_Resolution"	"RIGHT"	"RIGHT"	354.805100000021	833.333335	n/a	n/a	n/a	n/a	"False"	n/a	n/a	"2021-02-08 14:07:59.256429"	"2021-02-08 14:07:59.819466"	38	5.94041183333333
"S210208"	"Conflict_Resolution"	"LEFT"	"LEFT"	482.289400000013	1016.6666687	n/a	n/a	n/a	n/a	"True"	n/a	n/a	"2021-02-08 14:08:00.856841"	"2021-02-08 14:08:01.546757"	39	5.94041183333333
"S210208"	"Conflict_Resolution"	"RIGHT"	"RIGHT"	468.479800000068	1000.000002	n/a	n/a	n/a	n/a	"True"	n/a	n/a	"2021-02-08 14:08:02.566851"	"2021-02-08 14:08:03.243821"	40	5.94041183333333
"S210208"	"Conflict_Resolution"	"RIGHT"	"LEFT"	389.875999999958	1150.0000023	n/a	n/a	n/a	n/a	"True"	n/a	n/a	"2021-02-08 14:08:04.414190"	"2021-02-08 14:08:05.011770"	41	5.94041183333333
"S210208"	"Conflict_Resolution"	"RIGHT"	"RIGHT"	408.418600000005	1100.0000022	n/a	n/a	n/a	n/a	"False"	n/a	n/a	"2021-02-08 14:08:06.130336"	"2021-02-08 14:08:06.747235"	42	5.94041183333333
"S210208"	"Conflict_Resolution"	"RIGHT"	"RIGHT"	390.367399999946	683.3333347	n/a	n/a	n/a	n/a	"False"	n/a	n/a	"2021-02-08 14:08:07.452724"	"2021-02-08 14:08:08.051478"	43	5.94041183333333
"S210208"	"Conflict_Resolution"	"RIGHT"	"RIGHT"	329.863699999919	633.3333346	n/a	n/a	n/a	n/a	"False"	n/a	n/a	"2021-02-08 14:08:08.704471"	"2021-02-08 14:08:09.241986"	44	5.94041183333333
"S210208"	"Conflict_Resolution"	"RIGHT"	"RIGHT"	610.318899999925	1433.3333362	n/a	n/a	n/a	n/a	"True"	n/a	n/a	"2021-02-08 14:08:10.696558"	"2021-02-08 14:08:11.515111"	45	5.94041183333333
"S210208"	"Conflict_Resolution"	"RIGHT"	"RIGHT"	415.310299999987	1266.6666692	n/a	n/a	n/a	n/a	"False"	n/a	n/a	"2021-02-08 14:08:12.803332"	"2021-02-08 14:08:13.426679"	46	5.94041183333333
"S210208"	"Conflict_Resolution"	"LEFT"	"LEFT"	485.863300000005	1166.666669	n/a	n/a	n/a	n/a	"True"	n/a	n/a	"2021-02-08 14:08:14.612652"	"2021-02-08 14:08:15.308512"	47	5.94041183333333
"S210208"	"Conflict_Resolution"	"LEFT"	"LEFT"	508.778500000062	583.3333345	n/a	n/a	n/a	n/a	"True"	n/a	n/a	"2021-02-08 14:08:15.911670"	"2021-02-08 14:08:16.628403"	48	5.94041183333333
"S210208"	"Conflict_Resolution"	"LEFT"	"LEFT"	467.905299999984	1350.0000027	n/a	n/a	n/a	n/a	"True"	n/a	n/a	"2021-02-08 14:08:17.998496"	"2021-02-08 14:08:18.674720"	49	5.94041183333333
"S210208"	"Conflict_Resolution"	"RIGHT"	"RIGHT"	443.315100000063	1000.000002	n/a	n/a	n/a	n/a	"False"	n/a	n/a	"2021-02-08 14:08:19.695494"	"2021-02-08 14:08:20.346597"	50	5.94041183333333
"S210208"	"Conflict_Resolution"	"LEFT"	"LEFT"	372.758200000021	1016.6666687	n/a	n/a	n/a	n/a	"False"	n/a	n/a	"2021-02-08 14:08:21.382554"	"2021-02-08 14:08:21.963525"	51	5.94041183333333
"S210208"	"Conflict_Resolution"	"RIGHT"	"RIGHT"	502.005700000041	1466.6666696	n/a	n/a	n/a	n/a	"True"	n/a	n/a	"2021-02-08 14:08:23.452256"	"2021-02-08 14:08:24.163943"	52	5.94041183333333
"S210208"	"Conflict_Resolution"	"RIGHT"	"RIGHT"	434.30330000001	1183.3333357	n/a	n/a	n/a	n/a	"False"	n/a	n/a	"2021-02-08 14:08:25.368588"	"2021-02-08 14:08:26.010562"	53	5.94041183333333
"S210208"	"Conflict_Resolution"	"LEFT"	"LEFT"	391.757299999995	1300.0000026	n/a	n/a	n/a	n/a	"False"	n/a	n/a	"2021-02-08 14:08:27.331209"	"2021-02-08 14:08:27.931134"	54	5.94041183333333
"S210208"	"Conflict_Resolution"	"RIGHT"	"RIGHT"	381.3265	1333.333336	n/a	n/a	n/a	n/a	"False"	n/a	n/a	"2021-02-08 14:08:29.285109"	"2021-02-08 14:08:29.876459"	55	5.94041183333333
"S210208"	"Conflict_Resolution"	"LEFT"	"LEFT"	335.711500000002	1266.6666692	n/a	n/a	n/a	n/a	"False"	n/a	n/a	"2021-02-08 14:08:31.162691"	"2021-02-08 14:08:31.707785"	56	5.94041183333333
"S210208"	"Conflict_Resolution"	"RIGHT"	"RIGHT"	488.061599999924	683.3333347	n/a	n/a	n/a	n/a	"True"	n/a	n/a	"2021-02-08 14:08:32.411053"	"2021-02-08 14:08:33.106896"	57	5.94041183333333
"S210208"	"Conflict_Resolution"	"LEFT"	"LEFT"	332.460499999911	1000.000002	n/a	n/a	n/a	n/a	"False"	n/a	n/a	"2021-02-08 14:08:34.126730"	"2021-02-08 14:08:34.667327"	58	5.94041183333333
"S210208"	"Conflict_Resolution"	"LEFT"	"LEFT"	396.446699999956	783.3333349	n/a	n/a	n/a	n/a	"True"	n/a	n/a	"2021-02-08 14:08:35.470639"	"2021-02-08 14:08:36.074598"	59	5.94041183333333
"S210208"	"Conflict_Resolution"	"LEFT"	"LEFT"	582.142500000032	966.6666686	n/a	n/a	n/a	n/a	"True"	n/a	n/a	"2021-02-08 14:08:37.060477"	"2021-02-08 14:08:37.852439"	60	5.94041183333333
"S210208"	"Conflict_Resolution"	"RIGHT"	"RIGHT"	401.024000000007	1050.0000021	n/a	n/a	n/a	n/a	"False"	n/a	n/a	"2021-02-08 14:08:38.922211"	"2021-02-08 14:08:39.532378"	61	5.94041183333333
"S210208"	"Conflict_Resolution"	"LEFT"	"LEFT"	397.462499999961	716.6666681	n/a	n/a	n/a	n/a	"False"	n/a	n/a	"2021-02-08 14:08:40.268977"	"2021-02-08 14:08:40.876901"	62	5.94041183333333
"S210208"	"Conflict_Resolution"	"LEFT"	"LEFT"	325.967900000023	950.0000019	n/a	n/a	n/a	n/a	"False"	n/a	n/a	"2021-02-08 14:08:41.844319"	"2021-02-08 14:08:42.378802"	63	5.94041183333333
"S210208"	"Conflict_Resolution"	"RIGHT"	"RIGHT"	384.774799999946	1283.3333359	n/a	n/a	n/a	n/a	"False"	n/a	n/a	"2021-02-08 14:08:43.682936"	"2021-02-08 14:08:44.276473"	64	5.94041183333333
"S210208"	"Conflict_Resolution"	"RIGHT"	"LEFT"	370.443399999999	1183.3333357	n/a	n/a	n/a	n/a	"True"	n/a	n/a	"2021-02-08 14:08:45.480663"	"2021-02-08 14:08:46.059313"	65	5.94041183333333
"S210208"	"Conflict_Resolution"	"LEFT"	"LEFT"	674.604399999907	816.6666683	n/a	n/a	n/a	n/a	"True"	n/a	n/a	"2021-02-08 14:08:46.895949"	"2021-02-08 14:08:47.778773"	66	5.94041183333333
"S210208"	"Conflict_Resolution"	"LEFT"	"LEFT"	420.007400000031	1366.6666694	n/a	n/a	n/a	n/a	"False"	n/a	n/a	"2021-02-08 14:08:49.167037"	"2021-02-08 14:08:49.795581"	67	5.94041183333333
"S210208"	"Conflict_Resolution"	"LEFT"	"LEFT"	435.234799999989	950.0000019	n/a	n/a	n/a	n/a	"True"	n/a	n/a	"2021-02-08 14:08:50.767341"	"2021-02-08 14:08:51.411128"	68	5.94041183333333
"S210208"	"Conflict_Resolution"	"LEFT"	"LEFT"	482.622399999968	633.3333346	n/a	n/a	n/a	n/a	"True"	n/a	n/a	"2021-02-08 14:08:52.063667"	"2021-02-08 14:08:52.756367"	69	5.94041183333333
"S210208"	"Conflict_Resolution"	"LEFT"	"LEFT"	399.843000000033	1150.0000023	n/a	n/a	n/a	n/a	"True"	n/a	n/a	"2021-02-08 14:08:53.930771"	"2021-02-08 14:08:54.538689"	70	5.94041183333333
"S210208"	"Conflict_Resolution"	"RIGHT"	"RIGHT"	552.057200000036	700.0000014	n/a	n/a	n/a	n/a	"False"	n/a	n/a	"2021-02-08 14:08:55.258954"	"2021-02-08 14:08:56.018793"	71	5.94041183333333
"S210208"	"Conflict_Resolution"	"RIGHT"	"LEFT"	412.426600000003	750.0000015	n/a	n/a	n/a	n/a	"True"	n/a	n/a	"2021-02-08 14:08:56.790240"	"2021-02-08 14:08:57.412166"	72	5.94041183333333
"S210208"	"Conflict_Resolution"	"LEFT"	"LEFT"	573.164999999904	900.0000018	n/a	n/a	n/a	n/a	"True"	n/a	n/a	"2021-02-08 14:08:58.333891"	"2021-02-08 14:08:59.115325"	73	5.94041183333333
"S210208"	"Conflict_Resolution"	"RIGHT"	"RIGHT"	452.434499999981	1150.0000023	n/a	n/a	n/a	n/a	"False"	n/a	n/a	"2021-02-08 14:09:00.286822"	"2021-02-08 14:09:00.948757"	74	5.94041183333333
"S210208"	"Conflict_Resolution"	"LEFT"	"LEFT"	421.976799999925	1500.000003	n/a	n/a	n/a	n/a	"False"	n/a	n/a	"2021-02-08 14:09:02.468363"	"2021-02-08 14:09:03.098923"	75	5.94041183333333
"S210208"	"Conflict_Resolution"	"RIGHT"	"RIGHT"	522.267400000032	1383.3333361	n/a	n/a	n/a	n/a	"True"	n/a	n/a	"2021-02-08 14:09:04.504296"	"2021-02-08 14:09:05.234564"	76	5.94041183333333
"S210208"	"Conflict_Resolution"	"RIGHT"	"RIGHT"	415.230599999973	933.3333352	n/a	n/a	n/a	n/a	"False"	n/a	n/a	"2021-02-08 14:09:06.188061"	"2021-02-08 14:09:06.810812"	77	5.94041183333333
"S210208"	"Conflict_Resolution"	"RIGHT"	"RIGHT"	347.369599999979	1216.6666691	n/a	n/a	n/a	n/a	"False"	n/a	n/a	"2021-02-08 14:09:08.047214"	"2021-02-08 14:09:08.603412"	78	5.94041183333333
"S210208"	"Conflict_Resolution"	"RIGHT"	"RIGHT"	504.93819999997	1266.6666692	n/a	n/a	n/a	n/a	"True"	n/a	n/a	"2021-02-08 14:09:09.889766"	"2021-02-08 14:09:10.603069"	79	5.94041183333333
"S210208"	"Conflict_Resolution"	"LEFT"	"LEFT"	413.4004	916.6666685	n/a	n/a	n/a	n/a	"False"	n/a	n/a	"2021-02-08 14:09:11.541129"	"2021-02-08 14:09:12.163052"	80	5.94041183333333
"S210208"	"Conflict_Resolution"	"RIGHT"	"RIGHT"	522.82839999998	1083.3333355	n/a	n/a	n/a	n/a	"False"	n/a	n/a	"2021-02-08 14:09:13.271881"	"2021-02-08 14:09:14.004134"	81	5.94041183333333
"S210208"	"Conflict_Resolution"	"RIGHT"	"RIGHT"	660.261399999968	733.3333348	n/a	n/a	n/a	n/a	"True"	n/a	n/a	"2021-02-08 14:09:14.758267"	"2021-02-08 14:09:15.626840"	82	5.94041183333333
"S210208"	"Conflict_Resolution"	"LEFT"	"LEFT"	421.377899999925	566.6666678	n/a	n/a	n/a	n/a	"False"	n/a	n/a	"2021-02-08 14:09:16.214228"	"2021-02-08 14:09:16.842767"	83	5.94041183333333
"S210208"	"Conflict_Resolution"	"LEFT"	"LEFT"	400.24660000006	1450.0000029	n/a	n/a	n/a	n/a	"False"	n/a	n/a	"2021-02-08 14:09:18.314258"	"2021-02-08 14:09:18.923160"	84	5.94041183333333
"S210208"	"Conflict_Resolution"	"RIGHT"	"RIGHT"	614.884500000016	1100.0000022	n/a	n/a	n/a	n/a	"True"	n/a	n/a	"2021-02-08 14:09:20.043385"	"2021-02-08 14:09:20.867199"	85	5.94041183333333
"S210208"	"Conflict_Resolution"	"LEFT"	"LEFT"	306.137899999953	1050.0000021	n/a	n/a	n/a	n/a	"False"	n/a	n/a	"2021-02-08 14:09:21.936440"	"2021-02-08 14:09:22.450662"	86	5.94041183333333
"S210208"	"Conflict_Resolution"	"LEFT"	"LEFT"	596.134399999983	1416.6666695	n/a	n/a	n/a	n/a	"True"	n/a	n/a	"2021-02-08 14:09:23.886904"	"2021-02-08 14:09:24.690640"	87	5.94041183333333
"S210208"	"Conflict_Resolution"	"RIGHT"	"RIGHT"	503.451999999925	933.3333352	n/a	n/a	n/a	n/a	"True"	n/a	n/a	"2021-02-08 14:09:25.643165"	"2021-02-08 14:09:26.356035"	88	5.94041183333333
"S210208"	"Conflict_Resolution"	"LEFT"	"LEFT"	375.898399999983	1250.0000025	n/a	n/a	n/a	n/a	"False"	n/a	n/a	"2021-02-08 14:09:27.626512"	"2021-02-08 14:09:28.210760"	89	5.94041183333333
"S210208"	"Conflict_Resolution"	"RIGHT"	"LEFT"	475.029899999981	650.0000013	n/a	n/a	n/a	n/a	"True"	n/a	n/a	"2021-02-08 14:09:28.879570"	"2021-02-08 14:09:29.563392"	90	5.94041183333333
"S210208"	"Conflict_Resolution"	"LEFT"	"LEFT"	612.650700000017	1500.000003	n/a	n/a	n/a	n/a	"True"	n/a	n/a	"2021-02-08 14:09:31.085750"	"2021-02-08 14:09:31.906617"	91	5.94041183333333
"S210208"	"Conflict_Resolution"	"RIGHT"	"RIGHT"	506.184600000097	650.0000013	n/a	n/a	n/a	n/a	"False"	n/a	n/a	"2021-02-08 14:09:32.577025"	"2021-02-08 14:09:33.291537"	92	5.94041183333333
"S210208"	"Conflict_Resolution"	"RIGHT"	"RIGHT"	505.007699999965	850.0000017	n/a	n/a	n/a	n/a	"True"	n/a	n/a	"2021-02-08 14:09:34.161767"	"2021-02-08 14:09:34.876337"	93	5.94041183333333
"S210208"	"Conflict_Resolution"	"RIGHT"	"RIGHT"	396.363899999983	1133.3333356	n/a	n/a	n/a	n/a	"False"	n/a	n/a	"2021-02-08 14:09:36.030569"	"2021-02-08 14:09:36.636193"	94	5.94041183333333
"S210208"	"Conflict_Resolution"	"RIGHT"	"RIGHT"	406.283700000017	533.3333344	n/a	n/a	n/a	n/a	"False"	n/a	n/a	"2021-02-08 14:09:37.188684"	"2021-02-08 14:09:37.803900"	95	5.94041183333333
"S210208"	"Conflict_Resolution"	"RIGHT"	"RIGHT"	485.75290000008	1333.333336	n/a	n/a	n/a	n/a	"True"	n/a	n/a	"2021-02-08 14:09:39.156896"	"2021-02-08 14:09:39.852362"	96	5.94041183333333
"S210208"	"Conflict_Resolution"	"LEFT"	"LEFT"	639.715799999976	616.6666679	n/a	n/a	n/a	n/a	"False"	n/a	n/a	"2021-02-08 14:09:40.490678"	"2021-02-08 14:09:41.339632"	97	5.94041183333333
"S210208"	"Conflict_Resolution"	"LEFT"	"LEFT"	534.137800000053	1116.6666689	n/a	n/a	n/a	n/a	"True"	n/a	n/a	"2021-02-08 14:09:42.476917"	"2021-02-08 14:09:43.220185"	98	5.94041183333333
"S210208"	"Conflict_Resolution"	"RIGHT"	"RIGHT"	548.658499999988	533.3333344	n/a	n/a	n/a	n/a	"True"	n/a	n/a	"2021-02-08 14:09:43.774463"	"2021-02-08 14:09:44.530754"	99	5.94041183333333
"S210208"	"Conflict_Resolution"	"RIGHT"	"RIGHT"	491.078199999947	1033.3333354	n/a	n/a	n/a	n/a	"True"	n/a	n/a	"2021-02-08 14:09:45.584286"	"2021-02-08 14:09:46.284951"	100	5.94041183333333
"S210208"	"Conflict_Resolution"	"LEFT"	"LEFT"	417.948299999921	816.6666683	n/a	n/a	n/a	n/a	"False"	n/a	n/a	"2021-02-08 14:09:47.120625"	"2021-02-08 14:09:47.747499"	101	5.94041183333333
"S210208"	"Conflict_Resolution"	"LEFT"	"LEFT"	510.063899999977	533.3333344	n/a	n/a	n/a	n/a	"True"	n/a	n/a	"2021-02-08 14:09:48.300711"	"2021-02-08 14:09:49.019295"	102	5.94041183333333
"S210208"	"Conflict_Resolution"	"LEFT"	"LEFT"	457.379199999991	866.6666684	n/a	n/a	n/a	n/a	"False"	n/a	n/a	"2021-02-08 14:09:49.905550"	"2021-02-08 14:09:50.572460"	103	5.94041183333333
"S210208"	"Conflict_Resolution"	"LEFT"	"LEFT"	431.5335	1466.6666696	n/a	n/a	n/a	n/a	"False"	n/a	n/a	"2021-02-08 14:09:52.059174"	"2021-02-08 14:09:52.699452"	104	5.94041183333333
"S210208"	"Conflict_Resolution"	"RIGHT"	"RIGHT"	445.942100000025	550.0000011	n/a	n/a	n/a	n/a	"False"	n/a	n/a	"2021-02-08 14:09:53.269922"	"2021-02-08 14:09:53.923968"	105	5.94041183333333
"S210208"	"Conflict_Resolution"	"LEFT"	"LEFT"	565.848200000005	1100.0000022	n/a	n/a	n/a	n/a	"True"	n/a	n/a	"2021-02-08 14:09:55.044916"	"2021-02-08 14:09:55.818582"	106	5.94041183333333
"S210208"	"Conflict_Resolution"	"LEFT"	"LEFT"	421.956300000033	766.6666682	n/a	n/a	n/a	n/a	"True"	n/a	n/a	"2021-02-08 14:09:56.605013"	"2021-02-08 14:09:57.235102"	107	5.94041183333333
"S210208"	"Conflict_Resolution"	"LEFT"	"LEFT"	513.043100000004	866.6666684	n/a	n/a	n/a	n/a	"True"	n/a	n/a	"2021-02-08 14:09:58.121725"	"2021-02-08 14:09:58.843314"	108	5.94041183333333
"S210208"	"Conflict_Resolution"	"LEFT"	"LEFT"	470.420900000022	1316.6666693	n/a	n/a	n/a	n/a	"True"	n/a	n/a	"2021-02-08 14:10:00.180482"	"2021-02-08 14:10:00.859212"	109	5.94041183333333
"S210208"	"Conflict_Resolution"	"LEFT"	"LEFT"	615.807100000097	1300.0000026	n/a	n/a	n/a	n/a	"True"	n/a	n/a	"2021-02-08 14:10:02.179324"	"2021-02-08 14:10:03.002582"	110	5.94041183333333
"S210208"	"Conflict_Resolution"	"RIGHT"	"RIGHT"	349.745000000098	1366.6666694	n/a	n/a	n/a	n/a	"False"	n/a	n/a	"2021-02-08 14:10:04.388933"	"2021-02-08 14:10:04.946950"	111	5.94041183333333
"S210208"	"Conflict_Resolution"	"RIGHT"	"RIGHT"	340.07239999994	800.0000016	n/a	n/a	n/a	n/a	"False"	n/a	n/a	"2021-02-08 14:10:05.766783"	"2021-02-08 14:10:06.315255"	112	5.94041183333333
"S210208"	"Conflict_Resolution"	"RIGHT"	"RIGHT"	499.23089999993	1366.6666694	n/a	n/a	n/a	n/a	"True"	n/a	n/a	"2021-02-08 14:10:07.703439"	"2021-02-08 14:10:08.410615"	113	5.94041183333333
"S210208"	"Conflict_Resolution"	"LEFT"	"LEFT"	503.04390000008	733.3333348	n/a	n/a	n/a	n/a	"True"	n/a	n/a	"2021-02-08 14:10:09.163601"	"2021-02-08 14:10:09.876464"	114	5.94041183333333
"S210208"	"Conflict_Resolution"	"RIGHT"	"RIGHT"	805.35610000004	1316.6666693	n/a	n/a	n/a	n/a	"False"	n/a	n/a	"2021-02-08 14:10:11.213076"	"2021-02-08 14:10:12.226815"	115	5.94041183333333
"S210208"	"Conflict_Resolution"	"RIGHT"	"RIGHT"	478.877599999919	1133.3333356	n/a	n/a	n/a	n/a	"True"	n/a	n/a	"2021-02-08 14:10:13.380197"	"2021-02-08 14:10:14.068541"	116	5.94041183333333
"S210208"	"Conflict_Resolution"	"LEFT"	"LEFT"	453.167200000053	766.6666682	n/a	n/a	n/a	n/a	"False"	n/a	n/a	"2021-02-08 14:10:14.853450"	"2021-02-08 14:10:15.514976"	117	5.94041183333333
"S210208"	"Conflict_Resolution"	"LEFT"	"LEFT"	331.240100000059	850.0000017	n/a	n/a	n/a	n/a	"False"	n/a	n/a	"2021-02-08 14:10:16.383177"	"2021-02-08 14:10:16.921989"	118	5.94041183333333
"S210208"	"Conflict_Resolution"	"LEFT"	"LEFT"	546.282700000006	1266.6666692	n/a	n/a	n/a	n/a	"True"	n/a	n/a	"2021-02-08 14:10:18.208283"	"2021-02-08 14:10:18.963331"	119	5.94041183333333
"S210208"	"Conflict_Resolution"	"LEFT"	"LEFT"	357.464699999923	583.3333345	n/a	n/a	n/a	n/a	"False"	n/a	n/a	"2021-02-08 14:10:19.564757"	"2021-02-08 14:10:20.130951"	120	5.94041183333333
"S210208"	"Conflict_Resolution"	"RIGHT"	"LEFT"	373.82260000004	1316.6666693	n/a	n/a	n/a	n/a	"True"	n/a	n/a	"2021-02-08 14:10:21.469231"	"2021-02-08 14:10:22.049855"	121	5.94041183333333
"S210208"	"Conflict_Resolution"	"RIGHT"	"RIGHT"	435.786300000018	1233.3333358	n/a	n/a	n/a	n/a	"False"	n/a	n/a	"2021-02-08 14:10:23.302949"	"2021-02-08 14:10:23.947764"	122	5.94041183333333
"S210208"	"Conflict_Resolution"	"LEFT"	"LEFT"	544.581300000004	1000.000002	n/a	n/a	n/a	n/a	"True"	n/a	n/a	"2021-02-08 14:10:24.969920"	"2021-02-08 14:10:25.721907"	123	5.94041183333333
"S210208"	"Conflict_Resolution"	"RIGHT"	"RIGHT"	652.411800000095	1233.3333358	n/a	n/a	n/a	n/a	"True"	n/a	n/a	"2021-02-08 14:10:26.974703"	"2021-02-08 14:10:27.834021"	124	5.94041183333333
"S210208"	"Conflict_Resolution"	"RIGHT"	"RIGHT"	625.166100000001	500.000001	n/a	n/a	n/a	n/a	"True"	n/a	n/a	"2021-02-08 14:10:28.353071"	"2021-02-08 14:10:29.187500"	125	5.94041183333333
"S210208"	"Conflict_Resolution"	"LEFT"	"LEFT"	765.163999999913	566.6666678	n/a	n/a	n/a	n/a	"True"	n/a	n/a	"2021-02-08 14:10:29.773642"	"2021-02-08 14:10:30.748017"	126	5.94041183333333
"S210208"	"Conflict_Resolution"	"RIGHT"	"RIGHT"	809.454200000005	833.333335	n/a	n/a	n/a	n/a	"True"	n/a	n/a	"2021-02-08 14:10:31.600915"	"2021-02-08 14:10:32.619019"	127	5.94041183333333
"S210208"	"Conflict_Resolution"	"LEFT"	"LEFT"	501.317900000004	533.3333344	n/a	n/a	n/a	n/a	"False"	n/a	n/a	"2021-02-08 14:10:33.173489"	"2021-02-08 14:10:33.882859"	128	5.94041183333333
"S210208"	"Conflict_Resolution"	"LEFT"	"LEFT"	363.377600000035	783.3333349	n/a	n/a	n/a	n/a	"False"	n/a	n/a	"2021-02-08 14:10:34.687580"	"2021-02-08 14:10:35.260331"	129	5.94041183333333
"S210208"	"Conflict_Resolution"	"LEFT"	"LEFT"	398.837000000071	1100.0000022	n/a	n/a	n/a	n/a	"False"	n/a	n/a	"2021-02-08 14:10:36.380325"	"2021-02-08 14:10:36.987367"	130	5.94041183333333
"S210208"	"Conflict_Resolution"	"LEFT"	"RIGHT"	358.537299999966	1250.0000025	n/a	n/a	n/a	n/a	"True"	n/a	n/a	"2021-02-08 14:10:38.260355"	"2021-02-08 14:10:38.826938"	131	5.94041183333333
"S210208"	"Conflict_Resolution"	"RIGHT"	"RIGHT"	641.132700000071	1483.3333363	n/a	n/a	n/a	n/a	"True"	n/a	n/a	"2021-02-08 14:10:40.329272"	"2021-02-08 14:10:41.180043"	132	5.94041183333333
"S210208"	"Conflict_Resolution"	"RIGHT"	"RIGHT"	448.670600000014	1433.3333362	n/a	n/a	n/a	n/a	"False"	n/a	n/a	"2021-02-08 14:10:42.634207"	"2021-02-08 14:10:43.290702"	133	5.94041183333333
"S210208"	"Conflict_Resolution"	"RIGHT"	"RIGHT"	467.917900000089	950.0000019	n/a	n/a	n/a	n/a	"True"	n/a	n/a	"2021-02-08 14:10:44.262484"	"2021-02-08 14:10:44.939198"	134	5.94041183333333
"S210208"	"Conflict_Resolution"	"LEFT"	"LEFT"	626.529600000026	616.6666679	n/a	n/a	n/a	n/a	"True"	n/a	n/a	"2021-02-08 14:10:45.575642"	"2021-02-08 14:10:46.412072"	135	5.94041183333333
"S210208"	"Conflict_Resolution"	"RIGHT"	"RIGHT"	649.729200000024	600.0000012	n/a	n/a	n/a	n/a	"True"	n/a	n/a	"2021-02-08 14:10:47.032458"	"2021-02-08 14:10:47.892199"	136	5.94041183333333
"S210208"	"Conflict_Resolution"	"LEFT"	"LEFT"	372.335600000042	1150.0000023	n/a	n/a	n/a	n/a	"False"	n/a	n/a	"2021-02-08 14:10:49.062353"	"2021-02-08 14:10:49.644050"	137	5.94041183333333
"S210208"	"Conflict_Resolution"	"RIGHT"	"RIGHT"	571.824800000059	583.3333345	n/a	n/a	n/a	n/a	"True"	n/a	n/a	"2021-02-08 14:10:50.247241"	"2021-02-08 14:10:51.027205"	138	5.94041183333333
"S210208"	"Conflict_Resolution"	"LEFT"	"LEFT"	710.41009999999	683.3333347	n/a	n/a	n/a	n/a	"True"	n/a	n/a	"2021-02-08 14:10:51.731928"	"2021-02-08 14:10:52.651514"	139	5.94041183333333
"S210208"	"Conflict_Resolution"	"RIGHT"	"RIGHT"	416.775400000006	1466.6666696	n/a	n/a	n/a	n/a	"False"	n/a	n/a	"2021-02-08 14:10:54.138168"	"2021-02-08 14:10:54.764397"	140	5.94041183333333
"S210208"	"Conflict_Resolution"	"LEFT"	"LEFT"	495.653800000127	1050.0000021	n/a	n/a	n/a	n/a	"True"	n/a	n/a	"2021-02-08 14:10:55.834890"	"2021-02-08 14:10:56.539131"	141	5.94041183333333
"S210208"	"Conflict_Resolution"	"LEFT"	"LEFT"	414.17649999994	733.3333348	n/a	n/a	n/a	n/a	"False"	n/a	n/a	"2021-02-08 14:10:57.292860"	"2021-02-08 14:10:57.916233"	142	5.94041183333333
"S210208"	"Conflict_Resolution"	"RIGHT"	"RIGHT"	528.472400000055	1216.6666691	n/a	n/a	n/a	n/a	"True"	n/a	n/a	"2021-02-08 14:10:59.153772"	"2021-02-08 14:10:59.892122"	143	5.94041183333333
"S210208"	"Conflict_Resolution"	"LEFT"	"LEFT"	402.684600000157	1316.6666693	n/a	n/a	n/a	n/a	"False"	n/a	n/a	"2021-02-08 14:11:01.231586"	"2021-02-08 14:11:01.841912"	144	5.94041183333333
"S210208"	"Conflict_Resolution"	"LEFT"	"LEFT"	403.504999999996	1416.6666695	n/a	n/a	n/a	n/a	"False"	n/a	n/a	"2021-02-08 14:11:03.279347"	"2021-02-08 14:11:03.891863"	145	5.94041183333333
"S210208"	"Conflict_Resolution"	"RIGHT"	"RIGHT"	470.983499999875	1083.3333355	n/a	n/a	n/a	n/a	"True"	n/a	n/a	"2021-02-08 14:11:04.995576"	"2021-02-08 14:11:05.674794"	146	5.94041183333333
"S210208"	"Conflict_Resolution"	"LEFT"	"LEFT"	391.83520000006	666.666668	n/a	n/a	n/a	n/a	"False"	n/a	n/a	"2021-02-08 14:11:06.363098"	"2021-02-08 14:11:06.962832"	147	5.94041183333333
"S210208"	"Conflict_Resolution"	"RIGHT"	"RIGHT"	368.748300000107	500.000001	n/a	n/a	n/a	n/a	"False"	n/a	n/a	"2021-02-08 14:11:07.481511"	"2021-02-08 14:11:08.058596"	148	5.94041183333333
"S210208"	"Conflict_Resolution"	"LEFT"	"LEFT"	375.606999999945	900.0000018	n/a	n/a	n/a	n/a	"False"	n/a	n/a	"2021-02-08 14:11:08.978827"	"2021-02-08 14:11:09.563072"	149	5.94041183333333
"S210208"	"Conflict_Resolution"	"RIGHT"	"RIGHT"	344.451299999946	733.3333348	n/a	n/a	n/a	n/a	"False"	n/a	n/a	"2021-02-08 14:11:10.314191"	"2021-02-08 14:11:10.866165"	150	5.94041183333333
"S210208"	"Conflict_Resolution"	"LEFT"	"LEFT"	449.78570000012	850.0000017	n/a	n/a	n/a	n/a	"True"	n/a	n/a	"2021-02-08 14:11:11.736933"	"2021-02-08 14:11:12.396218"	151	5.94041183333333
"S210208"	"Conflict_Resolution"	"RIGHT"	"RIGHT"	434.229400000049	783.3333349	n/a	n/a	n/a	n/a	"False"	n/a	n/a	"2021-02-08 14:11:13.200297"	"2021-02-08 14:11:13.842741"	152	5.94041183333333
"S210208"	"Conflict_Resolution"	"RIGHT"	"LEFT"	329.04869999993	700.0000014	n/a	n/a	n/a	n/a	"True"	n/a	n/a	"2021-02-08 14:11:14.561142"	"2021-02-08 14:11:15.099729"	153	5.94041183333333
"S210208"	"Conflict_Resolution"	"LEFT"	"LEFT"	579.561000000012	1400.0000028	n/a	n/a	n/a	n/a	"True"	n/a	n/a	"2021-02-08 14:11:16.519186"	"2021-02-08 14:11:17.308180"	154	5.94041183333333
"S210208"	"Conflict_Resolution"	"RIGHT"	"RIGHT"	434.927000000016	583.3333345	n/a	n/a	n/a	n/a	"False"	n/a	n/a	"2021-02-08 14:11:17.911764"	"2021-02-08 14:11:18.555107"	155	5.94041183333333
"S210208"	"Conflict_Resolution"	"LEFT"	"LEFT"	367.090200000121	516.6666677	n/a	n/a	n/a	n/a	"False"	n/a	n/a	"2021-02-08 14:11:19.092029"	"2021-02-08 14:11:19.666585"	156	5.94041183333333
"S210208"	"Conflict_Resolution"	"LEFT"	"LEFT"	524.980899999946	1200.0000024	n/a	n/a	n/a	n/a	"True"	n/a	n/a	"2021-02-08 14:11:20.886318"	"2021-02-08 14:11:21.620025"	157	5.94041183333333
"S210208"	"Conflict_Resolution"	"LEFT"	"LEFT"	385.730899999999	1400.0000028	n/a	n/a	n/a	n/a	"False"	n/a	n/a	"2021-02-08 14:11:23.040725"	"2021-02-08 14:11:23.636473"	158	5.94041183333333
"S210208"	"Conflict_Resolution"	"LEFT"	"LEFT"	382.047400000147	666.666668	n/a	n/a	n/a	n/a	"True"	n/a	n/a	"2021-02-08 14:11:24.324999"	"2021-02-08 14:11:24.916150"	159	5.94041183333333
"S210208"	"Conflict_Resolution"	"LEFT"	"LEFT"	375.813299999891	1200.0000024	n/a	n/a	n/a	n/a	"False"	n/a	n/a	"2021-02-08 14:11:26.138919"	"2021-02-08 14:11:26.722736"	160	5.94041183333333
"S210208"	"Processing_Speed"	"RIGHT"	"DOWN"	521.858800000004	1466.6666696	n/a	n/a	n/a	n/a	n/a	n/a	n/a	"2021-02-08 13:55:27.978621"	"2021-02-08 13:55:28.725713"	1	2.0003765
"S210208"	"Processing_Speed"	"LEFT"	"DOWN"	286.066899999994	566.6666678	n/a	n/a	n/a	n/a	n/a	n/a	n/a	"2021-02-08 13:55:29.301559"	"2021-02-08 13:55:29.796417"	2	2.0003765
"S210208"	"Processing_Speed"	"RIGHT"	"DOWN"	235.461599999994	850.0000017	n/a	n/a	n/a	n/a	n/a	n/a	n/a	"2021-02-08 13:55:30.656359"	"2021-02-08 13:55:31.100090"	3	2.0003765
"S210208"	"Processing_Speed"	"LEFT"	"DOWN"	262.092999999993	1400.0000028	n/a	n/a	n/a	n/a	n/a	n/a	n/a	"2021-02-08 13:55:32.509551"	"2021-02-08 13:55:32.978712"	4	2.0003765
"S210208"	"Processing_Speed"	"LEFT"	"DOWN"	264.925199999993	1183.3333357	n/a	n/a	n/a	n/a	n/a	n/a	n/a	"2021-02-08 13:55:34.170921"	"2021-02-08 13:55:34.643164"	5	2.0003765
"S210208"	"Processing_Speed"	"RIGHT"	"DOWN"	293.281699999994	633.3333346	n/a	n/a	n/a	n/a	n/a	n/a	n/a	"2021-02-08 13:55:35.286516"	"2021-02-08 13:55:35.788003"	6	2.0003765
"S210208"	"Processing_Speed"	"RIGHT"	"DOWN"	234.365699999998	700.0000014	n/a	n/a	n/a	n/a	n/a	n/a	n/a	"2021-02-08 13:55:36.497164"	"2021-02-08 13:55:36.939977"	7	2.0003765
"S210208"	"Processing_Speed"	"LEFT"	"DOWN"	257.761500000001	916.6666685	n/a	n/a	n/a	n/a	n/a	n/a	n/a	"2021-02-08 13:55:37.866212"	"2021-02-08 13:55:38.333029"	8	2.0003765
"S210208"	"Processing_Speed"	"LEFT"	"DOWN"	232.195899999994	1150.0000023	n/a	n/a	n/a	n/a	n/a	n/a	n/a	"2021-02-08 13:55:39.491229"	"2021-02-08 13:55:39.932343"	9	2.0003765
"S210208"	"Processing_Speed"	"RIGHT"	"DOWN"	336.830800000001	533.3333344	n/a	n/a	n/a	n/a	n/a	n/a	n/a	"2021-02-08 13:55:40.475571"	"2021-02-08 13:55:41.021414"	10	2.0003765
"S210208"	"Processing_Speed"	"RIGHT"	"DOWN"	253.299200000001	783.3333349	n/a	n/a	n/a	n/a	n/a	n/a	n/a	"2021-02-08 13:55:41.814810"	"2021-02-08 13:55:42.274580"	11	2.0003765
"S210208"	"Processing_Speed"	"LEFT"	"DOWN"	227.628699999997	1300.0000026	n/a	n/a	n/a	n/a	n/a	n/a	n/a	"2021-02-08 13:55:43.583643"	"2021-02-08 13:55:44.019705"	12	2.0003765
"S210208"	"Processing_Speed"	"LEFT"	"DOWN"	259.807599999988	1466.6666696	n/a	n/a	n/a	n/a	n/a	n/a	n/a	"2021-02-08 13:55:45.495960"	"2021-02-08 13:55:45.962747"	13	2.0003765
"S210208"	"Processing_Speed"	"LEFT"	"DOWN"	278.171499999999	1050.0000021	n/a	n/a	n/a	n/a	n/a	n/a	n/a	"2021-02-08 13:55:47.021459"	"2021-02-08 13:55:47.508369"	14	2.0003765
"S210208"	"Processing_Speed"	"RIGHT"	"DOWN"	232.424100000003	733.3333348	n/a	n/a	n/a	n/a	n/a	n/a	n/a	"2021-02-08 13:55:48.251401"	"2021-02-08 13:55:48.690781"	15	2.0003765
"S210208"	"Processing_Speed"	"RIGHT"	"DOWN"	371.738900000011	1300.0000026	n/a	n/a	n/a	n/a	n/a	n/a	n/a	"2021-02-08 13:55:49.999832"	"2021-02-08 13:55:50.580406"	16	2.0003765
"S210208"	"Processing_Speed"	"LEFT"	"DOWN"	266.125000000002	1116.6666689	n/a	n/a	n/a	n/a	n/a	n/a	n/a	"2021-02-08 13:55:51.705730"	"2021-02-08 13:55:52.180492"	17	2.0003765
"S210208"	"Processing_Speed"	"LEFT"	"DOWN"	318.231700000013	783.3333349	n/a	n/a	n/a	n/a	n/a	n/a	n/a	"2021-02-08 13:55:52.973343"	"2021-02-08 13:55:53.500765"	18	2.0003765
"S210208"	"Processing_Speed"	"LEFT"	"DOWN"	269.080800000012	1433.3333362	n/a	n/a	n/a	n/a	n/a	n/a	n/a	"2021-02-08 13:55:54.942556"	"2021-02-08 13:55:55.419754"	19	2.0003765
"S210208"	"Processing_Speed"	"RIGHT"	"DOWN"	286.816700000003	1216.6666691	n/a	n/a	n/a	n/a	n/a	n/a	n/a	"2021-02-08 13:55:56.645698"	"2021-02-08 13:55:57.141558"	20	2.0003765
"S210208"	"Processing_Speed"	"LEFT"	"DOWN"	292.985799999997	1216.6666691	n/a	n/a	n/a	n/a	n/a	n/a	n/a	"2021-02-08 13:55:58.366547"	"2021-02-08 13:55:58.868253"	21	2.0003765
"S210208"	"Processing_Speed"	"RIGHT"	"DOWN"	363.158400000003	500.000001	n/a	n/a	n/a	n/a	n/a	n/a	n/a	"2021-02-08 13:55:59.376380"	"2021-02-08 13:55:59.948396"	22	2.0003765
"S210208"	"Processing_Speed"	"LEFT"	"DOWN"	263.224700000023	950.0000019	n/a	n/a	n/a	n/a	n/a	n/a	n/a	"2021-02-08 13:56:00.908809"	"2021-02-08 13:56:01.379757"	23	2.0003765
"S210208"	"Processing_Speed"	"LEFT"	"DOWN"	291.672900000009	883.3333351	n/a	n/a	n/a	n/a	n/a	n/a	n/a	"2021-02-08 13:56:02.271754"	"2021-02-08 13:56:02.772430"	24	2.0003765
"S210208"	"Processing_Speed"	"RIGHT"	"DOWN"	265.474999999981	1333.333336	n/a	n/a	n/a	n/a	n/a	n/a	n/a	"2021-02-08 13:56:04.114080"	"2021-02-08 13:56:04.587840"	25	2.0003765
"S210208"	"Processing_Speed"	"LEFT"	"DOWN"	266.6653	666.666668	n/a	n/a	n/a	n/a	n/a	n/a	n/a	"2021-02-08 13:56:05.265325"	"2021-02-08 13:56:05.740056"	26	2.0003765
"S210208"	"Processing_Speed"	"LEFT"	"DOWN"	260.347700000011	1266.6666692	n/a	n/a	n/a	n/a	n/a	n/a	n/a	"2021-02-08 13:56:07.015313"	"2021-02-08 13:56:07.484127"	27	2.0003765
"S210208"	"Processing_Speed"	"RIGHT"	"DOWN"	609.519899999981	916.6666685	n/a	n/a	n/a	n/a	n/a	n/a	n/a	"2021-02-08 13:56:08.409899"	"2021-02-08 13:56:09.226874"	28	2.0003765
"S210208"	"Processing_Speed"	"RIGHT"	"DOWN"	266.420900000014	1116.6666689	n/a	n/a	n/a	n/a	n/a	n/a	n/a	"2021-02-08 13:56:10.353482"	"2021-02-08 13:56:10.827841"	29	2.0003765
"S210208"	"Processing_Speed"	"RIGHT"	"DOWN"	270.882900000004	600.0000012	n/a	n/a	n/a	n/a	n/a	n/a	n/a	"2021-02-08 13:56:11.437253"	"2021-02-08 13:56:11.916066"	30	2.0003765
"S210208"	"Processing_Speed"	"RIGHT"	"DOWN"	235.466599999995	1083.3333355	n/a	n/a	n/a	n/a	n/a	n/a	n/a	"2021-02-08 13:56:13.007689"	"2021-02-08 13:56:13.451780"	31	2.0003765
"S210208"	"Processing_Speed"	"RIGHT"	"DOWN"	256.794299999996	566.6666678	n/a	n/a	n/a	n/a	n/a	n/a	n/a	"2021-02-08 13:56:14.027312"	"2021-02-08 13:56:14.491892"	32	2.0003765
"S210208"	"Processing_Speed"	"LEFT"	"DOWN"	235.929999999996	850.0000017	n/a	n/a	n/a	n/a	n/a	n/a	n/a	"2021-02-08 13:56:15.352105"	"2021-02-08 13:56:15.794972"	33	2.0003765
"S210208"	"Processing_Speed"	"RIGHT"	"DOWN"	225.028800000018	950.0000019	n/a	n/a	n/a	n/a	n/a	n/a	n/a	"2021-02-08 13:56:16.754264"	"2021-02-08 13:56:17.188101"	34	2.0003765
"S210208"	"Processing_Speed"	"RIGHT"	"DOWN"	247.480199999984	1183.3333357	n/a	n/a	n/a	n/a	n/a	n/a	n/a	"2021-02-08 13:56:18.379991"	"2021-02-08 13:56:18.835815"	35	2.0003765
"S210208"	"Processing_Speed"	"RIGHT"	"DOWN"	263.90330000001	1150.0000023	n/a	n/a	n/a	n/a	n/a	n/a	n/a	"2021-02-08 13:56:19.995979"	"2021-02-08 13:56:20.467733"	36	2.0003765
"S210208"	"Processing_Speed"	"RIGHT"	"DOWN"	245.989400000013	1366.6666694	n/a	n/a	n/a	n/a	n/a	n/a	n/a	"2021-02-08 13:56:21.845855"	"2021-02-08 13:56:22.299876"	37	2.0003765
"S210208"	"Processing_Speed"	"LEFT"	"DOWN"	256.767699999983	1366.6666694	n/a	n/a	n/a	n/a	n/a	n/a	n/a	"2021-02-08 13:56:23.675353"	"2021-02-08 13:56:24.139870"	38	2.0003765
"S210208"	"Processing_Speed"	"LEFT"	"DOWN"	267.186199999998	1500.000003	n/a	n/a	n/a	n/a	n/a	n/a	n/a	"2021-02-08 13:56:25.648053"	"2021-02-08 13:56:26.123888"	39	2.0003765
"S210208"	"Processing_Speed"	"RIGHT"	"DOWN"	313.5336	666.666668	n/a	n/a	n/a	n/a	n/a	n/a	n/a	"2021-02-08 13:56:26.802143"	"2021-02-08 13:56:27.324478"	40	2.0003765
"S210208"	"Processing_Speed"	"RIGHT"	"DOWN"	245.0087	1433.3333362	n/a	n/a	n/a	n/a	n/a	n/a	n/a	"2021-02-08 13:56:28.766762"	"2021-02-08 13:56:29.219828"	41	2.0003765
"S210208"	"Processing_Speed"	"RIGHT"	"DOWN"	371.741899999989	1016.6666687	n/a	n/a	n/a	n/a	n/a	n/a	n/a	"2021-02-08 13:56:30.247738"	"2021-02-08 13:56:30.829519"	42	2.0003765
"S210208"	"Processing_Speed"	"RIGHT"	"DOWN"	245.166000000012	1400.0000028	n/a	n/a	n/a	n/a	n/a	n/a	n/a	"2021-02-08 13:56:32.238837"	"2021-02-08 13:56:32.691892"	43	2.0003765
"S210208"	"Processing_Speed"	"LEFT"	"DOWN"	321.536299999991	733.3333348	n/a	n/a	n/a	n/a	n/a	n/a	n/a	"2021-02-08 13:56:33.434096"	"2021-02-08 13:56:33.965076"	44	2.0003765
"S210208"	"Processing_Speed"	"LEFT"	"DOWN"	408.426399999996	1083.3333355	n/a	n/a	n/a	n/a	n/a	n/a	n/a	"2021-02-08 13:56:35.059316"	"2021-02-08 13:56:35.676133"	45	2.0003765
"S210208"	"Processing_Speed"	"RIGHT"	"DOWN"	246.887099999981	983.3333353	n/a	n/a	n/a	n/a	n/a	n/a	n/a	"2021-02-08 13:56:36.668498"	"2021-02-08 13:56:37.124398"	46	2.0003765
"S210208"	"Processing_Speed"	"RIGHT"	"DOWN"	267.412899999982	1050.0000021	n/a	n/a	n/a	n/a	n/a	n/a	n/a	"2021-02-08 13:56:38.184626"	"2021-02-08 13:56:38.661511"	47	2.0003765
"S210208"	"Processing_Speed"	"RIGHT"	"DOWN"	240.34850000001	1500.000003	n/a	n/a	n/a	n/a	n/a	n/a	n/a	"2021-02-08 13:56:40.170874"	"2021-02-08 13:56:40.619943"	48	2.0003765
"S210208"	"Processing_Speed"	"LEFT"	"DOWN"	340.412599999979	633.3333346	n/a	n/a	n/a	n/a	n/a	n/a	n/a	"2021-02-08 13:56:41.263425"	"2021-02-08 13:56:41.810599"	49	2.0003765
"S210208"	"Processing_Speed"	"LEFT"	"DOWN"	362.705000000005	533.3333344	n/a	n/a	n/a	n/a	n/a	n/a	n/a	"2021-02-08 13:56:42.352789"	"2021-02-08 13:56:42.922943"	50	2.0003765
"S210208"	"Processing_Speed"	"LEFT"	"DOWN"	279.919000000007	600.0000012	n/a	n/a	n/a	n/a	n/a	n/a	n/a	"2021-02-08 13:56:43.531271"	"2021-02-08 13:56:44.020092"	51	2.0003765
"S210208"	"Processing_Speed"	"LEFT"	"DOWN"	309.330799999998	816.6666683	n/a	n/a	n/a	n/a	n/a	n/a	n/a	"2021-02-08 13:56:44.846526"	"2021-02-08 13:56:45.364380"	52	2.0003765
"S210208"	"Processing_Speed"	"LEFT"	"DOWN"	271.838299999985	1333.333336	n/a	n/a	n/a	n/a	n/a	n/a	n/a	"2021-02-08 13:56:46.707883"	"2021-02-08 13:56:47.189161"	53	2.0003765
"S210208"	"Processing_Speed"	"RIGHT"	"DOWN"	261.935300000005	816.6666683	n/a	n/a	n/a	n/a	n/a	n/a	n/a	"2021-02-08 13:56:48.014438"	"2021-02-08 13:56:48.485627"	54	2.0003765
"S210208"	"Processing_Speed"	"LEFT"	"DOWN"	270.216500000004	500.000001	n/a	n/a	n/a	n/a	n/a	n/a	n/a	"2021-02-08 13:56:48.997363"	"2021-02-08 13:56:49.479276"	55	2.0003765
"S210208"	"Processing_Speed"	"LEFT"	"DOWN"	288.311499999992	1016.6666687	n/a	n/a	n/a	n/a	n/a	n/a	n/a	"2021-02-08 13:56:50.507644"	"2021-02-08 13:56:51.004369"	56	2.0003765
"S210208"	"Processing_Speed"	"LEFT"	"DOWN"	247.102500000011	983.3333353	n/a	n/a	n/a	n/a	n/a	n/a	n/a	"2021-02-08 13:56:51.996318"	"2021-02-08 13:56:52.452142"	57	2.0003765
"S210208"	"Processing_Speed"	"LEFT"	"DOWN"	249.899900000003	700.0000014	n/a	n/a	n/a	n/a	n/a	n/a	n/a	"2021-02-08 13:56:53.161853"	"2021-02-08 13:56:53.618662"	58	2.0003765
"S210208"	"Processing_Speed"	"RIGHT"	"DOWN"	197.257500000006	883.3333351	n/a	n/a	n/a	n/a	n/a	n/a	n/a	"2021-02-08 13:56:54.510368"	"2021-02-08 13:56:54.916748"	59	2.0003765
"S210208"	"Processing_Speed"	"RIGHT"	"DOWN"	283.375599999999	1266.6666692	n/a	n/a	n/a	n/a	n/a	n/a	n/a	"2021-02-08 13:56:56.192306"	"2021-02-08 13:56:56.684350"	60	2.0003765
"S210208"	"Response_Inhibition"	"LEFT"	"LEFT"	309.567633499987	966.6666686	""	n/a	n/a	n/a	n/a	n/a	n/a	"2021-02-08 14:00:16.962742"	"2021-02-08 14:00:17.484018"	1	5.77592225
"S210208"	"Response_Inhibition"	"LEFT"	"LEFT"	446.664499999997	1366.6666694	""	n/a	n/a	n/a	n/a	n/a	n/a	"2021-02-08 14:00:18.860179"	"2021-02-08 14:00:19.516140"	2	5.77592225
"S210208"	"Response_Inhibition"	"LEFT"	"LEFT"	310.600700500009	900.0000018	""	n/a	n/a	n/a	n/a	n/a	n/a	"2021-02-08 14:00:20.425683"	"2021-02-08 14:00:20.946593"	3	5.77592225
"S210208"	"Response_Inhibition"	"RIGHT"	"Time_Max_Exceeded"	1500.05136690002	866.6666684	""	n/a	n/a	n/a	n/a	n/a	n/a	"2021-02-08 14:00:21.822766"	"2021-02-08 14:00:23.325925"	4	5.77592225
"S210208"	"Response_Inhibition"	"RIGHT"	"Time_Max_Exceeded"	1500.05160030003	1283.3333359	""	n/a	n/a	n/a	n/a	n/a	n/a	"2021-02-08 14:00:24.618934"	"2021-02-08 14:00:26.123434"	5	5.77592225
"S210208"	"Response_Inhibition"	"RIGHT"	"RIGHT"	700.878299999999	1050.0000021	""	n/a	n/a	n/a	n/a	n/a	n/a	"2021-02-08 14:00:27.182753"	"2021-02-08 14:00:28.091889"	6	5.77592225
"S210208"	"Response_Inhibition"	"RIGHT"	"Time_Max_Exceeded"	1500.05806709997	883.3333351	""	n/a	n/a	n/a	n/a	n/a	n/a	"2021-02-08 14:00:28.984452"	"2021-02-08 14:00:30.487793"	7	5.77592225
"S210208"	"Response_Inhibition"	"RIGHT"	"Time_Max_Exceeded"	1500.06506680004	1183.3333357	""	n/a	n/a	n/a	n/a	n/a	n/a	"2021-02-08 14:00:31.681202"	"2021-02-08 14:00:33.184631"	8	5.77592225
"S210208"	"Response_Inhibition"	"RIGHT"	"Time_Max_Exceeded"	1500.06596680002	683.3333347	""	n/a	n/a	n/a	n/a	n/a	n/a	"2021-02-08 14:00:33.877189"	"2021-02-08 14:00:35.380612"	9	5.77592225
"S210208"	"Response_Inhibition"	"LEFT"	"Time_Max_Exceeded"	1500.05110040002	766.6666682	""	n/a	n/a	n/a	n/a	n/a	n/a	"2021-02-08 14:00:36.158259"	"2021-02-08 14:00:37.661575"	10	5.77592225
"S210208"	"Response_Inhibition"	"RIGHT"	"RIGHT"	570.183199999974	1416.6666695	""	n/a	n/a	n/a	n/a	n/a	n/a	"2021-02-08 14:00:39.089186"	"2021-02-08 14:00:39.866605"	11	5.77592225
"S210208"	"Response_Inhibition"	"RIGHT"	"RIGHT"	763.890500000002	1266.6666692	""	n/a	n/a	n/a	n/a	n/a	n/a	"2021-02-08 14:00:41.143919"	"2021-02-08 14:00:42.116364"	12	5.77592225
"S210208"	"Response_Inhibition"	"LEFT"	"LEFT"	706.795499999998	850.0000017	""	n/a	n/a	n/a	n/a	n/a	n/a	"2021-02-08 14:00:42.976113"	"2021-02-08 14:00:43.891733"	13	5.77592225
"S210208"	"Response_Inhibition"	"LEFT"	"LEFT"	589.69380000002	783.3333349	""	n/a	n/a	n/a	n/a	n/a	n/a	"2021-02-08 14:00:44.685655"	"2021-02-08 14:00:45.484185"	14	5.77592225
"S210208"	"Response_Inhibition"	"RIGHT"	"RIGHT"	471.949300000006	950.0000019	""	n/a	n/a	n/a	n/a	n/a	n/a	"2021-02-08 14:00:46.443396"	"2021-02-08 14:00:47.123093"	15	5.77592225
"S210208"	"Response_Inhibition"	"RIGHT"	"Time_Max_Exceeded"	1500.05970019999	583.3333345	""	n/a	n/a	n/a	n/a	n/a	n/a	"2021-02-08 14:00:47.716152"	"2021-02-08 14:00:49.219426"	16	5.77592225
"S210208"	"Response_Inhibition"	"RIGHT"	"Time_Max_Exceeded"	1500.06123350001	816.6666683	""	n/a	n/a	n/a	n/a	n/a	n/a	"2021-02-08 14:00:50.046933"	"2021-02-08 14:00:51.550053"	17	5.77592225
"S210208"	"Response_Inhibition"	"LEFT"	"LEFT"	579.67960000002	1416.6666695	""	n/a	n/a	n/a	n/a	n/a	n/a	"2021-02-08 14:00:52.975974"	"2021-02-08 14:00:53.764497"	18	5.77592225
"S210208"	"Response_Inhibition"	"RIGHT"	"Time_Max_Exceeded"	1500.06270030002	1450.0000029	""	n/a	n/a	n/a	n/a	n/a	n/a	"2021-02-08 14:00:55.223611"	"2021-02-08 14:00:56.726633"	19	5.77592225
"S210208"	"Response_Inhibition"	"LEFT"	"Time_Max_Exceeded"	1500.0524001	816.6666683	""	n/a	n/a	n/a	n/a	n/a	n/a	"2021-02-08 14:00:57.553730"	"2021-02-08 14:00:59.057861"	20	5.77592225
"S210208"	"Response_Inhibition"	"LEFT"	"Time_Max_Exceeded"	1500.09203359999	950.0000019	""	n/a	n/a	n/a	n/a	n/a	n/a	"2021-02-08 14:01:00.018591"	"2021-02-08 14:01:01.522209"	21	5.77592225
"S210208"	"Response_Inhibition"	"RIGHT"	"Time_Max_Exceeded"	1500.0756336	633.3333346	""	n/a	n/a	n/a	n/a	n/a	n/a	"2021-02-08 14:01:02.168052"	"2021-02-08 14:01:03.671232"	22	5.77592225
"S210208"	"Response_Inhibition"	"LEFT"	"Time_Max_Exceeded"	1500.09270019996	783.3333349	""	n/a	n/a	n/a	n/a	n/a	n/a	"2021-02-08 14:01:04.464600"	"2021-02-08 14:01:05.968990"	23	5.77592225
"S210208"	"Response_Inhibition"	"RIGHT"	"RIGHT"	595.874900000013	1500.000003	""	n/a	n/a	n/a	n/a	n/a	n/a	"2021-02-08 14:01:07.479182"	"2021-02-08 14:01:08.286283"	24	5.77592225
"S210208"	"Response_Inhibition"	"RIGHT"	"RIGHT"	566.033000000004	1133.3333356	""	n/a	n/a	n/a	n/a	n/a	n/a	"2021-02-08 14:01:09.429513"	"2021-02-08 14:01:10.203528"	25	5.77592225
"S210208"	"Response_Inhibition"	"RIGHT"	"RIGHT"	585.380299999997	1383.3333361	""	n/a	n/a	n/a	n/a	n/a	n/a	"2021-02-08 14:01:11.595179"	"2021-02-08 14:01:12.389079"	26	5.77592225
"S210208"	"Response_Inhibition"	"LEFT"	"LEFT"	631.288200000029	683.3333347	""	n/a	n/a	n/a	n/a	n/a	n/a	"2021-02-08 14:01:13.084230"	"2021-02-08 14:01:13.924055"	27	5.77592225
"S210208"	"Response_Inhibition"	"RIGHT"	"RIGHT"	503.531600000031	1350.0000027	""	n/a	n/a	n/a	n/a	n/a	n/a	"2021-02-08 14:01:15.283718"	"2021-02-08 14:01:15.995135"	28	5.77592225
"S210208"	"Response_Inhibition"	"LEFT"	"LEFT"	478.171800499984	683.3333347	""	n/a	n/a	n/a	n/a	n/a	n/a	"2021-02-08 14:01:16.689290"	"2021-02-08 14:01:17.380542"	29	5.77592225
"S210208"	"Response_Inhibition"	"LEFT"	"LEFT"	642.308700000001	1266.6666692	"LEFT"	-1265.447	n/a	n/a	n/a	n/a	n/a	"2021-02-08 14:01:18.656915"	"2021-02-08 14:01:19.508017"	30	5.77592225
"S210208"	"Response_Inhibition"	"RIGHT"	"RIGHT"	551.835900000015	1150.0000023	""	n/a	n/a	n/a	n/a	n/a	n/a	"2021-02-08 14:01:20.667182"	"2021-02-08 14:01:21.429233"	31	5.77592225
"S210208"	"Response_Inhibition"	"RIGHT"	"RIGHT"	603.689000000031	1233.3333358	""	n/a	n/a	n/a	n/a	n/a	n/a	"2021-02-08 14:01:22.671962"	"2021-02-08 14:01:23.484405"	32	5.77592225
"S210208"	"Response_Inhibition"	"RIGHT"	"RIGHT"	596.942200000001	633.3333346	""	n/a	n/a	n/a	n/a	n/a	n/a	"2021-02-08 14:01:24.126235"	"2021-02-08 14:01:24.930915"	33	5.77592225
"S210208"	"Response_Inhibition"	"LEFT"	"Time_Max_Exceeded"	1500.06696699999	1066.6666688	""	n/a	n/a	n/a	n/a	n/a	n/a	"2021-02-08 14:01:26.006692"	"2021-02-08 14:01:27.509968"	34	5.77592225
"S210208"	"Response_Inhibition"	"LEFT"	"LEFT"	619.954999999948	983.3333353	""	n/a	n/a	n/a	n/a	n/a	n/a	"2021-02-08 14:01:28.503542"	"2021-02-08 14:01:29.334222"	35	5.77592225
"S210208"	"Response_Inhibition"	"RIGHT"	"RIGHT"	593.410000000006	850.0000017	""	n/a	n/a	n/a	n/a	n/a	n/a	"2021-02-08 14:01:30.194189"	"2021-02-08 14:01:30.996084"	36	5.77592225
"S210208"	"Response_Inhibition"	"LEFT"	"LEFT"	601.205200000038	500.000001	""	n/a	n/a	n/a	n/a	n/a	n/a	"2021-02-08 14:01:31.506871"	"2021-02-08 14:01:32.316978"	37	5.77592225
"S210208"	"Response_Inhibition"	"RIGHT"	"RIGHT"	489.595399999985	900.0000018	""	n/a	n/a	n/a	n/a	n/a	n/a	"2021-02-08 14:01:33.226136"	"2021-02-08 14:01:33.923778"	38	5.77592225
"S210208"	"Response_Inhibition"	"LEFT"	"LEFT"	587.772700000016	850.0000017	""	n/a	n/a	n/a	n/a	n/a	n/a	"2021-02-08 14:01:34.783112"	"2021-02-08 14:01:35.579022"	39	5.77592225
"S210208"	"Response_Inhibition"	"RIGHT"	"Time_Max_Exceeded"	1500.0491672	1166.666669	""	n/a	n/a	n/a	n/a	n/a	n/a	"2021-02-08 14:01:36.755951"	"2021-02-08 14:01:38.259257"	40	5.77592225
"S210208"	"Response_Inhibition"	"RIGHT"	"RIGHT"	509.385699999996	1433.3333362	""	n/a	n/a	n/a	n/a	n/a	n/a	"2021-02-08 14:01:39.702246"	"2021-02-08 14:01:40.420915"	41	5.77592225
"S210208"	"Response_Inhibition"	"LEFT"	"LEFT"	605.656399999987	1383.3333361	""	n/a	n/a	n/a	n/a	n/a	n/a	"2021-02-08 14:01:41.813330"	"2021-02-08 14:01:42.627627"	42	5.77592225
"S210208"	"Response_Inhibition"	"LEFT"	"LEFT"	526.431399999979	1183.3333357	""	n/a	n/a	n/a	n/a	n/a	n/a	"2021-02-08 14:01:43.820404"	"2021-02-08 14:01:44.557876"	43	5.77592225
"S210208"	"Response_Inhibition"	"LEFT"	"LEFT"	669.929200000013	516.6666677	""	n/a	n/a	n/a	n/a	n/a	n/a	"2021-02-08 14:01:45.085445"	"2021-02-08 14:01:45.967722"	44	5.77592225
"S210208"	"Response_Inhibition"	"RIGHT"	"RIGHT"	454.781099999991	800.0000016	""	n/a	n/a	n/a	n/a	n/a	n/a	"2021-02-08 14:01:46.780566"	"2021-02-08 14:01:47.446347"	45	5.77592225
"S210208"	"Response_Inhibition"	"RIGHT"	"Time_Max_Exceeded"	1500.06036670002	700.0000014	""	n/a	n/a	n/a	n/a	n/a	n/a	"2021-02-08 14:01:48.155817"	"2021-02-08 14:01:49.660109"	46	5.77592225
"S210208"	"Response_Inhibition"	"LEFT"	"Time_Max_Exceeded"	1500.06523390001	1216.6666691	""	n/a	n/a	n/a	n/a	n/a	n/a	"2021-02-08 14:01:50.886242"	"2021-02-08 14:01:52.389728"	47	5.77592225
"S210208"	"Response_Inhibition"	"RIGHT"	"RIGHT"	560.853500000007	1466.6666696	""	n/a	n/a	n/a	n/a	n/a	n/a	"2021-02-08 14:01:53.866270"	"2021-02-08 14:01:54.635897"	48	5.77592225
"S210208"	"Response_Inhibition"	"LEFT"	"LEFT"	982.58960000004	583.3333345	""	n/a	n/a	n/a	n/a	n/a	n/a	"2021-02-08 14:01:55.228354"	"2021-02-08 14:01:56.419774"	49	5.77592225
"S210208"	"Response_Inhibition"	"RIGHT"	"Time_Max_Exceeded"	1500.07530020003	783.3333349	""	n/a	n/a	n/a	n/a	n/a	n/a	"2021-02-08 14:01:57.212777"	"2021-02-08 14:01:58.716397"	50	5.77592225
"S210208"	"Response_Inhibition"	"RIGHT"	"Time_Max_Exceeded"	1500.05620030004	750.0000015	""	n/a	n/a	n/a	n/a	n/a	n/a	"2021-02-08 14:01:59.477047"	"2021-02-08 14:02:00.980324"	51	5.77592225
"S210208"	"Response_Inhibition"	"LEFT"	"LEFT"	573.250599999994	1366.6666694	""	n/a	n/a	n/a	n/a	n/a	n/a	"2021-02-08 14:02:02.358127"	"2021-02-08 14:02:03.140324"	52	5.77592225
"S210208"	"Response_Inhibition"	"RIGHT"	"Time_Max_Exceeded"	1500.0923667	1050.0000021	""	n/a	n/a	n/a	n/a	n/a	n/a	"2021-02-08 14:02:04.200196"	"2021-02-08 14:02:05.705140"	53	5.77592225
"S210208"	"Response_Inhibition"	"RIGHT"	"RIGHT"	554.77639999998	683.3333347	""	n/a	n/a	n/a	n/a	n/a	n/a	"2021-02-08 14:02:06.399804"	"2021-02-08 14:02:07.166560"	54	5.77592225
"S210208"	"Response_Inhibition"	"RIGHT"	"RIGHT"	566.508599999963	650.0000013	""	n/a	n/a	n/a	n/a	n/a	n/a	"2021-02-08 14:02:07.828802"	"2021-02-08 14:02:08.603779"	55	5.77592225
"S210208"	"Response_Inhibition"	"LEFT"	"LEFT"	579.429600000026	1483.3333363	""	n/a	n/a	n/a	n/a	n/a	n/a	"2021-02-08 14:02:10.095387"	"2021-02-08 14:02:10.883785"	56	5.77592225
"S210208"	"Response_Inhibition"	"LEFT"	"LEFT"	598.775000000046	1000.000002	""	n/a	n/a	n/a	n/a	n/a	n/a	"2021-02-08 14:02:11.892197"	"2021-02-08 14:02:12.700416"	57	5.77592225
"S210208"	"Response_Inhibition"	"LEFT"	"Time_Max_Exceeded"	1500.0516336	1016.6666687	""	n/a	n/a	n/a	n/a	n/a	n/a	"2021-02-08 14:02:13.726400"	"2021-02-08 14:02:15.229398"	58	5.77592225
"S210208"	"Response_Inhibition"	"LEFT"	"LEFT"	586.819900000023	1000.000002	""	n/a	n/a	n/a	n/a	n/a	n/a	"2021-02-08 14:02:16.239892"	"2021-02-08 14:02:17.034610"	59	5.77592225
"S210208"	"Response_Inhibition"	"LEFT"	"LEFT"	628.243099999963	1500.000003	""	n/a	n/a	n/a	n/a	n/a	n/a	"2021-02-08 14:02:18.543114"	"2021-02-08 14:02:19.380318"	60	5.77592225
"S210208"	"Response_Inhibition"	"LEFT"	"LEFT"	564.633299999969	1216.6666691	""	n/a	n/a	n/a	n/a	n/a	n/a	"2021-02-08 14:02:20.606619"	"2021-02-08 14:02:21.380135"	61	5.77592225
"S210208"	"Response_Inhibition"	"LEFT"	"LEFT"	548.405300000013	1250.0000025	""	n/a	n/a	n/a	n/a	n/a	n/a	"2021-02-08 14:02:22.639463"	"2021-02-08 14:02:23.397467"	62	5.77592225
"S210208"	"Response_Inhibition"	"RIGHT"	"RIGHT"	315.978100000052	983.3333353	""	n/a	n/a	n/a	n/a	n/a	n/a	"2021-02-08 14:02:24.391268"	"2021-02-08 14:02:24.916099"	63	5.77592225
"S210208"	"Response_Inhibition"	"RIGHT"	"RIGHT"	583.76880000003	533.3333344	""	n/a	n/a	n/a	n/a	n/a	n/a	"2021-02-08 14:02:25.459642"	"2021-02-08 14:02:26.251789"	64	5.77592225
"S210208"	"Response_Inhibition"	"LEFT"	"Time_Max_Exceeded"	1500.09106689997	1100.0000022	""	n/a	n/a	n/a	n/a	n/a	n/a	"2021-02-08 14:02:27.361097"	"2021-02-08 14:02:28.864913"	65	5.77592225
"S210208"	"Response_Inhibition"	"LEFT"	"LEFT"	557.453399999986	666.666668	""	n/a	n/a	n/a	n/a	n/a	n/a	"2021-02-08 14:02:29.541343"	"2021-02-08 14:02:30.307569"	66	5.77592225
"S210208"	"Response_Inhibition"	"RIGHT"	"RIGHT"	502.553499999976	1316.6666693	""	n/a	n/a	n/a	n/a	n/a	n/a	"2021-02-08 14:02:31.637017"	"2021-02-08 14:02:32.347875"	67	5.77592225
"S210208"	"Response_Inhibition"	"LEFT"	"LEFT"	521.28689999995	1116.6666689	""	n/a	n/a	n/a	n/a	n/a	n/a	"2021-02-08 14:02:33.474131"	"2021-02-08 14:02:34.204143"	68	5.77592225
"S210208"	"Response_Inhibition"	"RIGHT"	"RIGHT"	534.307300000023	600.0000012	""	n/a	n/a	n/a	n/a	n/a	n/a	"2021-02-08 14:02:34.812661"	"2021-02-08 14:02:35.554943"	69	5.77592225
"S210208"	"Response_Inhibition"	"RIGHT"	"RIGHT"	501.977099999976	1400.0000028	""	n/a	n/a	n/a	n/a	n/a	n/a	"2021-02-08 14:02:36.965172"	"2021-02-08 14:02:37.675381"	70	5.77592225
"S210208"	"Response_Inhibition"	"RIGHT"	"RIGHT"	338.316599999985	716.6666681	""	n/a	n/a	n/a	n/a	n/a	n/a	"2021-02-08 14:02:38.401270"	"2021-02-08 14:02:38.949266"	71	5.77592225
"S210208"	"Response_Inhibition"	"RIGHT"	"Time_Max_Exceeded"	1500.05626700003	1333.333336	""	n/a	n/a	n/a	n/a	n/a	n/a	"2021-02-08 14:02:40.292132"	"2021-02-08 14:02:41.794960"	72	5.77592225
"S210208"	"Response_Inhibition"	"LEFT"	"LEFT"	482.173900000021	916.6666685	""	n/a	n/a	n/a	n/a	n/a	n/a	"2021-02-08 14:02:42.720953"	"2021-02-08 14:02:43.411566"	73	5.77592225
"S210208"	"Response_Inhibition"	"RIGHT"	"RIGHT"	347.383400000012	1066.6666688	""	n/a	n/a	n/a	n/a	n/a	n/a	"2021-02-08 14:02:44.487571"	"2021-02-08 14:02:45.044310"	74	5.77592225
"S210208"	"Response_Inhibition"	"LEFT"	"Time_Max_Exceeded"	1500.07310040008	550.0000011	""	n/a	n/a	n/a	n/a	n/a	n/a	"2021-02-08 14:02:45.604184"	"2021-02-08 14:02:47.108367"	75	5.77592225
"S210208"	"Response_Inhibition"	"RIGHT"	"RIGHT"	514.355099999989	1266.6666692	""	n/a	n/a	n/a	n/a	n/a	n/a	"2021-02-08 14:02:48.384655"	"2021-02-08 14:02:49.108483"	76	5.77592225
"S210208"	"Response_Inhibition"	"LEFT"	"LEFT"	536.072600000011	900.0000018	""	n/a	n/a	n/a	n/a	n/a	n/a	"2021-02-08 14:02:50.019323"	"2021-02-08 14:02:50.766187"	77	5.77592225
"S210208"	"Response_Inhibition"	"RIGHT"	"RIGHT"	512.32600000003	900.0000018	""	n/a	n/a	n/a	n/a	n/a	n/a	"2021-02-08 14:02:51.675300"	"2021-02-08 14:02:52.396055"	78	5.77592225
"S210208"	"Response_Inhibition"	"LEFT"	"LEFT"	504.282800000055	733.3333348	""	n/a	n/a	n/a	n/a	n/a	n/a	"2021-02-08 14:02:53.139147"	"2021-02-08 14:02:53.850985"	79	5.77592225
"S210208"	"Response_Inhibition"	"RIGHT"	"RIGHT"	568.886900000052	550.0000011	""	n/a	n/a	n/a	n/a	n/a	n/a	"2021-02-08 14:02:54.410590"	"2021-02-08 14:02:55.187886"	80	5.77592225
"S210208"	"Response_Inhibition"	"RIGHT"	"Time_Max_Exceeded"	1500.05796690008	533.3333344	""	n/a	n/a	n/a	n/a	n/a	n/a	"2021-02-08 14:02:55.729982"	"2021-02-08 14:02:57.233518"	81	5.77592225
"S210208"	"Response_Inhibition"	"RIGHT"	"Time_Max_Exceeded"	1500.10186670003	1366.6666694	""	n/a	n/a	n/a	n/a	n/a	n/a	"2021-02-08 14:02:58.610419"	"2021-02-08 14:03:00.114197"	82	5.77592225
"S210208"	"Response_Inhibition"	"RIGHT"	"RIGHT"	561.099099999979	1150.0000023	""	n/a	n/a	n/a	n/a	n/a	n/a	"2021-02-08 14:03:01.274008"	"2021-02-08 14:03:02.044506"	83	5.77592225
"S210208"	"Response_Inhibition"	"LEFT"	"LEFT"	506.398999999988	1450.0000029	""	n/a	n/a	n/a	n/a	n/a	n/a	"2021-02-08 14:03:03.504633"	"2021-02-08 14:03:04.218976"	84	5.77592225
"S210208"	"Response_Inhibition"	"RIGHT"	"Time_Max_Exceeded"	1500.12890009998	933.3333352	""	n/a	n/a	n/a	n/a	n/a	n/a	"2021-02-08 14:03:05.161044"	"2021-02-08 14:03:06.664783"	85	5.77592225
"S210208"	"Response_Inhibition"	"RIGHT"	"Time_Max_Exceeded"	1500.05436710005	1100.0000022	""	n/a	n/a	n/a	n/a	n/a	n/a	"2021-02-08 14:03:07.775665"	"2021-02-08 14:03:09.278964"	86	5.77592225
"S210208"	"Response_Inhibition"	"RIGHT"	"RIGHT"	574.03510000006	516.6666677	""	n/a	n/a	n/a	n/a	n/a	n/a	"2021-02-08 14:03:09.805063"	"2021-02-08 14:03:10.587569"	87	5.77592225
"S210208"	"Response_Inhibition"	"RIGHT"	"RIGHT"	539.826100000028	850.0000017	""	n/a	n/a	n/a	n/a	n/a	n/a	"2021-02-08 14:03:11.447416"	"2021-02-08 14:03:12.194815"	88	5.77592225
"S210208"	"Response_Inhibition"	"LEFT"	"Time_Max_Exceeded"	1500.05193370006	1233.3333358	""	n/a	n/a	n/a	n/a	n/a	n/a	"2021-02-08 14:03:13.437711"	"2021-02-08 14:03:14.941628"	89	5.77592225
"S210208"	"Response_Inhibition"	"LEFT"	"LEFT"	536.818499999981	650.0000013	""	n/a	n/a	n/a	n/a	n/a	n/a	"2021-02-08 14:03:15.602366"	"2021-02-08 14:03:16.348179"	90	5.77592225
"S210208"	"Response_Inhibition"	"LEFT"	"LEFT"	545.996700000046	883.3333351	""	n/a	n/a	n/a	n/a	n/a	n/a	"2021-02-08 14:03:17.240874"	"2021-02-08 14:03:17.995977"	91	5.77592225
"S210208"	"Response_Inhibition"	"LEFT"	"Time_Max_Exceeded"	1500.06253360001	1350.0000027	""	n/a	n/a	n/a	n/a	n/a	n/a	"2021-02-08 14:03:19.354795"	"2021-02-08 14:03:20.858612"	92	5.77592225
"S210208"	"Response_Inhibition"	"LEFT"	"LEFT"	560.906400000022	733.3333348	""	n/a	n/a	n/a	n/a	n/a	n/a	"2021-02-08 14:03:21.602333"	"2021-02-08 14:03:22.373319"	93	5.77592225
"S210208"	"Response_Inhibition"	"RIGHT"	"RIGHT"	572.791800000005	1000.000002	""	n/a	n/a	n/a	n/a	n/a	n/a	"2021-02-08 14:03:23.382608"	"2021-02-08 14:03:24.163565"	94	5.77592225
"S210208"	"Response_Inhibition"	"LEFT"	"LEFT"	517.060000000015	1050.0000021	""	n/a	n/a	n/a	n/a	n/a	n/a	"2021-02-08 14:03:25.221874"	"2021-02-08 14:03:25.946576"	95	5.77592225
"S210208"	"Response_Inhibition"	"RIGHT"	"RIGHT"	321.405599999935	733.3333348	""	n/a	n/a	n/a	n/a	n/a	n/a	"2021-02-08 14:03:26.690147"	"2021-02-08 14:03:27.220210"	96	5.77592225
"S210208"	"Response_Inhibition"	"LEFT"	"LEFT"	349.718600000074	750.0000015	""	n/a	n/a	n/a	n/a	n/a	n/a	"2021-02-08 14:03:27.981250"	"2021-02-08 14:03:28.538810"	97	5.77592225
"S210208"	"Response_Inhibition"	"RIGHT"	"RIGHT"	583.53969999996	1366.6666694	""	n/a	n/a	n/a	n/a	n/a	n/a	"2021-02-08 14:03:29.915418"	"2021-02-08 14:03:30.706741"	98	5.77592225
"S210208"	"Response_Inhibition"	"LEFT"	"Time_Max_Exceeded"	1500.0536005	1433.3333362	""	n/a	n/a	n/a	n/a	n/a	n/a	"2021-02-08 14:03:32.150050"	"2021-02-08 14:03:33.653693"	99	5.77592225
"S210208"	"Response_Inhibition"	"LEFT"	"LEFT"	558.163599999943	950.0000019	""	n/a	n/a	n/a	n/a	n/a	n/a	"2021-02-08 14:03:34.612919"	"2021-02-08 14:03:35.378932"	100	5.77592225
"S210208"	"Response_Inhibition"	"LEFT"	"LEFT"	553.327299999978	1316.6666693	""	n/a	n/a	n/a	n/a	n/a	n/a	"2021-02-08 14:03:36.705963"	"2021-02-08 14:03:37.468517"	101	5.77592225
"S210208"	"Response_Inhibition"	"RIGHT"	"RIGHT"	539.008200000012	1250.0000025	""	n/a	n/a	n/a	n/a	n/a	n/a	"2021-02-08 14:03:38.728281"	"2021-02-08 14:03:39.474918"	102	5.77592225
"S210208"	"Response_Inhibition"	"RIGHT"	"RIGHT"	404.813399999966	666.666668	""	n/a	n/a	n/a	n/a	n/a	n/a	"2021-02-08 14:03:40.149904"	"2021-02-08 14:03:40.763282"	103	5.77592225
"S210208"	"Response_Inhibition"	"RIGHT"	"Time_Max_Exceeded"	1500.05593339991	1483.3333363	""	n/a	n/a	n/a	n/a	n/a	n/a	"2021-02-08 14:03:42.256425"	"2021-02-08 14:03:43.759483"	104	5.77592225
"S210208"	"Response_Inhibition"	"RIGHT"	"RIGHT"	576.820999999995	833.333335	""	n/a	n/a	n/a	n/a	n/a	n/a	"2021-02-08 14:03:44.602044"	"2021-02-08 14:03:45.389495"	105	5.77592225
"S210208"	"Response_Inhibition"	"RIGHT"	"RIGHT"	422.413899999924	566.6666678	""	n/a	n/a	n/a	n/a	n/a	n/a	"2021-02-08 14:03:45.964958"	"2021-02-08 14:03:46.596116"	106	5.77592225
"S210208"	"Response_Inhibition"	"LEFT"	"LEFT"	527.542400000016	1166.666669	""	n/a	n/a	n/a	n/a	n/a	n/a	"2021-02-08 14:03:47.771674"	"2021-02-08 14:03:48.506971"	107	5.77592225
"S210208"	"Response_Inhibition"	"LEFT"	"Time_Max_Exceeded"	1500.05366679993	533.3333344	""	n/a	n/a	n/a	n/a	n/a	n/a	"2021-02-08 14:03:49.049260"	"2021-02-08 14:03:50.553139"	108	5.77592225
"S210208"	"Response_Inhibition"	"LEFT"	"Time_Max_Exceeded"	1500.05163379998	716.6666681	""	n/a	n/a	n/a	n/a	n/a	n/a	"2021-02-08 14:03:51.280486"	"2021-02-08 14:03:52.784192"	109	5.77592225
"S210208"	"Response_Inhibition"	"LEFT"	"LEFT"	570.924499999933	1333.333336	""	n/a	n/a	n/a	n/a	n/a	n/a	"2021-02-08 14:03:54.128343"	"2021-02-08 14:03:54.907539"	110	5.77592225
"S210208"	"Response_Inhibition"	"LEFT"	"LEFT"	506.085799999937	1300.0000026	""	n/a	n/a	n/a	n/a	n/a	n/a	"2021-02-08 14:03:56.217023"	"2021-02-08 14:03:56.931860"	111	5.77592225
"S210208"	"Response_Inhibition"	"RIGHT"	"Time_Max_Exceeded"	1500.06203340009	1100.0000022	""	n/a	n/a	n/a	n/a	n/a	n/a	"2021-02-08 14:03:58.039978"	"2021-02-08 14:03:59.543940"	112	5.77592225
"S210208"	"Response_Inhibition"	"LEFT"	"LEFT"	568.534499999942	800.0000016	""	n/a	n/a	n/a	n/a	n/a	n/a	"2021-02-08 14:04:00.354230"	"2021-02-08 14:04:01.132305"	113	5.77592225
"S210208"	"Response_Inhibition"	"RIGHT"	"Time_Max_Exceeded"	1500.06829999995	1300.0000026	""	n/a	n/a	n/a	n/a	n/a	n/a	"2021-02-08 14:04:02.440374"	"2021-02-08 14:04:03.941300"	114	5.77592225
"S210208"	"Response_Inhibition"	"RIGHT"	"RIGHT"	769.668899999942	1083.3333355	""	n/a	n/a	n/a	n/a	n/a	n/a	"2021-02-08 14:04:05.033732"	"2021-02-08 14:04:06.010972"	115	5.77592225
"S210208"	"Response_Inhibition"	"RIGHT"	"RIGHT"	440.892400000052	966.6666686	""	n/a	n/a	n/a	n/a	n/a	n/a	"2021-02-08 14:04:06.986010"	"2021-02-08 14:04:07.634874"	116	5.77592225
"S210208"	"Response_Inhibition"	"LEFT"	"LEFT"	524.072300000057	633.3333346	""	n/a	n/a	n/a	n/a	n/a	n/a	"2021-02-08 14:04:08.279196"	"2021-02-08 14:04:09.011329"	117	5.77592225
"S210208"	"Response_Inhibition"	"LEFT"	"LEFT"	449.717599999985	1150.0000023	""	n/a	n/a	n/a	n/a	n/a	n/a	"2021-02-08 14:04:10.169323"	"2021-02-08 14:04:10.828693"	118	5.77592225
"S210208"	"Response_Inhibition"	"RIGHT"	"RIGHT"	313.532533699993	1416.6666695	""	n/a	n/a	n/a	n/a	n/a	n/a	"2021-02-08 14:04:12.254616"	"2021-02-08 14:04:12.780252"	119	5.77592225
"S210208"	"Response_Inhibition"	"LEFT"	"LEFT"	450.302299999976	1100.0000022	""	n/a	n/a	n/a	n/a	n/a	n/a	"2021-02-08 14:04:13.888878"	"2021-02-08 14:04:14.546742"	120	5.77592225
"S210208"	"Response_Inhibition"	"LEFT"	"LEFT"	335.286900000028	1200.0000024	""	n/a	n/a	n/a	n/a	n/a	n/a	"2021-02-08 14:04:15.756029"	"2021-02-08 14:04:16.300186"	121	5.77592225
"S210208"	"Response_Inhibition"	"RIGHT"	"RIGHT"	452.723500000047	1200.0000024	""	n/a	n/a	n/a	n/a	n/a	n/a	"2021-02-08 14:04:17.510109"	"2021-02-08 14:04:18.172331"	122	5.77592225
"S210208"	"Response_Inhibition"	"LEFT"	"LEFT"	309.432000000015	1416.6666695	""	n/a	n/a	n/a	n/a	n/a	n/a	"2021-02-08 14:04:19.597283"	"2021-02-08 14:04:20.115900"	123	5.77592225
"S210208"	"Response_Inhibition"	"RIGHT"	"RIGHT"	355.713999999921	616.6666679	""	n/a	n/a	n/a	n/a	n/a	n/a	"2021-02-08 14:04:20.742848"	"2021-02-08 14:04:21.307129"	124	5.77592225
"S210208"	"Response_Inhibition"	"LEFT"	"LEFT"	326.864099999966	583.3333345	""	n/a	n/a	n/a	n/a	n/a	n/a	"2021-02-08 14:04:21.900552"	"2021-02-08 14:04:22.436162"	125	5.77592225
"S210208"	"Response_Inhibition"	"RIGHT"	"RIGHT"	302.717599999937	783.3333349	""	n/a	n/a	n/a	n/a	n/a	n/a	"2021-02-08 14:04:23.228218"	"2021-02-08 14:04:23.738931"	126	5.77592225
"S210208"	"Response_Inhibition"	"LEFT"	"Time_Max_Exceeded"	1500.12040000001	1133.3333356	""	n/a	n/a	n/a	n/a	n/a	n/a	"2021-02-08 14:04:24.882493"	"2021-02-08 14:04:26.382325"	127	5.77592225
"S210208"	"Response_Inhibition"	"RIGHT"	"RIGHT"	508.75300000007	733.3333348	""	n/a	n/a	n/a	n/a	n/a	n/a	"2021-02-08 14:04:27.126429"	"2021-02-08 14:04:27.843485"	128	5.77592225
"S210208"	"Response_Inhibition"	"RIGHT"	"RIGHT"	752.799999999979	916.6666685	""	n/a	n/a	n/a	n/a	n/a	n/a	"2021-02-08 14:04:28.770154"	"2021-02-08 14:04:29.731373"	129	5.77592225
"S210208"	"Response_Inhibition"	"RIGHT"	"RIGHT"	342.809699999975	583.3333345	""	n/a	n/a	n/a	n/a	n/a	n/a	"2021-02-08 14:04:30.323831"	"2021-02-08 14:04:30.875489"	130	5.77592225
"S210208"	"Response_Inhibition"	"RIGHT"	"RIGHT"	329.954000399998	1216.6666691	""	n/a	n/a	n/a	n/a	n/a	n/a	"2021-02-08 14:04:32.101944"	"2021-02-08 14:04:32.642667"	131	5.77592225
"S210208"	"Response_Inhibition"	"LEFT"	"LEFT"	570.855499999993	700.0000014	""	n/a	n/a	n/a	n/a	n/a	n/a	"2021-02-08 14:04:33.351804"	"2021-02-08 14:04:34.130630"	132	5.77592225
"S210208"	"Response_Inhibition"	"RIGHT"	"RIGHT"	559.189300000071	1016.6666687	""	n/a	n/a	n/a	n/a	n/a	n/a	"2021-02-08 14:04:35.156043"	"2021-02-08 14:04:35.923721"	133	5.77592225
"S210208"	"Response_Inhibition"	"LEFT"	"Time_Max_Exceeded"	1500.06140009998	1316.6666693	""	n/a	n/a	n/a	n/a	n/a	n/a	"2021-02-08 14:04:37.250420"	"2021-02-08 14:04:38.753302"	134	5.77592225
"S210208"	"Response_Inhibition"	"LEFT"	"Time_Max_Exceeded"	1500.06053379999	600.0000012	""	n/a	n/a	n/a	n/a	n/a	n/a	"2021-02-08 14:04:39.362761"	"2021-02-08 14:04:40.866805"	135	5.77592225
"S210208"	"Response_Inhibition"	"RIGHT"	"RIGHT"	465.949199999955	1116.6666689	""	n/a	n/a	n/a	n/a	n/a	n/a	"2021-02-08 14:04:41.992826"	"2021-02-08 14:04:42.666591"	136	5.77592225
"S210208"	"Response_Inhibition"	"RIGHT"	"Time_Max_Exceeded"	1500.0890672	950.0000019	""	n/a	n/a	n/a	n/a	n/a	n/a	"2021-02-08 14:04:43.625330"	"2021-02-08 14:04:45.128523"	137	5.77592225
"S210208"	"Response_Inhibition"	"LEFT"	"Time_Max_Exceeded"	1500.06456700002	1266.6666692	""	n/a	n/a	n/a	n/a	n/a	n/a	"2021-02-08 14:04:46.405133"	"2021-02-08 14:04:47.908010"	138	5.77592225
"S210208"	"Response_Inhibition"	"LEFT"	"LEFT"	635.024799999997	1033.3333354	""	n/a	n/a	n/a	n/a	n/a	n/a	"2021-02-08 14:04:48.952283"	"2021-02-08 14:04:49.797405"	139	5.77592225
"S210208"	"Response_Inhibition"	"LEFT"	"Time_Max_Exceeded"	1500.05913390006	866.6666684	""	n/a	n/a	n/a	n/a	n/a	n/a	"2021-02-08 14:04:50.674654"	"2021-02-08 14:04:52.179264"	140	5.77592225
"S210208"	"Response_Inhibition"	"LEFT"	"LEFT"	658.807000000024	1466.6666696	""	n/a	n/a	n/a	n/a	n/a	n/a	"2021-02-08 14:04:53.656594"	"2021-02-08 14:04:54.522817"	141	5.77592225
"S210208"	"Response_Inhibition"	"LEFT"	"LEFT"	692.548600000009	1050.0000021	""	n/a	n/a	n/a	n/a	n/a	n/a	"2021-02-08 14:04:55.582674"	"2021-02-08 14:04:56.484155"	142	5.77592225
"S210208"	"Response_Inhibition"	"LEFT"	"LEFT"	385.597267099953	1400.0000028	""	n/a	n/a	n/a	n/a	n/a	n/a	"2021-02-08 14:04:57.894655"	"2021-02-08 14:04:58.491105"	143	5.77592225
"S210208"	"Response_Inhibition"	"LEFT"	"Time_Max_Exceeded"	1500.06106719995	1466.6666696	""	n/a	n/a	n/a	n/a	n/a	n/a	"2021-02-08 14:04:59.966711"	"2021-02-08 14:05:01.470299"	144	5.77592225
"S210208"	"Response_Inhibition"	"LEFT"	"LEFT"	599.063900000033	1083.3333355	""	n/a	n/a	n/a	n/a	n/a	n/a	"2021-02-08 14:05:02.563761"	"2021-02-08 14:05:03.370817"	145	5.77592225
"S210208"	"Response_Inhibition"	"LEFT"	"Time_Max_Exceeded"	1500.05803349992	633.3333346	""	n/a	n/a	n/a	n/a	n/a	n/a	"2021-02-08 14:05:04.014277"	"2021-02-08 14:05:05.517260"	146	5.77592225
"S210208"	"Response_Inhibition"	"LEFT"	"LEFT"	659.701999999925	616.6666679	""	n/a	n/a	n/a	n/a	n/a	n/a	"2021-02-08 14:05:06.143586"	"2021-02-08 14:05:07.011762"	147	5.77592225
"S210208"	"Response_Inhibition"	"RIGHT"	"RIGHT"	285.206199999948	1033.3333354	""	n/a	n/a	n/a	n/a	n/a	n/a	"2021-02-08 14:05:08.054037"	"2021-02-08 14:05:08.546614"	148	5.77592225
"S210208"	"Response_Inhibition"	"LEFT"	"LEFT"	409.37509999992	533.3333344	""	n/a	n/a	n/a	n/a	n/a	n/a	"2021-02-08 14:05:09.089680"	"2021-02-08 14:05:09.707433"	149	5.77592225
"S210208"	"Response_Inhibition"	"RIGHT"	"RIGHT"	302.789100000041	766.6666682	""	n/a	n/a	n/a	n/a	n/a	n/a	"2021-02-08 14:05:10.484258"	"2021-02-08 14:05:10.994872"	150	5.77592225
"S210208"	"Response_Inhibition"	"RIGHT"	"RIGHT"	316.686600000025	1466.6666696	""	n/a	n/a	n/a	n/a	n/a	n/a	"2021-02-08 14:05:12.470673"	"2021-02-08 14:05:12.996300"	151	5.77592225
"S210208"	"Response_Inhibition"	"LEFT"	"LEFT"	304.965300000049	933.3333352	""	n/a	n/a	n/a	n/a	n/a	n/a	"2021-02-08 14:05:13.937582"	"2021-02-08 14:05:14.450767"	152	5.77592225
"S210208"	"Response_Inhibition"	"LEFT"	"Time_Max_Exceeded"	1500.05963370003	1150.0000023	""	n/a	n/a	n/a	n/a	n/a	n/a	"2021-02-08 14:05:15.610281"	"2021-02-08 14:05:17.113761"	153	5.77592225
"S210208"	"Response_Inhibition"	"RIGHT"	"Time_Max_Exceeded"	1500.06443380002	500.000001	""	n/a	n/a	n/a	n/a	n/a	n/a	"2021-02-08 14:05:17.623498"	"2021-02-08 14:05:19.127540"	154	5.77592225
"S210208"	"Response_Inhibition"	"LEFT"	"LEFT"	596.194099999934	566.6666678	""	n/a	n/a	n/a	n/a	n/a	n/a	"2021-02-08 14:05:19.703011"	"2021-02-08 14:05:20.507464"	155	5.77592225
"S210208"	"Response_Inhibition"	"RIGHT"	"RIGHT"	301.339999999982	1216.6666691	""	n/a	n/a	n/a	n/a	n/a	n/a	"2021-02-08 14:05:21.733335"	"2021-02-08 14:05:22.243805"	156	5.77592225
"S210208"	"Response_Inhibition"	"RIGHT"	"Time_Max_Exceeded"	1500.06183339993	1000.000002	""	n/a	n/a	n/a	n/a	n/a	n/a	"2021-02-08 14:05:23.252979"	"2021-02-08 14:05:24.757336"	157	5.77592225
"S210208"	"Response_Inhibition"	"RIGHT"	"RIGHT"	494.191500000056	1316.6666693	""	n/a	n/a	n/a	n/a	n/a	n/a	"2021-02-08 14:05:26.084508"	"2021-02-08 14:05:26.788064"	158	5.77592225
"S210208"	"Response_Inhibition"	"LEFT"	"LEFT"	425.319299999956	1283.3333359	""	n/a	n/a	n/a	n/a	n/a	n/a	"2021-02-08 14:05:28.081458"	"2021-02-08 14:05:28.715493"	159	5.77592225
"S210208"	"Response_Inhibition"	"LEFT"	"LEFT"	436.222199999975	833.333335	""	n/a	n/a	n/a	n/a	n/a	n/a	"2021-02-08 14:05:29.559056"	"2021-02-08 14:05:30.203246"	160	5.77592225
"S210208"	"Response_Selection"	"RIGHT"	"RIGHT"	279.046999999991	800.0000016	n/a	n/a	n/a	n/a	n/a	n/a	n/a	"2021-02-08 13:57:43.620470"	"2021-02-08 13:57:44.107853"	1	2.7495777
"S210208"	"Response_Selection"	"RIGHT"	"RIGHT"	230.118799999985	600.0000012	n/a	n/a	n/a	n/a	n/a	n/a	n/a	"2021-02-08 13:57:44.717822"	"2021-02-08 13:57:45.154943"	2	2.7495777
"S210208"	"Response_Selection"	"LEFT"	"LEFT"	237.321100000003	866.6666684	n/a	n/a	n/a	n/a	n/a	n/a	n/a	"2021-02-08 13:57:46.029992"	"2021-02-08 13:57:46.474580"	3	2.7495777
"S210208"	"Response_Selection"	"RIGHT"	"RIGHT"	265.759799999984	1350.0000027	n/a	n/a	n/a	n/a	n/a	n/a	n/a	"2021-02-08 13:57:47.833369"	"2021-02-08 13:57:48.308320"	4	2.7495777
"S210208"	"Response_Selection"	"LEFT"	"LEFT"	302.17540000001	1216.6666691	n/a	n/a	n/a	n/a	n/a	n/a	n/a	"2021-02-08 13:57:49.533654"	"2021-02-08 13:57:50.042630"	5	2.7495777
"S210208"	"Response_Selection"	"LEFT"	"LEFT"	294.685399999992	633.3333346	n/a	n/a	n/a	n/a	n/a	n/a	n/a	"2021-02-08 13:57:50.685026"	"2021-02-08 13:57:51.187186"	6	2.7495777
"S210208"	"Response_Selection"	"LEFT"	"LEFT"	293.551600000001	1033.3333354	n/a	n/a	n/a	n/a	n/a	n/a	n/a	"2021-02-08 13:57:52.229938"	"2021-02-08 13:57:52.730636"	7	2.7495777
"S210208"	"Response_Selection"	"RIGHT"	"RIGHT"	282.342999999997	533.3333344	n/a	n/a	n/a	n/a	n/a	n/a	n/a	"2021-02-08 13:57:53.273316"	"2021-02-08 13:57:53.763754"	8	2.7495777
"S210208"	"Response_Selection"	"LEFT"	"LEFT"	308.266599999996	1450.0000029	n/a	n/a	n/a	n/a	n/a	n/a	n/a	"2021-02-08 13:57:55.223045"	"2021-02-08 13:57:55.740179"	9	2.7495777
"S210208"	"Response_Selection"	"RIGHT"	"RIGHT"	267.653899999999	1083.3333355	n/a	n/a	n/a	n/a	n/a	n/a	n/a	"2021-02-08 13:57:56.832125"	"2021-02-08 13:57:57.307511"	10	2.7495777
"S210208"	"Response_Selection"	"RIGHT"	"RIGHT"	287.139200000013	1166.666669	n/a	n/a	n/a	n/a	n/a	n/a	n/a	"2021-02-08 13:57:58.484057"	"2021-02-08 13:57:58.980311"	11	2.7495777
"S210208"	"Response_Selection"	"RIGHT"	"RIGHT"	320.297399999987	733.3333348	n/a	n/a	n/a	n/a	n/a	n/a	n/a	"2021-02-08 13:57:59.723310"	"2021-02-08 13:58:00.252115"	12	2.7495777
"S210208"	"Response_Selection"	"LEFT"	"LEFT"	271.166699999981	1366.6666694	n/a	n/a	n/a	n/a	n/a	n/a	n/a	"2021-02-08 13:58:01.628498"	"2021-02-08 13:58:02.109287"	13	2.7495777
"S210208"	"Response_Selection"	"LEFT"	"LEFT"	316.713499999992	600.0000012	n/a	n/a	n/a	n/a	n/a	n/a	n/a	"2021-02-08 13:58:02.718639"	"2021-02-08 13:58:03.243781"	14	2.7495777
"S210208"	"Response_Selection"	"LEFT"	"LEFT"	301.525799999979	650.0000013	n/a	n/a	n/a	n/a	n/a	n/a	n/a	"2021-02-08 13:58:03.902267"	"2021-02-08 13:58:04.410953"	15	2.7495777
"S210208"	"Response_Selection"	"RIGHT"	"RIGHT"	250.3423	916.6666685	n/a	n/a	n/a	n/a	n/a	n/a	n/a	"2021-02-08 13:58:05.337007"	"2021-02-08 13:58:05.796415"	16	2.7495777
"S210208"	"Response_Selection"	"RIGHT"	"RIGHT"	242.024200000003	1266.6666692	n/a	n/a	n/a	n/a	n/a	n/a	n/a	"2021-02-08 13:58:07.073662"	"2021-02-08 13:58:07.524944"	17	2.7495777
"S210208"	"Response_Selection"	"RIGHT"	"RIGHT"	322.82779999997	1450.0000029	n/a	n/a	n/a	n/a	n/a	n/a	n/a	"2021-02-08 13:58:08.985061"	"2021-02-08 13:58:09.515662"	18	2.7495777
"S210208"	"Response_Selection"	"LEFT"	"LEFT"	314.025299999969	500.000001	n/a	n/a	n/a	n/a	n/a	n/a	n/a	"2021-02-08 13:58:10.025511"	"2021-02-08 13:58:10.548250"	19	2.7495777
"S210208"	"Response_Selection"	"RIGHT"	"RIGHT"	283.387000000005	633.3333346	n/a	n/a	n/a	n/a	n/a	n/a	n/a	"2021-02-08 13:58:11.192497"	"2021-02-08 13:58:11.682954"	20	2.7495777
"S210208"	"Response_Selection"	"LEFT"	"LEFT"	254.26710000005	1416.6666695	n/a	n/a	n/a	n/a	n/a	n/a	n/a	"2021-02-08 13:58:13.109359"	"2021-02-08 13:58:13.573334"	21	2.7495777
"S210208"	"Response_Selection"	"LEFT"	"LEFT"	326.87420000002	1350.0000027	n/a	n/a	n/a	n/a	n/a	n/a	n/a	"2021-02-08 13:58:14.932603"	"2021-02-08 13:58:15.467302"	22	2.7495777
"S210208"	"Response_Selection"	"RIGHT"	"RIGHT"	382.747800000004	1400.0000028	n/a	n/a	n/a	n/a	n/a	n/a	n/a	"2021-02-08 13:58:16.877258"	"2021-02-08 13:58:17.467729"	23	2.7495777
"S210208"	"Response_Selection"	"RIGHT"	"RIGHT"	342.87850000004	1200.0000024	n/a	n/a	n/a	n/a	n/a	n/a	n/a	"2021-02-08 13:58:18.676491"	"2021-02-08 13:58:19.227070"	24	2.7495777
"S210208"	"Response_Selection"	"LEFT"	"LEFT"	269.212600000003	1266.6666692	n/a	n/a	n/a	n/a	n/a	n/a	n/a	"2021-02-08 13:58:20.502528"	"2021-02-08 13:58:20.979562"	25	2.7495777
"S210208"	"Response_Selection"	"RIGHT"	"RIGHT"	273.336099999995	500.000001	n/a	n/a	n/a	n/a	n/a	n/a	n/a	"2021-02-08 13:58:21.490379"	"2021-02-08 13:58:21.971670"	26	2.7495777
"S210208"	"Response_Selection"	"RIGHT"	"RIGHT"	256.135499999971	966.6666686	n/a	n/a	n/a	n/a	n/a	n/a	n/a	"2021-02-08 13:58:22.947509"	"2021-02-08 13:58:23.412313"	27	2.7495777
"S210208"	"Response_Selection"	"LEFT"	"LEFT"	305.551600000001	733.3333348	n/a	n/a	n/a	n/a	n/a	n/a	n/a	"2021-02-08 13:58:24.154254"	"2021-02-08 13:58:24.667422"	28	2.7495777
"S210208"	"Response_Selection"	"LEFT"	"LEFT"	307.604200000014	700.0000014	n/a	n/a	n/a	n/a	n/a	n/a	n/a	"2021-02-08 13:58:25.375492"	"2021-02-08 13:58:25.892154"	29	2.7495777
"S210208"	"Response_Selection"	"LEFT"	"LEFT"	323.235000000011	683.3333347	n/a	n/a	n/a	n/a	n/a	n/a	n/a	"2021-02-08 13:58:26.584451"	"2021-02-08 13:58:27.115598"	30	2.7495777
"S210208"	"Response_Selection"	"LEFT"	"LEFT"	312.168399999962	550.0000011	n/a	n/a	n/a	n/a	n/a	n/a	n/a	"2021-02-08 13:58:27.675404"	"2021-02-08 13:58:28.195702"	31	2.7495777
"S210208"	"Response_Selection"	"LEFT"	"LEFT"	282.277800000031	1500.000003	n/a	n/a	n/a	n/a	n/a	n/a	n/a	"2021-02-08 13:58:29.705492"	"2021-02-08 13:58:30.195566"	32	2.7495777
"S210208"	"Response_Selection"	"RIGHT"	"RIGHT"	210.52370000001	1300.0000026	n/a	n/a	n/a	n/a	n/a	n/a	n/a	"2021-02-08 13:58:31.505126"	"2021-02-08 13:58:31.924944"	33	2.7495777
"S210208"	"Response_Selection"	"LEFT"	"LEFT"	258.255399999996	1066.6666688	n/a	n/a	n/a	n/a	n/a	n/a	n/a	"2021-02-08 13:58:33.001350"	"2021-02-08 13:58:33.467239"	34	2.7495777
"S210208"	"Response_Selection"	"RIGHT"	"RIGHT"	285.704099999975	1016.6666687	n/a	n/a	n/a	n/a	n/a	n/a	n/a	"2021-02-08 13:58:34.494109"	"2021-02-08 13:58:34.986942"	35	2.7495777
"S210208"	"Response_Selection"	"LEFT"	"LEFT"	293.377599999985	833.333335	n/a	n/a	n/a	n/a	n/a	n/a	n/a	"2021-02-08 13:58:35.829827"	"2021-02-08 13:58:36.332525"	36	2.7495777
"S210208"	"Response_Selection"	"LEFT"	"LEFT"	271.605400000055	1166.666669	n/a	n/a	n/a	n/a	n/a	n/a	n/a	"2021-02-08 13:58:37.507535"	"2021-02-08 13:58:37.988271"	37	2.7495777
"S210208"	"Response_Selection"	"LEFT"	"LEFT"	317.371999999978	1400.0000028	n/a	n/a	n/a	n/a	n/a	n/a	n/a	"2021-02-08 13:58:39.398085"	"2021-02-08 13:58:39.923180"	38	2.7495777
"S210208"	"Response_Selection"	"LEFT"	"LEFT"	305.89619999995	1316.6666693	n/a	n/a	n/a	n/a	n/a	n/a	n/a	"2021-02-08 13:58:41.249909"	"2021-02-08 13:58:41.765512"	39	2.7495777
"S210208"	"Response_Selection"	"RIGHT"	"RIGHT"	278.25839999997	1366.6666694	n/a	n/a	n/a	n/a	n/a	n/a	n/a	"2021-02-08 13:58:43.141609"	"2021-02-08 13:58:43.628309"	40	2.7495777
"S210208"	"Response_Selection"	"LEFT"	"LEFT"	250.01450000002	1300.0000026	n/a	n/a	n/a	n/a	n/a	n/a	n/a	"2021-02-08 13:58:44.937624"	"2021-02-08 13:58:45.396408"	41	2.7495777
"S210208"	"Response_Selection"	"RIGHT"	"RIGHT"	437.113099999976	1216.6666691	n/a	n/a	n/a	n/a	n/a	n/a	n/a	"2021-02-08 13:58:46.622233"	"2021-02-08 13:58:47.267578"	42	2.7495777
"S210208"	"Response_Selection"	"RIGHT"	"RIGHT"	315.292499999998	700.0000014	n/a	n/a	n/a	n/a	n/a	n/a	n/a	"2021-02-08 13:58:47.976322"	"2021-02-08 13:58:48.500292"	43	2.7495777
"S210208"	"Response_Selection"	"RIGHT"	"RIGHT"	257.350200000019	883.3333351	n/a	n/a	n/a	n/a	n/a	n/a	n/a	"2021-02-08 13:58:49.394513"	"2021-02-08 13:58:49.860491"	44	2.7495777
"S210208"	"Response_Selection"	"LEFT"	"LEFT"	318.370999999956	1200.0000024	n/a	n/a	n/a	n/a	n/a	n/a	n/a	"2021-02-08 13:58:51.068828"	"2021-02-08 13:58:51.596221"	45	2.7495777
"S210208"	"Response_Selection"	"RIGHT"	"RIGHT"	265.386499999977	1116.6666689	n/a	n/a	n/a	n/a	n/a	n/a	n/a	"2021-02-08 13:58:52.721740"	"2021-02-08 13:58:53.195900"	46	2.7495777
"S210208"	"Response_Selection"	"LEFT"	"LEFT"	302.97539999998	983.3333353	n/a	n/a	n/a	n/a	n/a	n/a	n/a	"2021-02-08 13:58:54.188261"	"2021-02-08 13:58:54.701209"	47	2.7495777
"S210208"	"Response_Selection"	"RIGHT"	"RIGHT"	227.4764	983.3333353	n/a	n/a	n/a	n/a	n/a	n/a	n/a	"2021-02-08 13:58:55.695542"	"2021-02-08 13:58:56.132389"	48	2.7495777
"S210208"	"Response_Selection"	"LEFT"	"LEFT"	294.652999999983	750.0000015	n/a	n/a	n/a	n/a	n/a	n/a	n/a	"2021-02-08 13:58:56.892848"	"2021-02-08 13:58:57.396059"	49	2.7495777
"S210208"	"Response_Selection"	"RIGHT"	"RIGHT"	242.15810000004	1066.6666688	n/a	n/a	n/a	n/a	n/a	n/a	n/a	"2021-02-08 13:58:58.473464"	"2021-02-08 13:58:58.925530"	50	2.7495777
"S210208"	"Response_Selection"	"RIGHT"	"RIGHT"	313.538499999993	866.6666684	n/a	n/a	n/a	n/a	n/a	n/a	n/a	"2021-02-08 13:58:59.802112"	"2021-02-08 13:59:00.323628"	51	2.7495777
"S210208"	"Response_Selection"	"RIGHT"	"RIGHT"	284.235699999954	650.0000013	n/a	n/a	n/a	n/a	n/a	n/a	n/a	"2021-02-08 13:59:00.982824"	"2021-02-08 13:59:01.475643"	52	2.7495777
"S210208"	"Response_Selection"	"LEFT"	"LEFT"	267.133699999988	883.3333351	n/a	n/a	n/a	n/a	n/a	n/a	n/a	"2021-02-08 13:59:02.368196"	"2021-02-08 13:59:02.843005"	53	2.7495777
"S210208"	"Response_Selection"	"RIGHT"	"RIGHT"	239.822600000025	583.3333345	n/a	n/a	n/a	n/a	n/a	n/a	n/a	"2021-02-08 13:59:03.435521"	"2021-02-08 13:59:03.883113"	54	2.7495777
"S210208"	"Response_Selection"	"RIGHT"	"RIGHT"	263.303899999983	783.3333349	n/a	n/a	n/a	n/a	n/a	n/a	n/a	"2021-02-08 13:59:04.676253"	"2021-02-08 13:59:05.147621"	55	2.7495777
"S210208"	"Response_Selection"	"LEFT"	"LEFT"	234.961999999996	1083.3333355	n/a	n/a	n/a	n/a	n/a	n/a	n/a	"2021-02-08 13:59:06.240825"	"2021-02-08 13:59:06.683769"	56	2.7495777
"S210208"	"Response_Selection"	"RIGHT"	"RIGHT"	272.844600000042	550.0000011	n/a	n/a	n/a	n/a	n/a	n/a	n/a	"2021-02-08 13:59:07.242971"	"2021-02-08 13:59:07.722772"	57	2.7495777
"S210208"	"Response_Selection"	"LEFT"	"LEFT"	320.478200000025	966.6666686	n/a	n/a	n/a	n/a	n/a	n/a	n/a	"2021-02-08 13:59:08.699444"	"2021-02-08 13:59:09.227212"	58	2.7495777
"S210208"	"Response_Selection"	"RIGHT"	"RIGHT"	242.036799999994	933.3333352	n/a	n/a	n/a	n/a	n/a	n/a	n/a	"2021-02-08 13:59:10.169216"	"2021-02-08 13:59:10.620315"	59	2.7495777
"S210208"	"Response_Selection"	"RIGHT"	"RIGHT"	263.265699999977	750.0000015	n/a	n/a	n/a	n/a	n/a	n/a	n/a	"2021-02-08 13:59:11.380410"	"2021-02-08 13:59:11.850650"	60	2.7495777
"S210208"	"Response_Selection"	"RIGHT"	"RIGHT"	266.246000000024	1500.000003	n/a	n/a	n/a	n/a	n/a	n/a	n/a	"2021-02-08 13:59:13.361324"	"2021-02-08 13:59:13.835674"	61	2.7495777
"S210208"	"Response_Selection"	"RIGHT"	"RIGHT"	280.319500000019	1133.3333356	n/a	n/a	n/a	n/a	n/a	n/a	n/a	"2021-02-08 13:59:14.979247"	"2021-02-08 13:59:15.467777"	62	2.7495777
"S210208"	"Response_Selection"	"RIGHT"	"RIGHT"	284.180300000003	1466.6666696	n/a	n/a	n/a	n/a	n/a	n/a	n/a	"2021-02-08 13:59:16.942795"	"2021-02-08 13:59:17.436546"	63	2.7495777
"S210208"	"Response_Selection"	"LEFT"	"LEFT"	309.775400000035	783.3333349	n/a	n/a	n/a	n/a	n/a	n/a	n/a	"2021-02-08 13:59:18.229478"	"2021-02-08 13:59:18.746803"	64	2.7495777
"S210208"	"Response_Selection"	"LEFT"	"LEFT"	472.750799999972	583.3333345	n/a	n/a	n/a	n/a	n/a	n/a	n/a	"2021-02-08 13:59:19.338261"	"2021-02-08 13:59:20.020409"	65	2.7495777
"S210208"	"Response_Selection"	"LEFT"	"LEFT"	312.59220000004	533.3333344	n/a	n/a	n/a	n/a	n/a	n/a	n/a	"2021-02-08 13:59:20.562958"	"2021-02-08 13:59:21.082704"	66	2.7495777
"S210208"	"Response_Selection"	"RIGHT"	"RIGHT"	276.437699999974	1250.0000025	n/a	n/a	n/a	n/a	n/a	n/a	n/a	"2021-02-08 13:59:22.343253"	"2021-02-08 13:59:22.829451"	67	2.7495777
"S210208"	"Response_Selection"	"RIGHT"	"RIGHT"	272.654999999986	683.3333347	n/a	n/a	n/a	n/a	n/a	n/a	n/a	"2021-02-08 13:59:23.522723"	"2021-02-08 13:59:24.003926"	68	2.7495777
"S210208"	"Response_Selection"	"LEFT"	"LEFT"	267.715399999986	1250.0000025	n/a	n/a	n/a	n/a	n/a	n/a	n/a	"2021-02-08 13:59:25.263623"	"2021-02-08 13:59:25.741354"	69	2.7495777
"S210208"	"Response_Selection"	"LEFT"	"LEFT"	293.360199999995	800.0000016	n/a	n/a	n/a	n/a	n/a	n/a	n/a	"2021-02-08 13:59:26.550220"	"2021-02-08 13:59:27.052426"	70	2.7495777
"S210208"	"Response_Selection"	"RIGHT"	"RIGHT"	248.574800000029	1316.6666693	n/a	n/a	n/a	n/a	n/a	n/a	n/a	"2021-02-08 13:59:28.379474"	"2021-02-08 13:59:28.836238"	71	2.7495777
"S210208"	"Response_Selection"	"RIGHT"	"RIGHT"	267.763699999989	1416.6666695	n/a	n/a	n/a	n/a	n/a	n/a	n/a	"2021-02-08 13:59:30.263469"	"2021-02-08 13:59:30.740509"	72	2.7495777
"S210208"	"Response_Selection"	"LEFT"	"LEFT"	321.674900000005	1116.6666689	n/a	n/a	n/a	n/a	n/a	n/a	n/a	"2021-02-08 13:59:31.866099"	"2021-02-08 13:59:32.394734"	73	2.7495777
"S210208"	"Response_Selection"	"LEFT"	"LEFT"	290.219400000012	1133.3333356	n/a	n/a	n/a	n/a	n/a	n/a	n/a	"2021-02-08 13:59:33.537381"	"2021-02-08 13:59:34.035853"	74	2.7495777
"S210208"	"Response_Selection"	"LEFT"	"LEFT"	472.942500000045	933.3333352	n/a	n/a	n/a	n/a	n/a	n/a	n/a	"2021-02-08 13:59:34.978816"	"2021-02-08 13:59:35.660406"	75	2.7495777
"S210208"	"Response_Selection"	"LEFT"	"LEFT"	266.105500000037	916.6666685	n/a	n/a	n/a	n/a	n/a	n/a	n/a	"2021-02-08 13:59:36.586372"	"2021-02-08 13:59:37.061334"	76	2.7495777
"S210208"	"Response_Selection"	"RIGHT"	"RIGHT"	260.325999999964	1033.3333354	n/a	n/a	n/a	n/a	n/a	n/a	n/a	"2021-02-08 13:59:38.102618"	"2021-02-08 13:59:38.571873"	77	2.7495777
"S210208"	"Response_Selection"	"RIGHT"	"RIGHT"	277.712500000007	833.333335	n/a	n/a	n/a	n/a	n/a	n/a	n/a	"2021-02-08 13:59:39.414071"	"2021-02-08 13:59:39.901302"	78	2.7495777
"S210208"	"Response_Selection"	"LEFT"	"LEFT"	379.144600000018	1016.6666687	n/a	n/a	n/a	n/a	n/a	n/a	n/a	"2021-02-08 13:59:40.928573"	"2021-02-08 13:59:41.516545"	79	2.7495777
"S210208"	"Response_Selection"	"LEFT"	"LEFT"	361.88850000002	1466.6666696	n/a	n/a	n/a	n/a	n/a	n/a	n/a	"2021-02-08 13:59:42.993487"	"2021-02-08 13:59:43.564141"	80	2.7495777
