index	Trial_Type	Participant_ID	Trial_Probability	Question_Position_Prediction_Correct	Question_Position_Prediction_Agent	Question_Position_Comparison_Self	Question_Position_Comparison_Irrelevant	Trial_Stake	Trial_Stake_Jitter	Trial_Type_Jitter	Trial_Result_Jitter	Balance_Update_Jitter	Question_Comparison_Condition	Question_Comparison_Type	Question_Comparison_Question	Question_Comparison_Label	Question_Comparison_Item	Question_Comparison_Proportion_Yes	Question_Factual_Condition	Question_Factual_Item	Question_Factual_Question	Question_Factual_Label	Question_Factual_Proportion_DontKnow	Question_Factual_Type	Answer_Prediction_Correct	Answer_Prediction_Correct_RT	Answer_Prediction_Agent	Answer_Prediction_Agent_RT	Answer_Irrelevant	Answer_Irrelevant_RT	Answer_Self	Answer_Self_RT	Trial_Balance	Trial_Balance_Effect	Trial_Condition	Trial_ProbableSide	Prediction_Choice	Prediction_Result	Prediction_RT	Trial_Order	Trial_Datetime
101	Computer	S210208	0.5	1	2	2	1	0.4	1500.000003	1433.3333362	2350.0000047	1650.0000033	Major	Wrong_doings	11	You have cheated on a test	C1_12	0.45	Easy	I1_24	16	Penguin can fly with their wings	0.666666666666667	No	RIGHT	617.2100999999657	LEFT	384.6074000000499	LEFT	1326.3092000000825	LEFT	823.6279000000195	10.0	0.4	Probable_Truth	RIGHT	LEFT	3	847.5152365405168	0	2021-02-08 14:27:00.472269
126	Computer	S210208	0.6666666666666666	2	1	2	1	0.4	1216.6666691	1350.0000027	1933.3333372	1783.3333369	Minor	Good_deeds	57	You have started a movement to support a cause	C2_34	0.65	Hard	I1_48	59	Carnivore refers to meat-eater	0.0	Yes	RIGHT	303.3010999999988	LEFT	802.3279999999886	RIGHT	1604.7569999999496	RIGHT	1824.3186999999352	10.0	0.4	Probable_Lie	LEFT	LEFT	3	798.1605745086131	1	2021-02-08 14:27:24.655775
104	Computer	S210208	0.5	2	1	1	2	0.3	1216.6666691	1433.3333362	1783.3333369	1650.0000033	Minor	Wrong_doings	52	You have bribed someone to improve a grade	C2_52	0.05	Easy	I2_52	14	The Moon orbits around the Earth	0.777777777777778	Yes	LEFT	265.0939999999764	LEFT	853.0694999999469	RIGHT	1223.251399999981	LEFT	1295.6785000000082	10.0	0.3	Probable_Lie	RIGHT	RIGHT	3	782.6657643536423	2	2021-02-08 14:27:47.727440
135	Computer	S210208	0.8333333333333334	1	2	2	1	0.5	1150.0000023	1066.6666688	2350.0000047	1650.0000033	Major	Good_deeds	1	You have extorted money from anyone	C2_43	1.0	Easy	I2_43	13	A caterpillar has more muscle than a human	0.611111111111111	No	RIGHT	1079.9279000000297	LEFT	272.571800000037	LEFT	1487.025600000038	LEFT	1183.3741000000373	10.0	0.5	Probable_Truth	RIGHT	LEFT	1	526.6230614847115	3	2021-02-08 14:28:11.071121
8	Self	S210208	0.5	2	1	1	2	0.6	1433.3333362	1066.6666688	1650.0000033	1500.000003	Minor	Wrong_doings	52	You have bribed someone to improve a grade	C2_52	0.05	Easy	I2_52	14	The Moon orbits around the Earth	0.777777777777778	Yes	RIGHT	304.39720000003945	RIGHT	483.1960000000208	RIGHT	944.6749999999612	LEFT	1085.5112999998937	10.6	0.6	Probable_Truth	RIGHT	LEFT	1	820.9276000000045	4	2021-02-08 14:28:32.937082
50	Self	S210208	0.5	1	2	1	2	0.7	1150.0000023	1150.0000023	2066.6666708	2066.6666708	Major	Wrong_doings	40	You have lost everything just to help others	C1_23	0.9	Easy	I1_40	8	A square has 3 corners	0.0	No	RIGHT	795.8367999999609	RIGHT	328.2244999999193	LEFT	927.5000000000092	RIGHT	2214.536100000032	11.3	0.7	Probable_Truth	LEFT	LEFT	3	625.8836000000656	5	2021-02-08 14:28:56.839317
80	Self	S210208	0.8333333333333334	1	2	1	2	0.6	1150.0000023	1066.6666688	2350.0000047	2350.0000047	Major	Wrong_doings	7	You have assisted in a crime	C1_14	0.0	Hard	I1_50	22	Milwaukee Art Museum is located in California	0.944444444444444	Yes	RIGHT	387.6677000000655	RIGHT	240.6881000001704	LEFT	1454.60479999997	LEFT	817.4927000000025	11.9	0.6	Probable_Lie	LEFT	LEFT	2	694.270599999868	6	2021-02-08 14:29:19.927215
36	Self	S210208	0.8333333333333334	1	2	2	1	0.1	1283.3333359	1350.0000027	2500.000005	2350.0000047	Minor	Good_deeds	16	You have coveted things that belong to others	C1_47	0.05	Easy	I2_56	56	R. Amundsen discovered the South Pole	0.0	No	LEFT	701.7194000000018	RIGHT	384.72200000001067	LEFT	1482.2017000001324	LEFT	2464.0403999999307	11.8	0.1	Probable_Lie	RIGHT	RIGHT	1	640.9787999998571	7	2021-02-08 14:29:45.655466
0	Self	S210208	0.5	1	2	1	2	0.5	1150.0000023	1433.3333362	2216.6666711000003	2350.0000047	Minor	Good_deeds	35	You have been restricting your electricity consumption	C2_27	0.65	Easy	I2_24	43	Earth's atmosphere extends up to 10,000km into space	0.0	No	RIGHT	549.7454000001198	RIGHT	296.4328000000478	LEFT	1431.2529000001175	RIGHT	1933.1558000001223	12.3	0.5	Probable_Truth	LEFT	RIGHT	6	1239.8921000001335	8	2021-02-08 14:30:10.831674
64	Self	S210208	0.6666666666666666	1	2	1	2	0.3	1283.3333359	1350.0000027	1783.3333369	1650.0000033	Major	Good_deeds	54	You have intentionally let others cut in line	C2_26	0.0	Hard	I1_3	45	Hot chocolate was created by the Mayan culture	0.0555555555555556	No	RIGHT	475.6290000000263	RIGHT	7.28560000015932	RIGHT	1568.3873000000403	LEFT	2589.736700000003	12.6	0.3	Probable_Lie	LEFT	LEFT	4	880.1160000000436	9	2021-02-08 14:30:34.991380
110	Computer	S210208	0.5	2	1	2	1	0.2	1000.000002	1216.6666691	2500.000005	2350.0000047	Minor	Good_deeds	58	You have stopped using products tested on animals	C1_50	0.85	Easy	I1_46	45	Obama is the USA president now	0.888888888888889	Yes	RIGHT	280.9517999999116	LEFT	958.7221000001592	LEFT	1406.4539000000875	LEFT	2152.2823999998764	12.6	0.2	Probable_Truth	RIGHT	LEFT	2	999.2061767860864	10	2021-02-08 14:31:00.423105
71	Self	S210208	0.6666666666666666	1	2	2	1	0.5	1350.0000027	1216.6666691	1500.000003	1933.3333372	Major	Good_deeds	31	You have borrowed things and never returned	C2_31	0.8	Hard	I2_23	18	Brazil is in South America	1.0	No	RIGHT	501.5874999999141	RIGHT	375.1265000000785	RIGHT	1150.4202000000987	LEFT	1232.4620999997933	13.1	0.5	Probable_Truth	RIGHT	RIGHT	3	842.8922000000512	11	2021-02-08 14:31:23.095419
139	Computer	S210208	0.8333333333333334	2	1	1	2	0.7	1433.3333362	1216.6666691	2500.000005	2500.000005	Minor	Good_deeds	51	You have provided shelter for stray animals	C1_42	0.0	Easy	I2_31	10	There are 7 days in a week	0.0	No	RIGHT	392.05509999987953	LEFT	748.1333000000632	RIGHT	1142.9167999999663	LEFT	2719.221800000014	13.1	0.7	Probable_Lie	RIGHT	LEFT	4	822.470692388604	12	2021-02-08 14:31:49.135343
109	Computer	S210208	0.5	2	1	2	1	0.5	1283.3333359	1350.0000027	1500.000003	1500.000003	Minor	Wrong_doings	6	You have cursed at others	C1_17	0.85	Easy	I2_49	38	Feijoa is a type of grape	0.833333333333333	No	RIGHT	295.72460000008505	LEFT	1728.915200000074	RIGHT	1637.4898999999914	RIGHT	1911.8431000001688	13.1	0.5	Probable_Truth	LEFT	RIGHT	4	792.265556845779	13	2021-02-08 14:32:13.711642
28	Self	S210208	0.6666666666666666	2	1	2	1	0.2	1150.0000023	1216.6666691	1500.000003	2350.0000047	Major	Good_deeds	3	You have bought cigarettes for a minor	C1_24	0.05	Easy	I2_59	29	A dog has four legs	0.111111111111111	Yes	RIGHT	224.19300000001385	RIGHT	388.315799999873	RIGHT	852.9499999999643	LEFT	879.6356999998807	13.3	0.2	Probable_Truth	LEFT	LEFT	1	731.3196000000062	14	2021-02-08 14:32:35.574875
96	Computer	S210208	0.5	1	2	1	2	0.6	1283.3333359	1283.3333359	1783.3333369	1933.3333372	Minor	Good_deeds	35	You have been restricting your electricity consumption	C2_27	0.65	Easy	I2_24	43	Earth's atmosphere extends up to 10,000km into space	0.0	No	LEFT	631.5554000000247	LEFT	584.9046999999246	LEFT	1374.654400000054	RIGHT	1228.90110000003	13.3	0.6	Probable_Lie	RIGHT	LEFT	4	814.9354063177074	15	2021-02-08 14:32:59.062712
43	Self	S210208	0.8333333333333334	2	1	1	2	0.3	1000.000002	1150.0000023	2500.000005	2216.6666711000003	Minor	Good_deeds	51	You have provided shelter for stray animals	C1_42	0.0	Easy	I2_31	10	There are 7 days in a week	0.0	No	RIGHT	224.67719999986	RIGHT	275.7673999999497	RIGHT	624.4014999999763	LEFT	1532.293299999992	13.6	0.3	Probable_Truth	LEFT	LEFT	1	699.4349000001421	16	2021-02-08 14:33:21.863800
72	Self	S210208	0.6666666666666666	2	1	1	2	0.5	1150.0000023	1350.0000027	1933.3333372	2500.000005	Major	Wrong_doings	45	You have given up your seat in the MRT	C1_59	0.15	Hard	I1_27	27	The current century is 21st	0.111111111111111	No	RIGHT	191.09000000003107	RIGHT	508.8969000000816	RIGHT	1119.343200000003	RIGHT	899.0850000000137	14.1	0.5	Probable_Truth	LEFT	LEFT	1	673.3079999999063	17	2021-02-08 14:33:44.767635
133	Computer	S210208	0.8333333333333334	1	2	2	1	0.6	1350.0000027	1000.000002	1650.0000033	1783.3333369	Major	Good_deeds	20	You have used heroin	C1_43	0.7	Easy	I2_36	27	Acoustic Kitty refers to cat with implants	0.0	Yes	LEFT	578.2179999998789	LEFT	424.32209999992665	RIGHT	1762.4910999998065	LEFT	1096.7984999999771	14.1	0.6	Probable_Lie	RIGHT	LEFT	4	652.400611078898	18	2021-02-08 14:34:07.632233
108	Computer	S210208	0.5	2	1	2	1	0.1	1350.0000027	1000.000002	2066.6666708	1933.3333372	Minor	Wrong_doings	17	You have gossiped about your best friend	C1_44	0.55	Hard	I1_12	46	The Franco-Prussian War occurred in the 19th century	1.0	No	RIGHT	225.1670999999078	LEFT	596.4762999999493	LEFT	1351.1618	LEFT	1303.8171000000602	14.1	0.1	Probable_Truth	LEFT	RIGHT	6	560.8588675791354	19	2021-02-08 14:34:30.591202
3	Self	S210208	0.5	1	2	1	2	0.4	1283.3333359	1283.3333359	1783.3333369	1783.3333369	Minor	Good_deeds	60	You have told someone's secret to others	C1_35	0.0	Hard	I2_16	40	Singapore is in Africa	0.944444444444444	No	RIGHT	290.31159999999545	RIGHT	280.527199999824	LEFT	863.8579000000846	LEFT	1826.510399999961	14.5	0.4	Probable_Truth	RIGHT	LEFT	2	1287.53729999994	20	2021-02-08 14:34:53.847031
68	Self	S210208	0.6666666666666666	1	2	2	1	0.2	1150.0000023	1000.000002	1650.0000033	1500.000003	Minor	Wrong_doings	26	You have thrown your trash into the bin	C1_31	0.7	Hard	I1_45	53	Mozambique is the world's poorest country	0.0	Yes	LEFT	824.5855999998639	RIGHT	312.20779999989645	RIGHT	1958.298399999876	RIGHT	1374.9235000000226	14.3	0.2	Probable_Lie	RIGHT	RIGHT	1	805.6167999998252	21	2021-02-08 14:35:16.999959
76	Self	S210208	0.6666666666666666	2	1	2	1	0.2	1500.000003	1283.3333359	2216.6666711000003	1650.0000033	Major	Good_deeds	28	You have failed to keep promises	C1_16	0.0	Easy	I1_54	60	There are 10 continents in the World	0.611111111111111	No	RIGHT	273.1569000000036	RIGHT	335.68110000010165	LEFT	1240.354299999808	RIGHT	1224.564399999963	14.5	0.2	Probable_Truth	LEFT	LEFT	2	735.3553000000375	22	2021-02-08 14:35:40.031380
112	Computer	S210208	0.6666666666666666	1	2	1	2	0.1	1433.3333362	1216.6666691	1783.3333369	1783.3333369	Minor	Good_deeds	28	You have volunteered for a disaster-related humanitarian mission	C2_60	1.0	Hard	I2_25	47	Nanyang Technological University is in Australia	0.666666666666667	Yes	LEFT	670.4147000000376	LEFT	487.8269999999248	LEFT	1344.4842999999764	LEFT	2944.435399999975	14.5	0.1	Probable_Lie	RIGHT	RIGHT	2	539.5438602857591	23	2021-02-08 14:36:04.798450
37	Self	S210208	0.8333333333333334	1	2	2	1	0.6	1066.6666688	1150.0000023	2066.6666708	1783.3333369	Major	Good_deeds	20	You have used heroin	C1_43	0.7	Easy	I2_36	27	Acoustic Kitty refers to cat with implants	0.0	Yes	RIGHT	380.1756000000296	RIGHT	160.87310000011712	RIGHT	1129.953000000114	LEFT	800.3387999999632	15.1	0.6	Probable_Truth	RIGHT	RIGHT	6	535.0412999998753	24	2021-02-08 14:36:26.446565
88	Self	S210208	0.8333333333333334	2	1	1	2	0.2	1216.6666691	1066.6666688	2216.6666711000003	1783.3333369	Major	Wrong_doings	39	You have signed up as a bone marrow donor	C2_48	0.95	Hard	I2_44	44	Statute of Liberty is in New York	0.0	Yes	RIGHT	375.8861999999681	RIGHT	238.66050000015093	RIGHT	1135.676099999955	RIGHT	1387.5918999999612	15.3	0.2	Probable_Lie	LEFT	LEFT	3	659.6698000000742	25	2021-02-08 14:36:49.102577
18	Self	S210208	0.6666666666666666	1	2	1	2	0.6	1000.000002	1500.000003	1783.3333369	2216.6666711000003	Major	Good_deeds	58	You have lied to your parents	C2_1	0.0	Easy	I1_26	51	Marijuana is legal in Singapore	0.944444444444444	No	RIGHT	247.18659999984996	RIGHT	248.8020999999208	LEFT	1638.6955999998918	RIGHT	1751.249700000017	15.9	0.6	Probable_Truth	RIGHT	RIGHT	4	715.6234000001405	26	2021-02-08 14:37:12.783321
132	Computer	S210208	0.8333333333333334	1	2	2	1	0.3	1066.6666688	1150.0000023	2500.000005	2350.0000047	Minor	Good_deeds	16	You have coveted things that belong to others	C1_47	0.05	Easy	I2_56	56	R. Amundsen discovered the South Pole	0.0	No	RIGHT	629.5622000000094	LEFT	254.7965999999633	LEFT	1461.6287000001194	LEFT	1111.544800000047	15.9	0.3	Probable_Truth	RIGHT	LEFT	1	989.2014441079308	27	2021-02-08 14:37:36.863414
131	Computer	S210208	0.8333333333333334	1	2	1	2	0.2	1216.6666691	1433.3333362	1933.3333372	2500.000005	Major	Wrong_doings	47	You have cursed at your loved ones	C1_1	0.05	Hard	I1_6	36	Singapore has four seasons	0.722222222222222	Yes	RIGHT	586.3338999999996	LEFT	248.18950000008044	LEFT	1288.201799999797	LEFT	1100.269100000105	15.9	0.2	Probable_Lie	LEFT	LEFT	4	708.492777270106	28	2021-02-08 14:38:00.438686
63	Self	S210208	0.5	2	1	2	1	0.3	1500.000003	1150.0000023	2066.6666708	1783.3333369	Major	Good_deeds	53	You have switched off appliances when not in use	C2_56	1.0	Easy	I1_2	35	Lehman Brothers went bankrupt on 20th September	0.888888888888889	Yes	LEFT	232.6127000001179	RIGHT	927.3981999999704	LEFT	2210.0824000001467	RIGHT	1654.8247000000629	15.599999999999998	0.3	Probable_Lie	LEFT	RIGHT	3	1245.7071999999698	29	2021-02-08 14:38:25.783896
129	Computer	S210208	0.8333333333333334	1	2	1	2	0.1	1500.000003	1500.000003	2216.6666711000003	1500.000003	Minor	Wrong_doings	53	You have helped a friend in need	C2_16	0.05	Hard	I1_13	32	Today is a weekday	0.0	Yes	LEFT	694.6430000000419	LEFT	208.2278000000315	RIGHT	1328.8849000000482	RIGHT	941.3341000001764	15.599999999999998	0.1	Probable_Lie	LEFT	RIGHT	1	526.1806901008654	30	2021-02-08 14:38:48.776618
10	Self	S210208	0.5	2	1	1	2	0.2	1283.3333359	1500.000003	2216.6666711000003	2350.0000047	Major	Good_deeds	20	You have illegally stayed in a country	C2_2	0.1	Hard	I1_37	12	Fishes can swim in water	0.0	Yes	RIGHT	192.7602000000661	RIGHT	375.7918000001155	RIGHT	952.042399999982	LEFT	1068.891699999995	15.799999999999995	0.2	Probable_Truth	LEFT	RIGHT	6	1124.3687999999563	31	2021-02-08 14:39:12.414243
111	Computer	S210208	0.5	2	1	2	1	0.8	1150.0000023	1150.0000023	1650.0000033	2216.6666711000003	Major	Wrong_doings	44	You have risked your life to save another person's life	C1_20	0.0	Hard	I2_38	52	Afghan Hound is the first cloned cat	0.0	No	RIGHT	287.53819999997177	LEFT	729.3589999999313	LEFT	1776.4964999998938	RIGHT	1287.4846999998226	15.799999999999995	0.8	Probable_Truth	RIGHT	RIGHT	5	641.5436452544045	32	2021-02-08 14:39:35.862472
89	Self	S210208	0.8333333333333334	2	1	1	2	0.5	1000.000002	1283.3333359	2350.0000047	1650.0000033	Minor	Wrong_doings	27	You have eaten something in the MRT train	C1_34	0.15	Easy	I1_1	1	Today is Sunday	0.764705882352941	Yes	LEFT	201.2580999999045	RIGHT	1067.903699999988	LEFT	903.9703000000828	LEFT	1230.8817000000545	15.299999999999995	0.5	Probable_Lie	RIGHT	RIGHT	1	746.332700000039	33	2021-02-08 14:39:58.878937
4	Self	S210208	0.5	1	2	2	1	0.6	1216.6666691	1500.000003	1650.0000033	1500.000003	Minor	Good_deeds	35	You have bribed a police officer	C1_19	0.95	Easy	I1_43	24	The Seine river is 50 feet above sea level	0.0	No	RIGHT	270.89599999999336	RIGHT	32.780000000002474	LEFT	1597.097500000018	LEFT	888.3710000000065	15.899999999999997	0.6	Probable_Truth	RIGHT	LEFT	2	1418.6217999999826	34	2021-02-08 14:40:21.526201
57	Self	S210208	0.5	2	1	1	2	0.4	1216.6666691	1000.000002	1783.3333369	2350.0000047	Major	Good_deeds	15	You have violated a traffic law	C1_15	0.0	Hard	I2_12	12	There are 6000 spoken languages in the World	0.0	Yes	LEFT	127.70590000013726	RIGHT	842.2398000000157	LEFT	1622.5655000000645	LEFT	946.9907000000148	15.499999999999996	0.4	Probable_Lie	LEFT	RIGHT	1	963.7396000000537	35	2021-02-08 14:40:44.958878
2	Self	S210208	0.5	1	2	1	2	0.1	1433.3333362	1350.0000027	2350.0000047	2216.6666711000003	Minor	Wrong_doings	27	You have helped with household chores	C2_35	1.0	Hard	I2_40	53	The hardest bone in human body is the jawbone	0.0	Yes	RIGHT	658.3058999999594	RIGHT	656.6576000000168	LEFT	1327.8924000001098	RIGHT	978.079100000059	15.599999999999996	0.1	Probable_Truth	RIGHT	RIGHT	6	1135.5619000000845	36	2021-02-08 14:41:09.638643
41	Self	S210208	0.8333333333333334	2	1	1	2	0.2	1350.0000027	1000.000002	2350.0000047	1500.000003	Major	Good_deeds	19	You have claimed doing things that you never did	C2_46	1.0	Hard	I1_31	31	Cernan was the second last man to walk on the Moon	1.0	No	LEFT	296.1898000000929	RIGHT	825.7516999999552	LEFT	2102.3983000000044	LEFT	1708.8524999999208	15.399999999999997	0.2	Probable_Lie	RIGHT	RIGHT	1	659.6210999998675	37	2021-02-08 14:41:34.006890
32	Self	S210208	0.8333333333333334	1	2	1	2	0.4	1350.0000027	1283.3333359	1933.3333372	1933.3333372	Major	Good_deeds	13	You have sign up to sponsor a needy child	C2_20	0.7	Hard	I1_32	43	China is a part of Asia	1.0	No	RIGHT	1250.4896000000372	RIGHT	280.0827999999456	LEFT	1016.0699000000476	RIGHT	2189.897799999926	15.799999999999995	0.4	Probable_Lie	LEFT	LEFT	2	665.9265000000687	38	2021-02-08 14:41:58.486114
51	Self	S210208	0.5	1	2	1	2	0.3	1216.6666691	1000.000002	2216.6666711000003	1500.000003	Minor	Good_deeds	23	You have held the door open for a stranger	C2_18	0.95	Hard	I2_34	1	Some owl species hunt fish	0.0555555555555556	No	LEFT	887.3141999999916	RIGHT	263.83400000008805	LEFT	1255.7405000000017	RIGHT	1653.491699999904	15.499999999999996	0.3	Probable_Lie	RIGHT	RIGHT	1	1061.4995000000818	39	2021-02-08 14:42:22.118300
30	Self	S210208	0.6666666666666666	2	1	2	1	0.1	1350.0000027	1150.0000023	2066.6666708	2066.6666708	Minor	Good_deeds	57	You have started a movement to support a cause	C2_34	0.65	Hard	I1_48	59	Carnivore refers to meat-eater	0.0	Yes	RIGHT	136.9669000000613	RIGHT	646.7459000000417	RIGHT	1103.63899999993	RIGHT	1126.9968999999946	15.599999999999996	0.1	Probable_Truth	LEFT	LEFT	2	644.9991999998019	40	2021-02-08 14:42:44.982552
66	Self	S210208	0.6666666666666666	1	2	1	2	0.6	1500.000003	1283.3333359	2066.6666708	2066.6666708	Minor	Wrong_doings	29	You have donated a pay cheque to charity	C1_33	0.0	Easy	I1_8	23	It takes 112 years to build the Pisa Tower	0.0	Yes	RIGHT	310.4370999999446	RIGHT	328.0377999999473	RIGHT	1767.3746999998912	LEFT	2328.3071999999265	16.199999999999996	0.6	Probable_Truth	RIGHT	RIGHT	4	705.2647000000434	41	2021-02-08 14:43:09.910739
24	Self	S210208	0.6666666666666666	2	1	1	2	0.3	1500.000003	1000.000002	1783.3333369	1650.0000033	Minor	Good_deeds	47	You have watched an M18 movie when you were underage	C1_3	0.95	Easy	I1_19	42	The Amazon forest covers an area of 1 billion acres	0.722222222222222	No	LEFT	167.57510000002185	RIGHT	800.9630999999899	RIGHT	1198.625300000003	LEFT	1464.3120999999155	15.899999999999997	0.3	Probable_Lie	LEFT	LEFT	5	587.8594999999223	42	2021-02-08 14:43:32.638940
48	Self	S210208	0.5	1	2	1	2	0.4	1500.000003	1216.6666691	1933.3333372	1783.3333369	Major	Good_deeds	38	You have downloaded pirated movies	C2_9	0.95	Hard	I1_11	52	Pyramid of Giza is 468 feet tall	0.888888888888889	Yes	RIGHT	413.08090000006814	RIGHT	177.71169999991798	LEFT	1471.7302999999902	LEFT	962.2634999998354	16.299999999999994	0.4	Probable_Truth	LEFT	LEFT	3	1187.9807000000255	43	2021-02-08 14:43:55.854230
65	Self	S210208	0.6666666666666666	1	2	1	2	0.4	1216.6666691	1500.000003	2350.0000047	2216.6666711000003	Major	Wrong_doings	11	You have sold illegal drugs	C2_54	0.2	Easy	I1_60	3	The first Olympic Games was held in the 5th century B.C	0.833333333333333	Yes	RIGHT	444.8417999999492	RIGHT	279.60090000010496	RIGHT	1567.0268999999737	LEFT	857.615399999986	16.699999999999992	0.4	Probable_Truth	LEFT	LEFT	1	570.9802999999738	44	2021-02-08 14:44:19.431083
81	Self	S210208	0.8333333333333334	1	2	1	2	0.4	1433.3333362	1000.000002	1783.3333369	2066.6666708	Minor	Wrong_doings	7	You have donated blood every 6 months for many years	C1_7	0.1	Hard	I2_21	17	Cleopatra was born in Greece	0.0555555555555556	No	LEFT	738.8134000000264	RIGHT	240.3421999999864	LEFT	2151.2113999999656	RIGHT	1998.272199999974	16.299999999999994	0.4	Probable_Lie	RIGHT	RIGHT	1	499.2849999998725	45	2021-02-08 14:44:43.918243
23	Self	S210208	0.6666666666666666	1	2	2	1	0.8	1433.3333362	1350.0000027	2350.0000047	2350.0000047	Major	Good_deeds	42	You have queued to enter the MRT train	C1_29	0.95	Easy	I1_35	54	The first Grammy awards was held in 1959	0.944444444444444	Yes	RIGHT	547.1479999998792	RIGHT	503.419200000053	LEFT	1756.6781999998966	RIGHT	991.426199999978	17.099999999999994	0.8	Probable_Truth	RIGHT	RIGHT	6	741.121000000021	46	2021-02-08 14:45:08.517485
74	Self	S210208	0.6666666666666666	2	1	1	2	0.4	1283.3333359	1216.6666691	1500.000003	1500.000003	Minor	Wrong_doings	36	You have attended all lectures as a student	C1_39	0.65	Hard	I1_39	11	There are 6 million animal species on Earth	0.0555555555555556	No	RIGHT	87.47440000001916	RIGHT	268.7082999998438	RIGHT	1295.8137999999053	RIGHT	1043.963099999928	17.499999999999993	0.4	Probable_Truth	LEFT	LEFT	2	604.8753000000033	47	2021-02-08 14:45:29.894680
122	Computer	S210208	0.6666666666666666	2	1	1	2	0.1	1066.6666688	1066.6666688	1783.3333369	1500.000003	Major	Wrong_doings	24	You have followed instructions	C2_30	0.5	Hard	I2_33	33	Christmas Day is in March	0.0	No	RIGHT	56.12519999976939	LEFT	745.1366000000235	LEFT	896.5425999999752	RIGHT	851.8893999998909	17.499999999999993	0.1	Probable_Truth	LEFT	LEFT	2	743.8107816091513	48	2021-02-08 14:46:22.798785
82	Self	S210208	0.8333333333333334	1	2	1	2	0.7	1216.6666691	1283.3333359	2500.000005	1933.3333372	Major	Good_deeds	33	You have made someone cry	C2_50	1.0	Easy	I2_22	50	Malay is one of the races in Singapore	0.0	No	RIGHT	285.2992999996786	RIGHT	49.74309999988691	LEFT	1328.950099999929	RIGHT	1907.725500000197	18.199999999999992	0.7	Probable_Lie	LEFT	LEFT	3	553.7873000002946	49	2021-02-08 14:46:46.430325
22	Self	S210208	0.6666666666666666	1	2	2	1	0.3	1216.6666691	1216.6666691	2216.6666711000003	1783.3333369	Major	Wrong_doings	24	You have given way to the handicapped	C1_49	1.0	Easy	I2_51	35	The hyoid bone is the only jointless bone	0.0555555555555556	No	RIGHT	370.0152999999773	RIGHT	103.85559999986071	LEFT	1666.2953000000016	RIGHT	1009.396800000104	18.499999999999996	0.3	Probable_Lie	LEFT	LEFT	4	724.211500000365	50	2021-02-08 14:47:09.309154
27	Self	S210208	0.6666666666666666	2	1	1	2	0.5	1283.3333359	1283.3333359	2216.6666711000003	2500.000005	Minor	Wrong_doings	36	You have helped your parents when asked to	C1_36	1.0	Hard	I1_29	39	Cheese is an Asian staple	0.944444444444444	No	RIGHT	447.9978999997911	RIGHT	254.4495000001916	LEFT	1920.192700000371	RIGHT	941.2054000003992	18.999999999999996	0.5	Probable_Truth	RIGHT	RIGHT	4	501.11730000026	51	2021-02-08 14:47:33.239034
67	Self	S210208	0.6666666666666666	1	2	1	2	0.7	1433.3333362	1150.0000023	1933.3333372	2350.0000047	Major	Good_deeds	33	You have used a fake name online	C2_29	1.0	Easy	I2_3	8	It is snowing outside now	0.666666666666667	Yes	LEFT	749.0780000002815	RIGHT	287.9075999999259	LEFT	959.8254000002272	RIGHT	1467.3978000000716	18.299999999999997	0.7	Probable_Lie	RIGHT	RIGHT	2	558.2832000000053	52	2021-02-08 14:47:56.702383
19	Self	S210208	0.6666666666666666	1	2	1	2	0.1	1283.3333359	1000.000002	2500.000005	1650.0000033	Minor	Wrong_doings	29	You have pretended to be busy to avoid a social situation	C1_28	0.0	Hard	I1_47	25	Singapore is a country	0.0	Yes	RIGHT	429.461000000174	RIGHT	320.9716000001208	RIGHT	838.7300999997933	LEFT	2543.7960999997813	18.399999999999995	0.1	Probable_Truth	RIGHT	RIGHT	3	507.9078999997364	53	2021-02-08 14:48:20.350488
84	Self	S210208	0.8333333333333334	1	2	2	1	0.1	1066.6666688	1433.3333362	2216.6666711000003	2500.000005	Minor	Good_deeds	45	You have stolen something	C1_45	0.65	Easy	I2_58	21	There are 9 rings in the Olympic flag	0.0555555555555556	Yes	RIGHT	552.5634999999056	RIGHT	471.4268999996421	LEFT	1477.506799999901	LEFT	817.2660999998698	18.5	0.1	Probable_Truth	LEFT	LEFT	1	482.1999999999207	54	2021-02-08 14:48:43.942757
42	Self	S210208	0.8333333333333334	2	1	1	2	0.5	1066.6666688	1216.6666691	2216.6666711000003	1650.0000033	Minor	Wrong_doings	40	You have drunk alcohol when you were underage	C2_19	0.55	Hard	I2_28	42	French is Singapore's official language	0.166666666666667	Yes	RIGHT	39.63460000022678	RIGHT	279.7163999998702	LEFT	1216.4636000002247	LEFT	1224.3846000001213	19.0	0.5	Probable_Lie	LEFT	LEFT	4	584.6968000000743	55	2021-02-08 14:49:06.014952
59	Self	S210208	0.5	2	1	1	2	0.1	1283.3333359	1066.6666688	1500.000003	1933.3333372	Minor	Good_deeds	56	You have been donating all your excess food to a food bank	C1_46	1.0	Hard	I2_13	13	It is night time now	0.888888888888889	Yes	RIGHT	10.033600000042496	RIGHT	372.1199000001434	LEFT	927.3321000000578	RIGHT	1834.4755000002808	19.1	0.1	Probable_Truth	LEFT	RIGHT	6	1252.562599999692	56	2021-02-08 14:49:28.774303
79	Self	S210208	0.6666666666666666	2	1	2	1	0.1	1066.6666688	1500.000003	1783.3333369	1933.3333372	Major	Wrong_doings	39	You have bought cocaine	C2_36	0.95	Easy	I2_48	28	Astatine is the rarest element in the Earth's crust	0.888888888888889	Yes	RIGHT	223.473500000182	RIGHT	546.129800000017	RIGHT	1291.7000999996162	LEFT	719.8541000002479	19.2	0.1	Probable_Truth	LEFT	LEFT	2	496.2647000002107	57	2021-02-08 14:49:50.909506
93	Self	S210208	0.8333333333333334	2	1	2	1	0.6	1066.6666688	1350.0000027	1500.000003	2350.0000047	Major	Wrong_doings	38	You have faked an illness	C2_25	0.1	Hard	I1_57	46	South East Asia is currently free from polio	0.833333333333333	Yes	RIGHT	56.25389999977415	RIGHT	243.90719999973956	LEFT	1402.5833000000605	LEFT	993.1971999999404	19.8	0.6	Probable_Truth	RIGHT	RIGHT	5	540.0697000000036	58	2021-02-08 14:50:12.990402
134	Computer	S210208	0.8333333333333334	1	2	2	1	0.8	1000.000002	1283.3333359	1783.3333369	1933.3333372	Minor	Wrong_doings	43	You have rescued others from a catastrophe	C2_53	1.0	Easy	I2_27	6	Africa is the continent with the least rainfall	0.0	No	RIGHT	1392.5997999999709	LEFT	72.24230000019816	LEFT	1173.1057000001783	RIGHT	2775.2855999997337	19.8	0.8	Probable_Truth	RIGHT	RIGHT	5	995.404185862882	59	2021-02-08 14:50:37.973856
47	Self	S210208	0.8333333333333334	2	1	2	1	0.6	1150.0000023	1283.3333359	2066.6666708	1933.3333372	Minor	Good_deeds	22	You have started a hotline for victims of bully	C1_51	0.0	Hard	I1_23	55	Teddy Roosevelt was the youngest US President	0.944444444444444	Yes	RIGHT	7.815599999958067	RIGHT	262.31860000007146	LEFT	1611.2977000002502	RIGHT	3110.7293000000027	20.4	0.6	Probable_Truth	LEFT	LEFT	1	543.257000000267	60	2021-02-08 14:51:02.518321
17	Self	S210208	0.6666666666666666	1	2	1	2	0.5	1150.0000023	1066.6666688	1500.000003	2066.6666708	Minor	Good_deeds	49	You have taken part in burglary	C2_42	0.05	Hard	I2_5	15	The Earth turns the closest to the sun in May	0.0	Yes	RIGHT	252.67940000003364	RIGHT	31.343099999958213	LEFT	2511.6699999998677	LEFT	1213.6956999997892	20.9	0.5	Probable_Truth	LEFT	LEFT	2	703.5275999996884	61	2021-02-08 14:51:25.590828
45	Self	S210208	0.8333333333333334	2	1	2	1	0.1	1283.3333359	1350.0000027	1500.000003	2350.0000047	Minor	Good_deeds	17	You have made counterfeit money	C2_17	0.2	Easy	I2_55	28	Mexico's National Day is September 16	0.0	Yes	RIGHT	112.68400000017208	RIGHT	243.65519999992105	LEFT	1378.302000000076	LEFT	823.4461999995801	21.000000000000004	0.1	Probable_Truth	RIGHT	RIGHT	6	605.2273000000241	62	2021-02-08 14:51:47.814236
137	Computer	S210208	0.8333333333333334	2	1	1	2	0.5	1066.6666688	1066.6666688	1500.000003	1500.000003	Major	Good_deeds	19	You have claimed doing things that you never did	C2_46	1.0	Hard	I1_31	31	Cernan was the second last man to walk on the Moon	1.0	No	LEFT	270.7717000002958	LEFT	956.615800000236	LEFT	1134.760599999936	LEFT	1406.416199999967	21.000000000000004	0.5	Probable_Lie	LEFT	RIGHT	1	700.3799925866168	63	2021-02-08 14:52:09.989277
99	Computer	S210208	0.5	1	2	1	2	0.1	1066.6666688	1000.000002	2216.6666711000003	2500.000005	Minor	Good_deeds	60	You have told someone's secret to others	C1_35	0.0	Hard	I2_16	40	Singapore is in Africa	0.944444444444444	No	LEFT	828.498800000034	LEFT	255.9688000001188	LEFT	727.6767000003019	LEFT	854.9576000000343	21.000000000000004	0.1	Probable_Lie	LEFT	RIGHT	1	975.379623481766	64	2021-02-08 14:52:32.973384
60	Self	S210208	0.5	2	1	2	1	0.5	1433.3333362	1216.6666691	2216.6666711000003	1500.000003	Minor	Good_deeds	59	You have started an NGO using your savings	C1_53	0.0	Hard	I2_35	38	The Earth is round	0.0	Yes	RIGHT	89.26910000036514	RIGHT	271.5075999999499	RIGHT	918.5139999999592	LEFT	2335.413199999948	21.500000000000004	0.5	Probable_Truth	LEFT	LEFT	3	1438.351899999816	65	2021-02-08 14:52:56.965955
62	Self	S210208	0.5	2	1	2	1	0.2	1066.6666688	1283.3333359	1650.0000033	2066.6666708	Minor	Wrong_doings	6	You have taken part in violent demonstration	C1_6	0.0	Hard	I1_9	4	Polish is 20th most spoken language in the World	0.888888888888889	No	LEFT	88.76839999993535	RIGHT	751.3458000003084	LEFT	1757.3121999998875	LEFT	1039.9559000002228	21.300000000000004	0.2	Probable_Lie	LEFT	LEFT	6	1362.3101000002862	66	2021-02-08 14:53:20.606897
120	Computer	S210208	0.6666666666666666	2	1	1	2	0.2	1433.3333362	1150.0000023	2350.0000047	1933.3333372	Minor	Good_deeds	47	You have watched an M18 movie when you were underage	C1_3	0.95	Easy	I1_19	42	The Amazon forest covers an area of 1 billion acres	0.722222222222222	No	RIGHT	111.99679999981528	LEFT	809.3776999999136	RIGHT	926.577499999894	LEFT	931.0955000000832	21.300000000000004	0.2	Probable_Truth	RIGHT	RIGHT	6	921.2941319411472	67	2021-02-08 14:53:43.741499
138	Computer	S210208	0.8333333333333334	2	1	1	2	0.8	1350.0000027	1433.3333362	1783.3333369	1933.3333372	Minor	Wrong_doings	40	You have drunk alcohol when you were underage	C2_19	0.55	Hard	I2_28	42	French is Singapore's official language	0.166666666666667	Yes	RIGHT	32.447900000079244	LEFT	791.9693999997435	LEFT	1624.12409999979	LEFT	771.3312000000769	21.300000000000004	0.8	Probable_Truth	RIGHT	RIGHT	5	688.2689733519744	68	2021-02-08 14:54:06.718090
39	Self	S210208	0.8333333333333334	1	2	2	1	0.2	1500.000003	1216.6666691	1650.0000033	2066.6666708	Major	Good_deeds	1	You have extorted money from anyone	C2_43	1.0	Easy	I2_43	13	A caterpillar has more muscle than a human	0.611111111111111	No	RIGHT	254.372400000193	RIGHT	72.06790000009278	LEFT	925.1523000002636	LEFT	800.3206000003047	21.500000000000004	0.2	Probable_Truth	RIGHT	RIGHT	6	561.0372999999527	69	2021-02-08 14:54:28.342581
29	Self	S210208	0.6666666666666666	2	1	2	1	0.7	1433.3333362	1350.0000027	1650.0000033	1783.3333369	Major	Wrong_doings	34	You have fabricated facts about yourself	C2_23	0.0	Easy	I2_42	48	Septicemia is a lung infection condition	0.777777777777778	Yes	RIGHT	80.76799999980722	RIGHT	574.4755000000623	LEFT	1123.8240000002406	LEFT	1856.4434999998407	22.200000000000003	0.7	Probable_Truth	RIGHT	RIGHT	3	608.4453000003123	70	2021-02-08 14:54:51.373105
113	Computer	S210208	0.6666666666666666	1	2	1	2	0.4	1500.000003	1350.0000027	1933.3333372	1933.3333372	Minor	Good_deeds	49	You have taken part in burglary	C2_42	0.05	Hard	I2_5	15	The Earth turns the closest to the sun in May	0.0	Yes	LEFT	402.9681000001801	LEFT	168.79800000015166	LEFT	671.9508999999562	LEFT	1012.3390999997356	22.200000000000003	0.4	Probable_Lie	RIGHT	LEFT	5	620.2043670591643	71	2021-02-08 14:55:13.533771
54	Self	S210208	0.5	1	2	2	1	0.1	1433.3333362	1433.3333362	2350.0000047	2350.0000047	Minor	Good_deeds	18	You have adopted a zero-waste lifestyle	C1_48	0.7	Hard	I1_52	11	December is the last month of the year	0.777777777777778	Yes	LEFT	707.4419999999009	RIGHT	81.10889999989013	RIGHT	1400.0332999999046	RIGHT	1118.777300000147	22.1	0.1	Probable_Lie	LEFT	LEFT	4	860.7829999996284	72	2021-02-08 14:55:37.845807
34	Self	S210208	0.8333333333333334	1	2	1	2	0.7	1216.6666691	1000.000002	2350.0000047	1650.0000033	Minor	Wrong_doings	43	You have given directions to a lost tourist	C1_13	0.0	Hard	I1_36	36	February has 30 days	0.722222222222222	Yes	LEFT	968.7596999997368	RIGHT	137.40150000012363	LEFT	968.0318000000624	RIGHT	1999.1863999998716	21.4	0.7	Probable_Lie	RIGHT	RIGHT	1	474.898999999823	73	2021-02-08 14:56:01.190628
121	Computer	S210208	0.6666666666666666	2	1	1	2	0.5	1000.000002	1000.000002	1500.000003	1650.0000033	Minor	Good_deeds	30	You have a non-judgmental attitude towards everyone	C1_57	0.25	Easy	I1_44	44	There is typically 0.6 grams of mercury in glass thermometer	0.833333333333333	No	RIGHT	87.16019999974378	LEFT	959.244099999978	LEFT	1391.6690999999446	RIGHT	1542.258700000275	21.4	0.5	Probable_Lie	LEFT	LEFT	3	795.4731119430728	74	2021-02-08 14:56:23.693449
140	Computer	S210208	0.8333333333333334	2	1	2	1	0.3	1150.0000023	1000.000002	2066.6666708	1650.0000033	Major	Wrong_doings	42	You have kept your promises	C1_22	0.05	Easy	I1_42	2	Kangaroos live in Africa	0.833333333333333	No	RIGHT	113.15400000012232	LEFT	600.9673000003204	RIGHT	984.5871000002262	RIGHT	832.3996999997689	21.4	0.3	Probable_Lie	LEFT	LEFT	2	512.0191499588727	75	2021-02-08 14:56:45.181984
53	Self	S210208	0.5	1	2	2	1	0.6	1066.6666688	1350.0000027	1650.0000033	1650.0000033	Minor	Wrong_doings	37	You have done something against your values	C2_37	0.05	Easy	I1_21	40	"Statue of Liberty is 151 feet tall"	0.0	No	LEFT	686.5247000000636	RIGHT	104.54230000004829	RIGHT	1798.9950999999564	LEFT	1495.6915000002482	20.8	0.6	Probable_Lie	LEFT	LEFT	4	2086.0225999999784	76	2021-02-08 14:57:09.645488
52	Self	S210208	0.5	1	2	2	1	0.8	1000.000002	1066.6666688	2500.000005	2500.000005	Minor	Wrong_doings	48	You have complimented others for good work	C2_38	0.0	Hard	I2_6	34	Animals are living things	0.944444444444444	Yes	RIGHT	371.2715000001481	RIGHT	88.9287999998487	RIGHT	791.1874000001262	RIGHT	831.6796999997678	21.6	0.8	Probable_Truth	LEFT	LEFT	2	1175.3812000001744	77	2021-02-08 14:57:32.549779
107	Computer	S210208	0.5	2	1	1	2	0.4	1433.3333362	1066.6666688	1933.3333372	2066.6666708	Major	Good_deeds	50	You have sorted your trash into recycling bin	C2_6	0.95	Hard	I1_14	49	Slavery was abolished in Cuba in 1886	0.0	No	RIGHT	95.41870000020936	LEFT	544.2352999998548	LEFT	1008.3620999998856	RIGHT	727.384499999971	21.6	0.4	Probable_Truth	RIGHT	LEFT	1	870.0011085393573	78	2021-02-08 14:57:54.861429
26	Self	S210208	0.6666666666666666	2	1	1	2	0.8	1216.6666691	1433.3333362	2350.0000047	1500.000003	Major	Wrong_doings	24	You have followed instructions	C2_30	0.5	Hard	I2_33	33	Christmas Day is in March	0.0	No	RIGHT	32.29319999991276	RIGHT	227.05150000001595	LEFT	944.3339999997988	RIGHT	836.8705999996564	22.4	0.8	Probable_Truth	LEFT	LEFT	2	581.546200000048	79	2021-02-08 14:58:16.557268
98	Computer	S210208	0.5	1	2	1	2	0.2	1350.0000027	1500.000003	2500.000005	2216.6666711000003	Minor	Wrong_doings	27	You have helped with household chores	C2_35	1.0	Hard	I2_40	53	The hardest bone in human body is the jawbone	0.0	Yes	RIGHT	977.3639999998522	LEFT	272.38400000032925	LEFT	791.3680999999997	RIGHT	737.895700000081	22.4	0.2	Probable_Truth	RIGHT	RIGHT	6	924.3283644021748	80	2021-02-08 14:58:40.390179
7	Self	S210208	0.5	1	2	2	1	0.3	1350.0000027	1216.6666691	2066.6666708	2066.6666708	Major	Wrong_doings	12	You have kidnapped someone	C2_11	0.45	Easy	I2_26	24	Bears have the biggest eyes among mammals	0.611111111111111	Yes	RIGHT	230.1324999998542	RIGHT	96.83240000003934	LEFT	1719.5309999997337	LEFT	927.5090000001	22.700000000000003	0.3	Probable_Truth	LEFT	RIGHT	4	902.7599999999438	81	2021-02-08 14:59:03.542046
124	Computer	S210208	0.6666666666666666	2	1	2	1	0.3	1350.0000027	1433.3333362	2500.000005	2066.6666708	Major	Good_deeds	3	You have bought cigarettes for a minor	C1_24	0.05	Easy	I2_59	29	A dog has four legs	0.111111111111111	Yes	RIGHT	128.37179999996806	LEFT	848.138199999994	RIGHT	729.6282000002066	LEFT	719.8275999999169	22.700000000000003	0.3	Probable_Truth	RIGHT	RIGHT	3	591.4795819170813	82	2021-02-08 14:59:26.469643
92	Self	S210208	0.8333333333333334	2	1	2	1	0.1	1500.000003	1433.3333362	1933.3333372	2066.6666708	Minor	Good_deeds	25	You have participated in a scamming business	C1_38	1.0	Easy	I2_46	58	There are 20 bones in the human skull	0.0555555555555556	No	RIGHT	16.670299999987037	RIGHT	339.59150000009686	LEFT	1229.353700000047	LEFT	1248.2179999997245	22.800000000000004	0.1	Probable_Truth	RIGHT	RIGHT	2	498.3337999997275	83	2021-02-08 14:59:49.309469
58	Self	S210208	0.5	2	1	1	2	0.7	1000.000002	1433.3333362	2500.000005	2500.000005	Major	Wrong_doings	46	You have watched a pirated movie	C2_59	0.75	Easy	I1_33	2	Chickens lay eggs	0.888888888888889	No	LEFT	136.336399999891	RIGHT	1036.2620999999308	RIGHT	760.7557999999699	LEFT	908.3513000000494	22.100000000000005	0.7	Probable_Lie	RIGHT	LEFT	5	2196.754900000087	84	2021-02-08 15:00:14.357964
130	Computer	S210208	0.8333333333333334	1	2	1	2	0.4	1433.3333362	1350.0000027	1500.000003	2216.6666711000003	Minor	Wrong_doings	43	You have given directions to a lost tourist	C1_13	0.0	Hard	I1_36	36	February has 30 days	0.722222222222222	Yes	RIGHT	770.592299999862	LEFT	447.6511999996546	LEFT	751.9528000002538	RIGHT	864.6143999999367	22.100000000000005	0.4	Probable_Truth	RIGHT	LEFT	1	902.1627055185306	85	2021-02-08 15:00:37.164857
106	Computer	S210208	0.5	2	1	1	2	0.6	1500.000003	1283.3333359	2350.0000047	2500.000005	Major	Good_deeds	20	You have illegally stayed in a country	C2_2	0.1	Hard	I1_37	12	Fishes can swim in water	0.0	Yes	LEFT	128.9878000002318	LEFT	1204.3518000000404	RIGHT	768.5722999999598	LEFT	939.9477000001752	22.100000000000005	0.6	Probable_Lie	RIGHT	RIGHT	2	843.9564480629713	86	2021-02-08 15:01:01.262648
33	Self	S210208	0.8333333333333334	1	2	1	2	0.8	1150.0000023	1500.000003	1500.000003	2216.6666711000003	Minor	Wrong_doings	53	You have helped a friend in need	C2_16	0.05	Hard	I1_13	32	Today is a weekday	0.0	Yes	RIGHT	221.026300000176	RIGHT	25.28380000012476	RIGHT	752.7479000000312	RIGHT	903.3626000000368	22.90000000000001	0.8	Probable_Truth	LEFT	LEFT	1	587.1276000002581	87	2021-02-08 15:01:22.693703
103	Computer	S210208	0.5	1	2	2	1	0.8	1216.6666691	1066.6666688	1500.000003	2350.0000047	Major	Wrong_doings	12	You have kidnapped someone	C2_11	0.45	Easy	I2_26	24	Bears have the biggest eyes among mammals	0.611111111111111	Yes	RIGHT	1426.1946999999964	LEFT	95.6269000002976	LEFT	1203.5466000002089	LEFT	696.5076999999837	22.90000000000001	0.8	Probable_Lie	RIGHT	RIGHT	3	865.9079024196204	88	2021-02-08 15:01:45.684967
14	Self	S210208	0.5	2	1	2	1	0.8	1350.0000027	1216.6666691	2500.000005	1933.3333372	Minor	Good_deeds	58	You have stopped using products tested on animals	C1_50	0.85	Easy	I1_46	45	Obama is the USA president now	0.888888888888889	Yes	LEFT	103.8004999995792	RIGHT	812.6812000000427	LEFT	1066.9432999998207	RIGHT	1879.9440000002503	22.100000000000005	0.8	Probable_Lie	RIGHT	RIGHT	2	1559.882100000323	89	2021-02-08 15:02:10.686071
40	Self	S210208	0.8333333333333334	2	1	1	2	0.7	1500.000003	1433.3333362	1933.3333372	2500.000005	Major	Wrong_doings	46	You have engaged in underage smoking	C2_40	0.85	Hard	I1_10	23	Algeria is Africa's second largest country	0.0	Yes	RIGHT	80.28830000012022	RIGHT	508.8364000002912	LEFT	1503.805300000295	LEFT	899.7455000003356	22.800000000000004	0.7	Probable_Lie	LEFT	LEFT	2	543.666999999914	90	2021-02-08 15:02:34.165560
38	Self	S210208	0.8333333333333334	1	2	2	1	0.3	1000.000002	1433.3333362	1783.3333369	2500.000005	Minor	Wrong_doings	43	You have rescued others from a catastrophe	C2_53	1.0	Easy	I2_27	6	Africa is the continent with the least rainfall	0.0	No	RIGHT	225.68309999996927	RIGHT	151.83879999995042	LEFT	989.1242999997304	RIGHT	1143.1592000003548	23.100000000000005	0.3	Probable_Truth	RIGHT	RIGHT	4	580.8729999998832	91	2021-02-08 15:02:56.549710
13	Self	S210208	0.5	2	1	2	1	0.7	1216.6666691	1350.0000027	1933.3333372	2216.6666711000003	Minor	Wrong_doings	6	You have cursed at others	C1_17	0.85	Easy	I2_49	38	Feijoa is a type of grape	0.833333333333333	No	RIGHT	9.347400000024209	RIGHT	69.51260000005277	RIGHT	1205.6118000000424	LEFT	664.7603999999774	23.800000000000004	0.7	Probable_Truth	RIGHT	RIGHT	6	1508.679100000336	92	2021-02-08 15:03:19.301789
49	Self	S210208	0.5	1	2	1	2	0.5	1283.3333359	1283.3333359	1500.000003	2216.6666711000003	Major	Good_deeds	9	You have blackmailed others for money	C1_30	0.0	Easy	I2_8	21	Saturn's rings are between 30 and 300 feet thick	0.0	No	RIGHT	236.02279999977327	RIGHT	446.7273999998724	LEFT	1191.890499999772	LEFT	786.2462000002779	24.300000000000004	0.5	Probable_Truth	RIGHT	LEFT	3	1006.6145999999208	93	2021-02-08 15:03:41.829958
1	Self	S210208	0.5	1	2	1	2	0.8	1500.000003	1150.0000023	1933.3333372	1650.0000033	Major	Wrong_doings	57	You have been physically hurt to protect others	C1_60	0.0	Hard	I1_4	4	Red is a color	0.666666666666667	Yes	LEFT	706.917599999997	RIGHT	184.21659999967235	RIGHT	911.566600000242	RIGHT	1710.5935000004138	23.500000000000004	0.8	Probable_Lie	LEFT	RIGHT	3	2370.770999999877	94	2021-02-08 15:04:06.525369
116	Computer	S210208	0.6666666666666666	1	2	2	1	0.5	1283.3333359	1283.3333359	1500.000003	2066.6666708	Minor	Wrong_doings	60	You have organized a violent protest	C2_24	0.0	Hard	I2_54	26	The human's inner ear is larger than a pencil eraser	0.777777777777778	No	RIGHT	616.0290999996505	LEFT	136.4294999998492	RIGHT	3901.373799999874	LEFT	1326.9866999999067	23.500000000000004	0.5	Probable_Truth	RIGHT	LEFT	2	560.4122465637968	95	2021-02-08 15:04:31.780681
44	Self	S210208	0.8333333333333334	2	1	2	1	0.8	1433.3333362	1066.6666688	1650.0000033	2066.6666708	Major	Wrong_doings	42	You have kept your promises	C1_22	0.05	Easy	I1_42	2	Kangaroos live in Africa	0.833333333333333	No	RIGHT	39.79990000016187	RIGHT	263.19729999977426	RIGHT	887.2906000001421	RIGHT	679.9909000001207	24.300000000000004	0.8	Probable_Truth	RIGHT	RIGHT	3	683.5155999997369	96	2021-02-08 15:05:33.573250
31	Self	S210208	0.6666666666666666	2	1	2	1	0.6	1000.000002	1500.000003	1933.3333372	1933.3333372	Major	Wrong_doings	23	You have engaged in arson	C2_47	0.0	Hard	I2_39	19	It takes 500 days to travel from Earth to Mars	0.0	Yes	RIGHT	120.2344000002995	RIGHT	443.61639999988256	LEFT	1973.8149999998316	LEFT	1048.508800000036	24.90000000000001	0.6	Probable_Truth	RIGHT	RIGHT	3	882.1990999999798	97	2021-02-08 15:05:56.981298
75	Self	S210208	0.6666666666666666	2	1	1	2	0.6	1216.6666691	1150.0000023	1650.0000033	2216.6666711000003	Minor	Good_deeds	59	You have confessed to your mistake	C1_8	1.0	Easy	I2_30	39	Airbags in cars are filled with sodium azide	0.0	Yes	Time_Max_Exceeded	5000.187499999811	LEFT	605.297800000244	LEFT	1911.6094000000885	RIGHT	1944.6391999999832	24.90000000000001	0.6	Probable_Lie	RIGHT	RIGHT	2	511.36369999994713	98	2021-02-08 15:06:25.764929
136	Computer	S210208	0.8333333333333334	2	1	1	2	0.4	1500.000003	1350.0000027	1933.3333372	2216.6666711000003	Major	Wrong_doings	46	You have engaged in underage smoking	C2_40	0.85	Hard	I1_10	23	Algeria is Africa's second largest country	0.0	Yes	LEFT	713.5018999997556	RIGHT	3616.047299999991	LEFT	1015.02070000015	LEFT	857.5349999996433	24.500000000000007	0.4	Probable_Truth	LEFT	LEFT	1	987.7991732610363	99	2021-02-08 15:06:52.516994
117	Computer	S210208	0.6666666666666666	1	2	2	1	0.6	1350.0000027	1150.0000023	2216.6666711000003	1650.0000033	Major	Wrong_doings	1	You have stopped using plastics completely	C1_58	1.0	Easy	I1_15	5	Most plants emit oxygen in the day	0.0	No	LEFT	1233.809199999996	RIGHT	367.7810999997746	RIGHT	1695.3906999997344	RIGHT	2103.916300000037	23.90000000000001	0.6	Probable_Lie	LEFT	LEFT	4	887.0555666919205	100	2021-02-08 15:07:17.740834
20	Self	S210208	0.6666666666666666	1	2	2	1	0.7	1500.000003	1433.3333362	2066.6666708	2500.000005	Minor	Wrong_doings	60	You have organized a violent protest	C2_24	0.0	Hard	I2_54	26	The human's inner ear is larger than a pencil eraser	0.777777777777778	No	RIGHT	220.4169000001457	RIGHT	39.73990000031336	RIGHT	1363.1056999997782	LEFT	688.5667999999896	24.600000000000005	0.7	Probable_Truth	LEFT	LEFT	2	586.2942000003386	101	2021-02-08 15:07:40.718073
16	Self	S210208	0.6666666666666666	1	2	1	2	0.2	1066.6666688	1283.3333359	1650.0000033	1500.000003	Minor	Good_deeds	28	You have volunteered for a disaster-related humanitarian mission	C2_60	1.0	Hard	I2_25	47	Nanyang Technological University is in Australia	0.666666666666667	Yes	RIGHT	648.3881000003748	RIGHT	30.53150000005189	LEFT	1080.4755999997724	RIGHT	1515.7325000000128	24.800000000000004	0.2	Probable_Truth	LEFT	LEFT	1	510.93260000016016	102	2021-02-08 15:08:02.580828
141	Computer	S210208	0.8333333333333334	2	1	2	1	0.6	1000.000002	1283.3333359	2216.6666711000003	2350.0000047	Minor	Good_deeds	17	You have made counterfeit money	C2_17	0.2	Easy	I2_55	28	Mexico's National Day is September 16	0.0	Yes	RIGHT	207.40529999966384	LEFT	756.0266000000411	LEFT	1203.0203999997866	LEFT	872.5869999998395	24.800000000000004	0.6	Probable_Truth	RIGHT	RIGHT	4	933.3607988828136	103	2021-02-08 15:08:25.972819
78	Self	S210208	0.6666666666666666	2	1	2	1	0.7	1433.3333362	1000.000002	2500.000005	1783.3333369	Minor	Good_deeds	8	You have engaged in money laundering	C2_3	0.0	Easy	I2_11	30	North Korea is more developed than South Korea	0.0	No	RIGHT	56.46690000003218	RIGHT	244.51410000028773	LEFT	1251.1038999996345	LEFT	752.2688999997627	25.500000000000004	0.7	Probable_Truth	LEFT	LEFT	2	535.0852999999915	104	2021-02-08 15:08:48.100144
87	Self	S210208	0.8333333333333334	1	2	2	1	0.8	1500.000003	1500.000003	2066.6666708	2216.6666711000003	Minor	Good_deeds	14	You have helped others to pick up their belongings	C2_10	1.0	Easy	I2_17	5	Nomophobia is the fear of being without a phone or computer	0.666666666666667	No	RIGHT	261.2190000004375	RIGHT	0.9723999996822386	LEFT	1748.023699999976	RIGHT	1119.7351999999228	26.300000000000004	0.8	Probable_Truth	RIGHT	RIGHT	6	606.0542000000169	105	2021-02-08 15:09:11.700525
128	Computer	S210208	0.8333333333333334	1	2	1	2	0.7	1283.3333359	1216.6666691	2066.6666708	2066.6666708	Major	Good_deeds	13	You have sign up to sponsor a needy child	C2_20	0.7	Hard	I1_32	43	China is a part of Asia	1.0	No	LEFT	687.4056000001474	LEFT	119.15389999967374	LEFT	751.7256000000998	RIGHT	1222.3571999998055	26.300000000000004	0.7	Probable_Lie	RIGHT	LEFT	6	766.5198163884324	106	2021-02-08 15:09:34.453233
46	Self	S210208	0.8333333333333334	2	1	2	1	0.4	1216.6666691	1500.000003	1783.3333369	1783.3333369	Major	Wrong_doings	9	You have offered a listening ear to a friend	C1_9	0.55	Easy	I2_2	31	Beef comes from cows	1.0	No	RIGHT	32.56699999974444	RIGHT	211.5262000002076	RIGHT	1019.6485000001304	RIGHT	1215.8695000002808	26.700000000000003	0.4	Probable_Truth	LEFT	LEFT	1	576.1707000001479	107	2021-02-08 15:09:56.366037
125	Computer	S210208	0.6666666666666666	2	1	2	1	0.7	1500.000003	1283.3333359	2216.6666711000003	2350.0000047	Major	Wrong_doings	34	You have fabricated facts about yourself	C2_23	0.0	Easy	I2_42	48	Septicemia is a lung infection condition	0.777777777777778	Yes	LEFT	105.10429999976624	LEFT	260.3988000000754	LEFT	962.913899999876	LEFT	1055.5936000000656	26.700000000000003	0.7	Probable_Lie	RIGHT	RIGHT	1	762.5461115013695	108	2021-02-08 15:10:19.436572
6	Self	S210208	0.5	1	2	2	1	0.2	1000.000002	1000.000002	1500.000003	1933.3333372	Major	Good_deeds	19	You have held the elevator doors for others	C2_57	0.8	Hard	I1_53	26	Beer is an alcoholic drink	0.0555555555555556	Yes	RIGHT	253.38670000019192	RIGHT	16.931399999975838	LEFT	916.7600999999196	RIGHT	1016.4117000003898	26.9	0.2	Probable_Truth	LEFT	LEFT	1	1005.927100000008	109	2021-02-08 15:10:40.652633
143	Computer	S210208	0.8333333333333334	2	1	2	1	0.1	1283.3333359	1500.000003	1650.0000033	1783.3333369	Minor	Good_deeds	22	You have started a hotline for victims of bully	C1_51	0.0	Hard	I1_23	55	Teddy Roosevelt was the youngest US President	0.944444444444444	Yes	RIGHT	200.855799999772	LEFT	878.9119999996728	LEFT	1604.035500000009	RIGHT	1368.541699999696	26.9	0.1	Probable_Truth	RIGHT	RIGHT	3	674.0613594763771	110	2021-02-08 15:11:04.157778
55	Self	S210208	0.5	1	2	2	1	0.2	1350.0000027	1500.000003	1783.3333369	1933.3333372	Major	Wrong_doings	30	You have engaged in drink-driving	C1_40	0.05	Easy	I2_1	6	Last day of the year is 30th December	0.833333333333333	Yes	RIGHT	250.5191999998715	RIGHT	40.1267000002008	RIGHT	2635.9597999999096	LEFT	2175.5075999999463	27.1	0.2	Probable_Truth	LEFT	RIGHT	5	818.0642000002081	111	2021-02-08 15:11:29.220790
25	Self	S210208	0.6666666666666666	2	1	1	2	0.4	1066.6666688	1066.6666688	2500.000005	2216.6666711000003	Minor	Good_deeds	30	You have a non-judgmental attitude towards everyone	C1_57	0.25	Easy	I1_44	44	There is typically 0.6 grams of mercury in glass thermometer	0.833333333333333	No	RIGHT	422.8357000001779	RIGHT	261.58699999996315	LEFT	711.4022999999179	RIGHT	1104.8768000000564	27.5	0.4	Probable_Truth	LEFT	LEFT	1	460.6212999997297	112	2021-02-08 15:11:51.612263
11	Self	S210208	0.5	2	1	1	2	0.5	1150.0000023	1150.0000023	2350.0000047	2500.000005	Major	Good_deeds	50	You have sorted your trash into recycling bin	C2_6	0.95	Hard	I1_14	49	Slavery was abolished in Cuba in 1886	0.0	No	RIGHT	47.41280000007464	RIGHT	289.85329999977694	LEFT	760.4290999997829	RIGHT	2390.072900000177	28.0	0.5	Probable_Truth	RIGHT	RIGHT	6	1400.943300000108	113	2021-02-08 15:12:16.229030
91	Self	S210208	0.8333333333333334	2	1	1	2	0.8	1283.3333359	1500.000003	1783.3333369	2216.6666711000003	Major	Good_deeds	48	You have sheltered others from disasters	C1_27	0.9	Easy	I1_25	41	It sometimes snows in Singapore	0.0	No	RIGHT	79.92809999996098	RIGHT	290.77060000008714	LEFT	814.9116999998114	RIGHT	1093.427299999803	28.8	0.8	Probable_Truth	RIGHT	RIGHT	4	497.4560999999085	114	2021-02-08 15:12:38.364116
94	Self	S210208	0.8333333333333334	2	1	2	1	0.4	1433.3333362	1216.6666691	2066.6666708	2500.000005	Minor	Wrong_doings	14	You have shown your appreciation to your teachers	C1_5	0.85	Hard	I2_41	57	Singapore ranked 8th in World's smallest countries	0.777777777777778	Yes	LEFT	105.2282999999079	RIGHT	853.604500000074	LEFT	1949.2255999998636	RIGHT	1023.8837000001696	28.4	0.4	Probable_Lie	RIGHT	RIGHT	1	445.218400000158	115	2021-02-08 15:13:02.532328
142	Computer	S210208	0.8333333333333334	2	1	2	1	0.2	1216.6666691	1150.0000023	2350.0000047	2066.6666708	Major	Wrong_doings	9	You have offered a listening ear to a friend	C1_9	0.55	Easy	I2_2	31	Beef comes from cows	1.0	No	RIGHT	128.19900000022244	LEFT	659.0333000003739	RIGHT	726.9658999998683	RIGHT	687.637900000027	28.4	0.2	Probable_Truth	RIGHT	RIGHT	3	511.6490702613045	116	2021-02-08 15:13:24.604259
90	Self	S210208	0.8333333333333334	2	1	1	2	0.3	1150.0000023	1000.000002	2500.000005	1500.000003	Minor	Good_deeds	5	You have said sorry when you were rude	C2_14	0.0	Hard	I2_50	25	Vegetarians can eat vegetable products	0.888888888888889	No	RIGHT	39.927999999690655	RIGHT	389.56759999973656	RIGHT	2079.960600000049	RIGHT	1772.894599999745	28.700000000000003	0.3	Probable_Truth	LEFT	LEFT	1	479.3680999996468	117	2021-02-08 15:13:48.092668
70	Self	S210208	0.6666666666666666	1	2	2	1	0.1	1066.6666688	1433.3333362	2216.6666711000003	2500.000005	Minor	Good_deeds	4	You have been convicted in court	C1_4	0.0	Hard	I2_53	3	The Eiffel Tower is in Paris	0.0	No	RIGHT	208.539600000222	RIGHT	464.349399999719	RIGHT	1038.4758000000147	LEFT	797.5275000003421	28.800000000000004	0.1	Probable_Truth	LEFT	LEFT	1	454.7341000002234	118	2021-02-08 15:14:10.852128
127	Computer	S210208	0.6666666666666666	2	1	2	1	0.6	1283.3333359	1216.6666691	1650.0000033	2500.000005	Major	Wrong_doings	23	You have engaged in arson	C2_47	0.0	Hard	I2_39	19	It takes 500 days to travel from Earth to Mars	0.0	Yes	RIGHT	143.9200000004348	LEFT	576.2898000002679	LEFT	839.0441999999894	LEFT	992.498500000238	28.800000000000004	0.6	Probable_Truth	LEFT	LEFT	1	824.0519471062922	119	2021-02-08 15:14:33.444979
77	Self	S210208	0.6666666666666666	2	1	2	1	0.8	1350.0000027	1433.3333362	2066.6666708	2066.6666708	Major	Good_deeds	16	You have deceived a loved one	C2_28	0.2	Hard	I1_28	48	Summer is hotter than winter	0.888888888888889	Yes	LEFT	64.4561999997677	RIGHT	574.7972999997728	RIGHT	1319.934099999955	LEFT	1559.331899999961	28.000000000000004	0.8	Probable_Lie	RIGHT	RIGHT	2	463.4409000000233	120	2021-02-08 15:14:56.916538
115	Computer	S210208	0.6666666666666666	1	2	1	2	0.3	1066.6666688	1500.000003	2500.000005	2500.000005	Minor	Wrong_doings	29	You have pretended to be busy to avoid a social situation	C1_28	0.0	Hard	I1_47	25	Singapore is a country	0.0	Yes	RIGHT	748.057499999959	LEFT	145.41189999999915	RIGHT	680.07149999994	LEFT	1571.5933000001314	28.000000000000004	0.3	Probable_Lie	LEFT	LEFT	3	935.7249242714172	121	2021-02-08 15:15:21.131279
102	Computer	S210208	0.5	1	2	2	1	0.5	1150.0000023	1216.6666691	1933.3333372	1500.000003	Major	Good_deeds	19	You have held the elevator doors for others	C2_57	0.8	Hard	I1_53	26	Beer is an alcoholic drink	0.0555555555555556	Yes	LEFT	728.8377999998374	LEFT	208.77859999973225	LEFT	1029.19380000003	RIGHT	792.7780999998504	28.000000000000004	0.5	Probable_Lie	RIGHT	LEFT	6	838.2018741887359	122	2021-02-08 15:15:43.092968
114	Computer	S210208	0.6666666666666666	1	2	1	2	0.8	1150.0000023	1433.3333362	2350.0000047	2350.0000047	Major	Good_deeds	58	You have lied to your parents	C2_1	0.0	Easy	I1_26	51	Marijuana is legal in Singapore	0.944444444444444	No	LEFT	270.2417000000424	LEFT	88.69819999972606	LEFT	847.8408000000854	LEFT	915.682299999844	28.000000000000004	0.8	Probable_Lie	RIGHT	RIGHT	1	785.1209541551825	123	2021-02-08 15:16:05.852270
21	Self	S210208	0.6666666666666666	1	2	2	1	0.4	1350.0000027	1150.0000023	1933.3333372	1933.3333372	Major	Wrong_doings	1	You have stopped using plastics completely	C1_58	1.0	Easy	I1_15	5	Most plants emit oxygen in the day	0.0	No	RIGHT	291.7806999998902	RIGHT	88.33580000009533	RIGHT	1030.524300000252	RIGHT	1032.3881999997866	28.4	0.4	Probable_Lie	LEFT	LEFT	3	547.0030000001316	124	2021-02-08 15:16:27.780507
5	Self	S210208	0.5	1	2	2	1	0.7	1066.6666688	1066.6666688	2500.000005	2500.000005	Major	Wrong_doings	11	You have cheated on a test	C1_12	0.45	Easy	I1_24	16	Penguin can fly with their wings	0.666666666666667	No	LEFT	925.4410999997162	RIGHT	175.93929999975444	LEFT	789.3564999999398	LEFT	767.5854999997682	27.700000000000003	0.7	Probable_Lie	LEFT	LEFT	4	1575.4839000001084	125	2021-02-08 15:16:51.724679
105	Computer	S210208	0.5	2	1	1	2	0.7	1066.6666688	1500.000003	2216.6666711000003	1783.3333369	Major	Good_deeds	2	You have taken responsibility for your actions	C2_58	0.0	Easy	I2_45	37	It is 20th Century now	0.0555555555555556	Yes	RIGHT	24.61090000042532	LEFT	826.2691999998424	LEFT	1167.801099999906	RIGHT	937.7594000002318	27.700000000000003	0.7	Probable_Truth	RIGHT	LEFT	3	548.0186811821063	126	2021-02-08 15:17:14.372755
118	Computer	S210208	0.6666666666666666	1	2	2	1	0.2	1216.6666691	1066.6666688	2066.6666708	2216.6666711000003	Major	Wrong_doings	24	You have given way to the handicapped	C1_49	1.0	Easy	I2_51	35	The hyoid bone is the only jointless bone	0.0555555555555556	No	LEFT	949.7237000000496	LEFT	271.5643000001364	LEFT	1386.357699999735	RIGHT	838.9440999999351	27.700000000000003	0.2	Probable_Lie	RIGHT	LEFT	6	892.7258569953269	127	2021-02-08 15:17:37.860431
12	Self	S210208	0.5	2	1	2	1	0.4	1066.6666688	1000.000002	1783.3333369	1650.0000033	Minor	Wrong_doings	17	You have gossiped about your best friend	C1_44	0.55	Hard	I1_12	46	The Franco-Prussian War occurred in the 19th century	1.0	No	RIGHT	54.793700000118406	RIGHT	1.7335000002276502	LEFT	1956.477499999892	LEFT	872.1371999999974	28.1	0.4	Probable_Truth	LEFT	RIGHT	5	1431.8856999998388	128	2021-02-08 15:18:00.260724
123	Computer	S210208	0.6666666666666666	2	1	1	2	0.8	1150.0000023	1500.000003	2066.6666708	2216.6666711000003	Minor	Wrong_doings	36	You have helped your parents when asked to	C1_36	1.0	Hard	I1_29	39	Cheese is an Asian staple	0.944444444444444	No	LEFT	49.17199999999866	LEFT	227.8825999997025	LEFT	952.3384999997688	RIGHT	1359.0954999999667	28.1	0.8	Probable_Lie	RIGHT	LEFT	6	925.6873044368745	129	2021-02-08 15:18:23.268553
85	Self	S210208	0.8333333333333334	1	2	2	1	0.3	1000.000002	1150.0000023	1650.0000033	1783.3333369	Major	Good_deeds	10	You have taken months off to volunteer	C2_7	0.05	Easy	I1_5	41	Mageirocophobia is a fear of deathly disease	0.944444444444444	Yes	RIGHT	47.8515999998308	RIGHT	33.52570000015476	LEFT	1097.664899999927	RIGHT	1343.5638999999355	28.4	0.3	Probable_Truth	RIGHT	RIGHT	4	607.6266000000032	130	2021-02-08 15:18:44.556886
83	Self	S210208	0.8333333333333334	1	2	1	2	0.5	1350.0000027	1350.0000027	1933.3333372	1500.000003	Minor	Wrong_doings	50	You have said thank you when you have received help	C1_37	0.95	Hard	I1_41	17	A triangle has three sides	0.0	Yes	RIGHT	204.71820000011576	RIGHT	8.050899999943795	RIGHT	928.0167000001712	RIGHT	971.545000000333	28.9	0.5	Probable_Truth	RIGHT	RIGHT	6	648.6424000004263	131	2021-02-08 15:19:06.028486
95	Self	S210208	0.8333333333333334	2	1	2	1	0.7	1350.0000027	1150.0000023	1650.0000033	1933.3333372	Major	Good_deeds	34	You have been sued	C2_39	0.0	Easy	I1_58	50	Arabi is the oldest surviving breed of horse	0.0	No	LEFT	160.1858000003631	RIGHT	581.7157999999836	LEFT	2204.472899999928	LEFT	1096.6969999999492	28.200000000000003	0.7	Probable_Lie	RIGHT	RIGHT	1	392.496200000096	132	2021-02-08 15:19:29.124142
69	Self	S210208	0.6666666666666666	1	2	2	1	0.8	1000.000002	1066.6666688	2500.000005	1783.3333369	Minor	Wrong_doings	31	You have let a homeless man into your house	C1_11	0.85	Easy	I2_18	60	There are 30 hours in a day	0.888888888888889	No	LEFT	1102.2714999999152	RIGHT	600.3884000001563	LEFT	936.6476999998667	LEFT	2519.300200000089	27.4	0.8	Probable_Lie	RIGHT	RIGHT	1	395.230999999967	133	2021-02-08 15:19:53.603452
86	Self	S210208	0.8333333333333334	1	2	2	1	0.2	1283.3333359	1216.6666691	1500.000003	1650.0000033	Major	Wrong_doings	37	You have cheated on a national exam	C2_33	0.05	Hard	I1_17	58	Singapore is a poor country	0.722222222222222	No	LEFT	842.6877000001696	RIGHT	472.080300000016	LEFT	1016.428399999768	LEFT	901.527299999998	27.200000000000003	0.2	Probable_Lie	RIGHT	RIGHT	1	513.5525000000598	134	2021-02-08 15:20:15.580985
73	Self	S210208	0.6666666666666666	2	1	1	2	0.3	1000.000002	1066.6666688	2350.0000047	2350.0000047	Minor	Wrong_doings	3	You have volunteered every week for many years	C2_45	0.85	Hard	I2_60	54	Fibers in oranges can be used to make fabric	0.833333333333333	Yes	RIGHT	14.990699999543722	RIGHT	219.6721999998772	RIGHT	1615.4707000005146	RIGHT	1442.3712999996496	27.500000000000004	0.3	Probable_Truth	LEFT	LEFT	1	649.2988999998488	135	2021-02-08 15:20:38.868109
15	Self	S210208	0.5	2	1	2	1	0.3	1500.000003	1283.3333359	1500.000003	1783.3333369	Major	Wrong_doings	44	You have risked your life to save another person's life	C1_20	0.0	Hard	I2_38	52	Afghan Hound is the first cloned cat	0.0	No	RIGHT	144.7160999996413	RIGHT	349.55710000031104	LEFT	1497.169600000234	RIGHT	952.1531999998842	27.800000000000004	0.3	Probable_Truth	RIGHT	LEFT	1	621.5136999999231	136	2021-02-08 15:21:01.077037
119	Computer	S210208	0.6666666666666666	1	2	2	1	0.7	1000.000002	1000.000002	1650.0000033	1500.000003	Major	Good_deeds	42	You have queued to enter the MRT train	C1_29	0.95	Easy	I1_35	54	The first Grammy awards was held in 1959	0.944444444444444	Yes	LEFT	732.5169999994614	LEFT	40.04110000005312	LEFT	932.8272000002472	RIGHT	839.9436999998215	27.800000000000004	0.7	Probable_Lie	RIGHT	RIGHT	2	933.8351896704798	137	2021-02-08 15:21:22.276565
61	Self	S210208	0.5	2	1	2	1	0.8	1150.0000023	1500.000003	1933.3333372	2216.6666711000003	Major	Wrong_doings	8	You have been arrested	C2_8	0.0	Easy	I2_4	33	Dutch is the 6th Europe's most widely spoken language	0.0	No	RIGHT	105.16200000074603	RIGHT	228.504000000612	LEFT	1296.7934999996942	LEFT	799.367099999472	28.600000000000005	0.8	Probable_Truth	RIGHT	RIGHT	5	1253.3164000005854	138	2021-02-08 15:21:45.331634
35	Self	S210208	0.8333333333333334	1	2	1	2	0.5	1433.3333362	1066.6666688	2216.6666711000003	1500.000003	Major	Wrong_doings	47	You have cursed at your loved ones	C1_1	0.05	Hard	I1_6	36	Singapore has four seasons	0.722222222222222	Yes	RIGHT	232.4883999999656	RIGHT	311.82059999991907	LEFT	775.9363999994093	LEFT	839.0620999998646	29.100000000000005	0.5	Probable_Lie	LEFT	LEFT	4	539.4335999999385	139	2021-02-08 15:22:06.821583
97	Computer	S210208	0.5	1	2	1	2	0.7	1433.3333362	1350.0000027	1650.0000033	2066.6666708	Major	Wrong_doings	57	You have been physically hurt to protect others	C1_60	0.0	Hard	I1_4	4	Red is a color	0.666666666666667	Yes	RIGHT	469.2717999996603	LEFT	1.4271000000007916	RIGHT	768.6851000007664	RIGHT	2300.532799999928	29.100000000000005	0.7	Probable_Truth	LEFT	RIGHT	4	857.2184721019764	140	2021-02-08 15:22:30.285003
56	Self	S210208	0.5	2	1	1	2	0.6	1350.0000027	1350.0000027	2350.0000047	1650.0000033	Minor	Wrong_doings	13	You have returned your trays in food courts	C2_13	0.9	Easy	I1_38	9	The sun rises at night	0.0	No	RIGHT	8.183500000086497	RIGHT	227.8413999993063	LEFT	1407.8513000004025	RIGHT	1316.1920000002283	29.700000000000006	0.6	Probable_Truth	LEFT	LEFT	2	866.9307000000117	141	2021-02-08 15:22:53.388583
9	Self	S210208	0.5	2	1	1	2	0.1	1000.000002	1433.3333362	2066.6666708	2066.6666708	Major	Good_deeds	2	You have taken responsibility for your actions	C2_58	0.0	Easy	I2_45	37	It is 20th Century now	0.0555555555555556	Yes	LEFT	120.78990000009073	RIGHT	1134.5375000000786	LEFT	968.7303000000612	RIGHT	824.2291999995359	29.600000000000005	0.1	Probable_Lie	RIGHT	RIGHT	2	996.2666000001263	142	2021-02-08 15:23:16.571827
100	Computer	S210208	0.5	1	2	2	1	0.3	1000.000002	1150.0000023	2066.6666708	1783.3333369	Minor	Good_deeds	35	You have bribed a police officer	C1_19	0.95	Easy	I1_43	24	The Seine river is 50 feet above sea level	0.0	No	LEFT	518.9386000001832	LEFT	71.74080000004324	LEFT	994.0167000004294	LEFT	726.4930999999706	29.600000000000005	0.3	Probable_Lie	LEFT	RIGHT	2	687.8701848284558	143	2021-02-08 15:23:38.140785
