"Participant"	"Task"	"Stimulus_Side"	"Response"	"RT"	"ITI"	"Previous_Response"	"Previous_RT"	"Stop_Signal"	"Stop_Signal_RT"	"Conflict"	"Cue_Response"	"Cue_Response_RT"	"Trial_Onset"	"Trial_End"	"Trial_Order"	"Duration"
"S210317"	"Conflict_Resolution"	"RIGHT"	"RIGHT"	663.520299999959	900.0000018	""	n/a	n/a	n/a	"False"	n/a	n/a	"2021-03-17 14:51:08.129137"	"2021-03-17 14:51:08.999815"	1	6.13128496666667
"S210317"	"Conflict_Resolution"	"LEFT"	"LEFT"	516.582200000016	616.6666679	""	n/a	n/a	n/a	"False"	n/a	n/a	"2021-03-17 14:51:09.636114"	"2021-03-17 14:51:10.359731"	2	6.13128496666667
"S210317"	"Conflict_Resolution"	"RIGHT"	"RIGHT"	449.650600000041	1100.0000022	""	n/a	n/a	n/a	"False"	n/a	n/a	"2021-03-17 14:51:11.478282"	"2021-03-17 14:51:12.136301"	3	6.13128496666667
"S210317"	"Conflict_Resolution"	"RIGHT"	"RIGHT"	872.694499999966	500.000001	""	n/a	n/a	n/a	"True"	n/a	n/a	"2021-03-17 14:51:12.655956"	"2021-03-17 14:51:13.736541"	4	6.13128496666667
"S210317"	"Conflict_Resolution"	"RIGHT"	"RIGHT"	432.465100000059	700.0000014	""	n/a	n/a	n/a	"False"	n/a	n/a	"2021-03-17 14:51:14.455490"	"2021-03-17 14:51:15.095310"	5	6.13128496666667
"S210317"	"Conflict_Resolution"	"LEFT"	"LEFT"	416.82030000004	916.6666685	""	n/a	n/a	n/a	"False"	n/a	n/a	"2021-03-17 14:51:16.031920"	"2021-03-17 14:51:16.656951"	6	6.13128496666667
"S210317"	"Conflict_Resolution"	"RIGHT"	"RIGHT"	551.840300000094	1316.6666693	""	n/a	n/a	n/a	"True"	n/a	n/a	"2021-03-17 14:51:17.992964"	"2021-03-17 14:51:18.752238"	7	6.13128496666667
"S210317"	"Conflict_Resolution"	"LEFT"	"LEFT"	412.543199999959	816.6666683	""	n/a	n/a	n/a	"False"	n/a	n/a	"2021-03-17 14:51:19.587648"	"2021-03-17 14:51:20.207904"	8	6.13128496666667
"S210317"	"Conflict_Resolution"	"RIGHT"	"RIGHT"	528.09149999996	883.3333351	""	n/a	n/a	n/a	"True"	n/a	n/a	"2021-03-17 14:51:21.112524"	"2021-03-17 14:51:21.848108"	9	6.13128496666667
"S210317"	"Conflict_Resolution"	"LEFT"	"LEFT"	552.391900000089	716.6666681	""	n/a	n/a	n/a	"True"	n/a	n/a	"2021-03-17 14:51:22.584141"	"2021-03-17 14:51:23.345143"	10	6.13128496666667
"S210317"	"Conflict_Resolution"	"LEFT"	"LEFT"	535.169099999962	916.6666685	""	n/a	n/a	n/a	"True"	n/a	n/a	"2021-03-17 14:51:24.280724"	"2021-03-17 14:51:25.024875"	11	6.13128496666667
"S210317"	"Conflict_Resolution"	"LEFT"	"LEFT"	536.403300000075	900.0000018	""	n/a	n/a	n/a	"True"	n/a	n/a	"2021-03-17 14:51:25.943419"	"2021-03-17 14:51:26.689138"	12	6.13128496666667
"S210317"	"Conflict_Resolution"	"LEFT"	"LEFT"	517.409899999961	766.6666682	""	n/a	n/a	n/a	"True"	n/a	n/a	"2021-03-17 14:51:27.474592"	"2021-03-17 14:51:28.200606"	13	6.13128496666667
"S210317"	"Conflict_Resolution"	"LEFT"	"LEFT"	483.157400000096	633.3333346	""	n/a	n/a	n/a	"True"	n/a	n/a	"2021-03-17 14:51:28.852862"	"2021-03-17 14:51:29.545092"	14	6.13128496666667
"S210317"	"Conflict_Resolution"	"RIGHT"	"RIGHT"	388.193500000057	783.3333349	""	n/a	n/a	n/a	"False"	n/a	n/a	"2021-03-17 14:51:30.348526"	"2021-03-17 14:51:30.944930"	15	6.13128496666667
"S210317"	"Conflict_Resolution"	"LEFT"	"LEFT"	545.739600000047	850.0000017	""	n/a	n/a	n/a	"True"	n/a	n/a	"2021-03-17 14:51:31.814616"	"2021-03-17 14:51:32.568317"	16	6.13128496666667
"S210317"	"Conflict_Resolution"	"RIGHT"	"RIGHT"	341.098700000089	1000.000002	""	n/a	n/a	n/a	"False"	n/a	n/a	"2021-03-17 14:51:33.586663"	"2021-03-17 14:51:34.135652"	17	6.13128496666667
"S210317"	"Conflict_Resolution"	"LEFT"	"LEFT"	417.938899999967	1100.0000022	""	n/a	n/a	n/a	"True"	n/a	n/a	"2021-03-17 14:51:35.254753"	"2021-03-17 14:51:35.882083"	18	6.13128496666667
"S210317"	"Conflict_Resolution"	"RIGHT"	"RIGHT"	525.635000000079	933.3333352	""	n/a	n/a	n/a	"True"	n/a	n/a	"2021-03-17 14:51:36.834874"	"2021-03-17 14:51:37.569012"	19	6.13128496666667
"S210317"	"Conflict_Resolution"	"LEFT"	"LEFT"	468.873799999983	1000.000002	""	n/a	n/a	n/a	"True"	n/a	n/a	"2021-03-17 14:51:38.587268"	"2021-03-17 14:51:39.265099"	20	6.13128496666667
"S210317"	"Conflict_Resolution"	"LEFT"	"LEFT"	406.151399999999	1350.0000027	""	n/a	n/a	n/a	"False"	n/a	n/a	"2021-03-17 14:51:40.634623"	"2021-03-17 14:51:41.248616"	21	6.13128496666667
"S210317"	"Conflict_Resolution"	"RIGHT"	"RIGHT"	367.732499999988	1333.333336	""	n/a	n/a	n/a	"False"	n/a	n/a	"2021-03-17 14:51:42.601048"	"2021-03-17 14:51:43.177002"	22	6.13128496666667
"S210317"	"Conflict_Resolution"	"RIGHT"	"RIGHT"	417.043700000022	1466.6666696	""	n/a	n/a	n/a	"False"	n/a	n/a	"2021-03-17 14:51:44.663119"	"2021-03-17 14:51:45.287545"	23	6.13128496666667
"S210317"	"Conflict_Resolution"	"RIGHT"	"RIGHT"	527.726099999995	950.0000019	""	n/a	n/a	n/a	"True"	n/a	n/a	"2021-03-17 14:51:46.256613"	"2021-03-17 14:51:46.991312"	24	6.13128496666667
"S210317"	"Conflict_Resolution"	"RIGHT"	"RIGHT"	506.389100000092	683.3333347	""	n/a	n/a	n/a	"True"	n/a	n/a	"2021-03-17 14:51:47.693503"	"2021-03-17 14:51:48.407863"	25	6.13128496666667
"S210317"	"Conflict_Resolution"	"RIGHT"	"RIGHT"	361.551499999905	1083.3333355	""	n/a	n/a	n/a	"False"	n/a	n/a	"2021-03-17 14:51:49.510896"	"2021-03-17 14:51:50.081041"	26	6.13128496666667
"S210317"	"Conflict_Resolution"	"LEFT"	"LEFT"	424.307500000054	1100.0000022	""	n/a	n/a	n/a	"False"	n/a	n/a	"2021-03-17 14:51:51.199643"	"2021-03-17 14:51:51.831868"	27	6.13128496666667
"S210317"	"Conflict_Resolution"	"RIGHT"	"RIGHT"	396.562899999935	1416.6666695	""	n/a	n/a	n/a	"False"	n/a	n/a	"2021-03-17 14:51:53.267827"	"2021-03-17 14:51:53.871477"	28	6.13128496666667
"S210317"	"Conflict_Resolution"	"RIGHT"	"RIGHT"	454.623100000049	1366.6666694	""	n/a	n/a	n/a	"True"	n/a	n/a	"2021-03-17 14:51:55.257420"	"2021-03-17 14:51:55.919418"	29	6.13128496666667
"S210317"	"Conflict_Resolution"	"RIGHT"	"RIGHT"	599.315799999999	550.0000011	""	n/a	n/a	n/a	"True"	n/a	n/a	"2021-03-17 14:51:56.489460"	"2021-03-17 14:51:57.296596"	30	6.13128496666667
"S210317"	"Conflict_Resolution"	"LEFT"	"LEFT"	460.547399999996	1200.0000024	""	n/a	n/a	n/a	"True"	n/a	n/a	"2021-03-17 14:51:58.516211"	"2021-03-17 14:51:59.184441"	31	6.13128496666667
"S210317"	"Conflict_Resolution"	"RIGHT"	"RIGHT"	393.405099999995	1050.0000021	""	n/a	n/a	n/a	"False"	n/a	n/a	"2021-03-17 14:52:00.254572"	"2021-03-17 14:52:00.856723"	32	6.13128496666667
"S210317"	"Conflict_Resolution"	"LEFT"	"LEFT"	354.977700000063	1066.6666688	""	n/a	n/a	n/a	"False"	n/a	n/a	"2021-03-17 14:52:01.940991"	"2021-03-17 14:52:02.504197"	33	6.13128496666667
"S210317"	"Conflict_Resolution"	"RIGHT"	"RIGHT"	459.559099999979	633.3333346	""	n/a	n/a	n/a	"False"	n/a	n/a	"2021-03-17 14:52:03.157020"	"2021-03-17 14:52:03.824212"	34	6.13128496666667
"S210317"	"Conflict_Resolution"	"LEFT"	"LEFT"	536.274999999932	1316.6666693	""	n/a	n/a	n/a	"True"	n/a	n/a	"2021-03-17 14:52:05.160337"	"2021-03-17 14:52:05.903349"	35	6.13128496666667
"S210317"	"Conflict_Resolution"	"LEFT"	"LEFT"	448.347799999965	1500.000003	""	n/a	n/a	n/a	"False"	n/a	n/a	"2021-03-17 14:52:07.423729"	"2021-03-17 14:52:08.080970"	36	6.13128496666667
"S210317"	"Conflict_Resolution"	"LEFT"	"LEFT"	589.19990000004	966.6666686	""	n/a	n/a	n/a	"True"	n/a	n/a	"2021-03-17 14:52:09.066849"	"2021-03-17 14:52:09.864905"	37	6.13128496666667
"S210317"	"Conflict_Resolution"	"RIGHT"	"RIGHT"	646.769699999936	733.3333348	""	n/a	n/a	n/a	"True"	n/a	n/a	"2021-03-17 14:52:10.617416"	"2021-03-17 14:52:11.472776"	38	6.13128496666667
"S210317"	"Conflict_Resolution"	"LEFT"	"LEFT"	514.060299999983	1250.0000025	""	n/a	n/a	n/a	"True"	n/a	n/a	"2021-03-17 14:52:12.742497"	"2021-03-17 14:52:13.463557"	39	6.13128496666667
"S210317"	"Conflict_Resolution"	"RIGHT"	"RIGHT"	1346.42580000002	683.3333347	""	n/a	n/a	n/a	"False"	n/a	n/a	"2021-03-17 14:52:14.166195"	"2021-03-17 14:52:15.721094"	40	6.13128496666667
"S210317"	"Conflict_Resolution"	"LEFT"	"LEFT"	645.876699999917	950.0000019	""	n/a	n/a	n/a	"True"	n/a	n/a	"2021-03-17 14:52:16.690300"	"2021-03-17 14:52:17.543487"	41	6.13128496666667
"S210317"	"Conflict_Resolution"	"RIGHT"	"RIGHT"	527.334799999949	750.0000015	""	n/a	n/a	n/a	"True"	n/a	n/a	"2021-03-17 14:52:18.314012"	"2021-03-17 14:52:19.049086"	42	6.13128496666667
"S210317"	"Conflict_Resolution"	"LEFT"	"LEFT"	506.24520000008	1450.0000029	""	n/a	n/a	n/a	"True"	n/a	n/a	"2021-03-17 14:52:20.517604"	"2021-03-17 14:52:21.232610"	43	6.13128496666667
"S210317"	"Conflict_Resolution"	"RIGHT"	"RIGHT"	425.633299999959	1283.3333359	""	n/a	n/a	n/a	"False"	n/a	n/a	"2021-03-17 14:52:22.534644"	"2021-03-17 14:52:23.167418"	44	6.13128496666667
"S210317"	"Conflict_Resolution"	"RIGHT"	"RIGHT"	523.529899999971	650.0000013	""	n/a	n/a	n/a	"False"	n/a	n/a	"2021-03-17 14:52:23.837133"	"2021-03-17 14:52:24.568148"	45	6.13128496666667
"S210317"	"Conflict_Resolution"	"LEFT"	"LEFT"	449.890200000027	866.6666684	""	n/a	n/a	n/a	"True"	n/a	n/a	"2021-03-17 14:52:25.454856"	"2021-03-17 14:52:26.112428"	46	6.13128496666667
"S210317"	"Conflict_Resolution"	"RIGHT"	"RIGHT"	484.742399999959	800.0000016	""	n/a	n/a	n/a	"True"	n/a	n/a	"2021-03-17 14:52:26.931974"	"2021-03-17 14:52:27.623605"	47	6.13128496666667
"S210317"	"Conflict_Resolution"	"RIGHT"	"RIGHT"	390.045600000008	733.3333348	""	n/a	n/a	n/a	"False"	n/a	n/a	"2021-03-17 14:52:28.378290"	"2021-03-17 14:52:28.976620"	48	6.13128496666667
"S210317"	"Conflict_Resolution"	"RIGHT"	"RIGHT"	488.460600000053	900.0000018	""	n/a	n/a	n/a	"True"	n/a	n/a	"2021-03-17 14:52:29.896245"	"2021-03-17 14:52:30.591518"	49	6.13128496666667
"S210317"	"Conflict_Resolution"	"LEFT"	"LEFT"	489.203400000065	683.3333347	""	n/a	n/a	n/a	"False"	n/a	n/a	"2021-03-17 14:52:31.295265"	"2021-03-17 14:52:31.992089"	50	6.13128496666667
"S210317"	"Conflict_Resolution"	"LEFT"	"LEFT"	405.079900000032	583.3333345	""	n/a	n/a	n/a	"False"	n/a	n/a	"2021-03-17 14:52:32.595657"	"2021-03-17 14:52:33.207344"	51	6.13128496666667
"S210317"	"Conflict_Resolution"	"LEFT"	"LEFT"	409.119700000019	1300.0000026	""	n/a	n/a	n/a	"False"	n/a	n/a	"2021-03-17 14:52:34.527313"	"2021-03-17 14:52:35.145096"	52	6.13128496666667
"S210317"	"Conflict_Resolution"	"RIGHT"	"RIGHT"	493.878699999982	1466.6666696	""	n/a	n/a	n/a	"True"	n/a	n/a	"2021-03-17 14:52:36.633821"	"2021-03-17 14:52:37.337022"	53	6.13128496666667
"S210317"	"Conflict_Resolution"	"LEFT"	"LEFT"	831.32599999999	1150.0000023	""	n/a	n/a	n/a	"True"	n/a	n/a	"2021-03-17 14:52:38.504472"	"2021-03-17 14:52:39.544230"	54	6.13128496666667
"S210317"	"Conflict_Resolution"	"RIGHT"	"RIGHT"	478.217200000017	1133.3333356	""	n/a	n/a	n/a	"True"	n/a	n/a	"2021-03-17 14:52:40.697618"	"2021-03-17 14:52:41.384778"	55	6.13128496666667
"S210317"	"Conflict_Resolution"	"LEFT"	"LEFT"	453.544700000066	950.0000019	""	n/a	n/a	n/a	"False"	n/a	n/a	"2021-03-17 14:52:42.355209"	"2021-03-17 14:52:43.015764"	56	6.13128496666667
"S210317"	"Conflict_Resolution"	"LEFT"	"LEFT"	776.713200000017	516.6666677	""	n/a	n/a	n/a	"True"	n/a	n/a	"2021-03-17 14:52:43.552004"	"2021-03-17 14:52:44.536959"	57	6.13128496666667
"S210317"	"Conflict_Resolution"	"RIGHT"	"RIGHT"	453.104100000019	783.3333349	""	n/a	n/a	n/a	"True"	n/a	n/a	"2021-03-17 14:52:45.340050"	"2021-03-17 14:52:46.001825"	58	6.13128496666667
"S210317"	"Conflict_Resolution"	"RIGHT"	"RIGHT"	673.70619999997	633.3333346	""	n/a	n/a	n/a	"True"	n/a	n/a	"2021-03-17 14:52:46.654588"	"2021-03-17 14:52:47.536274"	59	6.13128496666667
"S210317"	"Conflict_Resolution"	"RIGHT"	"RIGHT"	422.807300000045	950.0000019	""	n/a	n/a	n/a	"False"	n/a	n/a	"2021-03-17 14:52:48.505112"	"2021-03-17 14:52:49.136879"	60	6.13128496666667
"S210317"	"Conflict_Resolution"	"RIGHT"	"RIGHT"	442.944799999964	1233.3333358	""	n/a	n/a	n/a	"False"	n/a	n/a	"2021-03-17 14:52:50.389243"	"2021-03-17 14:52:51.039331"	61	6.13128496666667
"S210317"	"Conflict_Resolution"	"RIGHT"	"RIGHT"	420.430299999907	1216.6666691	""	n/a	n/a	n/a	"False"	n/a	n/a	"2021-03-17 14:52:52.275679"	"2021-03-17 14:52:52.903583"	62	6.13128496666667
"S210317"	"Conflict_Resolution"	"LEFT"	"LEFT"	502.854500000012	1366.6666694	""	n/a	n/a	n/a	"True"	n/a	n/a	"2021-03-17 14:52:54.289204"	"2021-03-17 14:52:55.000301"	63	6.13128496666667
"S210317"	"Conflict_Resolution"	"RIGHT"	"RIGHT"	421.406899999965	1383.3333361	""	n/a	n/a	n/a	"True"	n/a	n/a	"2021-03-17 14:52:56.402884"	"2021-03-17 14:52:57.033197"	64	6.13128496666667
"S210317"	"Conflict_Resolution"	"RIGHT"	"RIGHT"	492.053700000042	583.3333345	""	n/a	n/a	n/a	"True"	n/a	n/a	"2021-03-17 14:52:57.636678"	"2021-03-17 14:52:58.336931"	65	6.13128496666667
"S210317"	"Conflict_Resolution"	"RIGHT"	"RIGHT"	399.207799999999	883.3333351	""	n/a	n/a	n/a	"False"	n/a	n/a	"2021-03-17 14:52:59.240727"	"2021-03-17 14:52:59.848276"	66	6.13128496666667
"S210317"	"Conflict_Resolution"	"LEFT"	"RIGHT"	430.834799999957	766.6666682	""	n/a	n/a	n/a	"False"	n/a	n/a	"2021-03-17 14:53:00.632896"	"2021-03-17 14:53:01.273189"	67	6.13128496666667
"S210317"	"Conflict_Resolution"	"RIGHT"	"RIGHT"	441.30419999999	1433.3333362	""	n/a	n/a	n/a	"False"	n/a	n/a	"2021-03-17 14:53:02.727140"	"2021-03-17 14:53:03.376321"	68	6.13128496666667
"S210317"	"Conflict_Resolution"	"RIGHT"	"RIGHT"	417.757199999983	833.333335	""	n/a	n/a	n/a	"False"	n/a	n/a	"2021-03-17 14:53:04.230519"	"2021-03-17 14:53:04.856700"	69	6.13128496666667
"S210317"	"Conflict_Resolution"	"LEFT"	"LEFT"	546.029900000008	1266.6666692	""	n/a	n/a	n/a	"True"	n/a	n/a	"2021-03-17 14:53:06.141966"	"2021-03-17 14:53:06.895464"	70	6.13128496666667
"S210317"	"Conflict_Resolution"	"RIGHT"	"RIGHT"	419.845800000076	850.0000017	""	n/a	n/a	n/a	"False"	n/a	n/a	"2021-03-17 14:53:07.764681"	"2021-03-17 14:53:08.391472"	71	6.13128496666667
"S210317"	"Conflict_Resolution"	"RIGHT"	"RIGHT"	469.939999999951	983.3333353	""	n/a	n/a	n/a	"True"	n/a	n/a	"2021-03-17 14:53:09.394612"	"2021-03-17 14:53:10.072798"	72	6.13128496666667
"S210317"	"Conflict_Resolution"	"RIGHT"	"RIGHT"	516.080699999975	1000.000002	""	n/a	n/a	n/a	"True"	n/a	n/a	"2021-03-17 14:53:11.092507"	"2021-03-17 14:53:11.816533"	73	6.13128496666667
"S210317"	"Conflict_Resolution"	"RIGHT"	"RIGHT"	459.918700000003	1416.6666695	""	n/a	n/a	n/a	"True"	n/a	n/a	"2021-03-17 14:53:13.251811"	"2021-03-17 14:53:13.920841"	74	6.13128496666667
"S210317"	"Conflict_Resolution"	"LEFT"	"LEFT"	488.74109999997	850.0000017	""	n/a	n/a	n/a	"False"	n/a	n/a	"2021-03-17 14:53:14.791609"	"2021-03-17 14:53:15.487913"	75	6.13128496666667
"S210317"	"Conflict_Resolution"	"RIGHT"	"RIGHT"	474.733499999957	1050.0000021	""	n/a	n/a	n/a	"True"	n/a	n/a	"2021-03-17 14:53:16.557387"	"2021-03-17 14:53:17.240056"	76	6.13128496666667
"S210317"	"Conflict_Resolution"	"LEFT"	"LEFT"	479.030099999932	716.6666681	""	n/a	n/a	n/a	"False"	n/a	n/a	"2021-03-17 14:53:17.977157"	"2021-03-17 14:53:18.663662"	77	6.13128496666667
"S210317"	"Conflict_Resolution"	"RIGHT"	"RIGHT"	547.845299999949	1233.3333358	""	n/a	n/a	n/a	"True"	n/a	n/a	"2021-03-17 14:53:19.916417"	"2021-03-17 14:53:20.671443"	78	6.13128496666667
"S210317"	"Conflict_Resolution"	"RIGHT"	"RIGHT"	808.387100000004	533.3333344	""	n/a	n/a	n/a	"False"	n/a	n/a	"2021-03-17 14:53:21.223797"	"2021-03-17 14:53:22.240716"	79	6.13128496666667
"S210317"	"Conflict_Resolution"	"LEFT"	"LEFT"	479.437099999927	516.6666677	""	n/a	n/a	n/a	"False"	n/a	n/a	"2021-03-17 14:53:22.776384"	"2021-03-17 14:53:23.464417"	80	6.13128496666667
"S210317"	"Conflict_Resolution"	"LEFT"	"LEFT"	488.638599999945	683.3333347	""	n/a	n/a	n/a	"True"	n/a	n/a	"2021-03-17 14:53:24.167054"	"2021-03-17 14:53:24.864087"	81	6.13128496666667
"S210317"	"Conflict_Resolution"	"RIGHT"	"RIGHT"	486.871699999938	550.0000011	""	n/a	n/a	n/a	"False"	n/a	n/a	"2021-03-17 14:53:25.433171"	"2021-03-17 14:53:26.128967"	82	6.13128496666667
"S210317"	"Conflict_Resolution"	"RIGHT"	"RIGHT"	553.719399999977	850.0000017	""	n/a	n/a	n/a	"True"	n/a	n/a	"2021-03-17 14:53:26.998854"	"2021-03-17 14:53:27.760891"	83	6.13128496666667
"S210317"	"Conflict_Resolution"	"RIGHT"	"RIGHT"	534.016899999983	1150.0000023	""	n/a	n/a	n/a	"True"	n/a	n/a	"2021-03-17 14:53:28.930534"	"2021-03-17 14:53:29.671551"	84	6.13128496666667
"S210317"	"Conflict_Resolution"	"LEFT"	"LEFT"	488.464200000067	533.3333344	""	n/a	n/a	n/a	"False"	n/a	n/a	"2021-03-17 14:53:30.224074"	"2021-03-17 14:53:30.920587"	85	6.13128496666667
"S210317"	"Conflict_Resolution"	"LEFT"	"LEFT"	461.197900000002	783.3333349	""	n/a	n/a	n/a	"True"	n/a	n/a	"2021-03-17 14:53:31.722702"	"2021-03-17 14:53:32.392893"	86	6.13128496666667
"S210317"	"Conflict_Resolution"	"RIGHT"	"RIGHT"	432.018599999992	1266.6666692	""	n/a	n/a	n/a	"False"	n/a	n/a	"2021-03-17 14:53:33.680567"	"2021-03-17 14:53:34.319437"	87	6.13128496666667
"S210317"	"Conflict_Resolution"	"RIGHT"	"RIGHT"	463.485799999944	1150.0000023	""	n/a	n/a	n/a	"False"	n/a	n/a	"2021-03-17 14:53:35.488275"	"2021-03-17 14:53:36.159842"	88	6.13128496666667
"S210317"	"Conflict_Resolution"	"RIGHT"	"RIGHT"	444.892600000003	600.0000012	""	n/a	n/a	n/a	"True"	n/a	n/a	"2021-03-17 14:53:36.779334"	"2021-03-17 14:53:37.431589"	89	6.13128496666667
"S210317"	"Conflict_Resolution"	"LEFT"	"LEFT"	407.626100000016	1150.0000023	""	n/a	n/a	n/a	"False"	n/a	n/a	"2021-03-17 14:53:38.600708"	"2021-03-17 14:53:39.217058"	90	6.13128496666667
"S210317"	"Conflict_Resolution"	"RIGHT"	"RIGHT"	416.357700000049	1100.0000022	""	n/a	n/a	n/a	"True"	n/a	n/a	"2021-03-17 14:53:40.335685"	"2021-03-17 14:53:40.960962"	91	6.13128496666667
"S210317"	"Conflict_Resolution"	"LEFT"	"LEFT"	363.416899999947	1216.6666691	""	n/a	n/a	n/a	"False"	n/a	n/a	"2021-03-17 14:53:42.197298"	"2021-03-17 14:53:42.768769"	92	6.13128496666667
"S210317"	"Conflict_Resolution"	"LEFT"	"LEFT"	592.220800000064	1300.0000026	""	n/a	n/a	n/a	"True"	n/a	n/a	"2021-03-17 14:53:44.088435"	"2021-03-17 14:53:44.888293"	93	6.13128496666667
"S210317"	"Conflict_Resolution"	"LEFT"	"LEFT"	394.484199999965	666.666668	""	n/a	n/a	n/a	"False"	n/a	n/a	"2021-03-17 14:53:45.573134"	"2021-03-17 14:53:46.176899"	94	6.13128496666667
"S210317"	"Conflict_Resolution"	"LEFT"	"LEFT"	389.820299999997	966.6666686	""	n/a	n/a	n/a	"False"	n/a	n/a	"2021-03-17 14:53:47.162193"	"2021-03-17 14:53:47.759530"	95	6.13128496666667
"S210317"	"Conflict_Resolution"	"LEFT"	"LEFT"	389.952999999991	1400.0000028	""	n/a	n/a	n/a	"False"	n/a	n/a	"2021-03-17 14:53:49.178830"	"2021-03-17 14:53:49.776781"	96	6.13128496666667
"S210317"	"Conflict_Resolution"	"LEFT"	"LEFT"	652.387100000055	566.6666678	""	n/a	n/a	n/a	"False"	n/a	n/a	"2021-03-17 14:53:50.363284"	"2021-03-17 14:53:51.223625"	97	6.13128496666667
"S210317"	"Conflict_Resolution"	"RIGHT"	"RIGHT"	440.696399999979	1483.3333363	""	n/a	n/a	n/a	"True"	n/a	n/a	"2021-03-17 14:53:52.727557"	"2021-03-17 14:53:53.377230"	98	6.13128496666667
"S210317"	"Conflict_Resolution"	"LEFT"	"LEFT"	652.407899999957	1400.0000028	""	n/a	n/a	n/a	"True"	n/a	n/a	"2021-03-17 14:53:54.796126"	"2021-03-17 14:53:55.657907"	99	6.13128496666667
"S210317"	"Conflict_Resolution"	"LEFT"	"LEFT"	468.693599999938	1366.6666694	""	n/a	n/a	n/a	"False"	n/a	n/a	"2021-03-17 14:53:57.043517"	"2021-03-17 14:53:57.720207"	100	6.13128496666667
"S210317"	"Conflict_Resolution"	"LEFT"	"LEFT"	476.36179999995	1000.000002	""	n/a	n/a	n/a	"False"	n/a	n/a	"2021-03-17 14:53:58.739338"	"2021-03-17 14:53:59.424330"	101	6.13128496666667
"S210317"	"Conflict_Resolution"	"LEFT"	"LEFT"	392.976900000008	866.6666684	""	n/a	n/a	n/a	"False"	n/a	n/a	"2021-03-17 14:54:00.310914"	"2021-03-17 14:54:00.912808"	102	6.13128496666667
"S210317"	"Conflict_Resolution"	"LEFT"	"LEFT"	550.559900000053	1500.000003	""	n/a	n/a	n/a	"True"	n/a	n/a	"2021-03-17 14:54:02.433549"	"2021-03-17 14:54:03.193023"	103	6.13128496666667
"S210317"	"Conflict_Resolution"	"RIGHT"	"RIGHT"	680.760599999985	1483.3333363	""	n/a	n/a	n/a	"False"	n/a	n/a	"2021-03-17 14:54:04.695624"	"2021-03-17 14:54:05.583389"	104	6.13128496666667
"S210317"	"Conflict_Resolution"	"RIGHT"	"RIGHT"	540.903800000024	1216.6666691	""	n/a	n/a	n/a	"True"	n/a	n/a	"2021-03-17 14:54:06.819476"	"2021-03-17 14:54:07.569252"	105	6.13128496666667
"S210317"	"Conflict_Resolution"	"RIGHT"	"RIGHT"	719.129300000077	500.000001	""	n/a	n/a	n/a	"False"	n/a	n/a	"2021-03-17 14:54:08.089242"	"2021-03-17 14:54:09.016852"	106	6.13128496666667
"S210317"	"Conflict_Resolution"	"LEFT"	"LEFT"	504.780700000083	1466.6666696	""	n/a	n/a	n/a	"False"	n/a	n/a	"2021-03-17 14:54:10.503470"	"2021-03-17 14:54:11.215390"	107	6.13128496666667
"S210317"	"Conflict_Resolution"	"RIGHT"	"RIGHT"	434.920700000021	1266.6666692	""	n/a	n/a	n/a	"True"	n/a	n/a	"2021-03-17 14:54:12.501001"	"2021-03-17 14:54:13.145110"	108	6.13128496666667
"S210317"	"Conflict_Resolution"	"LEFT"	"LEFT"	414.700000000039	900.0000018	""	n/a	n/a	n/a	"False"	n/a	n/a	"2021-03-17 14:54:14.065680"	"2021-03-17 14:54:14.688993"	109	6.13128496666667
"S210317"	"Conflict_Resolution"	"RIGHT"	"RIGHT"	371.941699999979	800.0000016	""	n/a	n/a	n/a	"False"	n/a	n/a	"2021-03-17 14:54:15.508712"	"2021-03-17 14:54:16.089159"	110	6.13128496666667
"S210317"	"Conflict_Resolution"	"RIGHT"	"RIGHT"	422.055300000011	750.0000015	""	n/a	n/a	n/a	"False"	n/a	n/a	"2021-03-17 14:54:16.857973"	"2021-03-17 14:54:17.488871"	111	6.13128496666667
"S210317"	"Conflict_Resolution"	"LEFT"	"LEFT"	509.25570000004	816.6666683	""	n/a	n/a	n/a	"True"	n/a	n/a	"2021-03-17 14:54:18.322760"	"2021-03-17 14:54:19.039893"	112	6.13128496666667
"S210317"	"Conflict_Resolution"	"LEFT"	"LEFT"	441.116400000055	1450.0000029	""	n/a	n/a	n/a	"False"	n/a	n/a	"2021-03-17 14:54:20.511534"	"2021-03-17 14:54:21.161091"	113	6.13128496666667
"S210317"	"Conflict_Resolution"	"LEFT"	"LEFT"	490.009599999894	1416.6666695	""	n/a	n/a	n/a	"True"	n/a	n/a	"2021-03-17 14:54:22.597949"	"2021-03-17 14:54:23.297076"	114	6.13128496666667
"S210317"	"Conflict_Resolution"	"RIGHT"	"RIGHT"	420.119699999987	1183.3333357	""	n/a	n/a	n/a	"False"	n/a	n/a	"2021-03-17 14:54:24.499748"	"2021-03-17 14:54:25.128766"	115	6.13128496666667
"S210317"	"Conflict_Resolution"	"LEFT"	"LEFT"	601.639900000009	1466.6666696	""	n/a	n/a	n/a	"True"	n/a	n/a	"2021-03-17 14:54:26.614206"	"2021-03-17 14:54:27.423943"	116	6.13128496666667
"S210317"	"Conflict_Resolution"	"LEFT"	"LEFT"	759.093800000073	733.3333348	""	n/a	n/a	n/a	"True"	n/a	n/a	"2021-03-17 14:54:28.176966"	"2021-03-17 14:54:29.144891"	117	6.13128496666667
"S210317"	"Conflict_Resolution"	"RIGHT"	"RIGHT"	559.383400000115	700.0000014	""	n/a	n/a	n/a	"True"	n/a	n/a	"2021-03-17 14:54:29.864827"	"2021-03-17 14:54:30.632626"	118	6.13128496666667
"S210317"	"Conflict_Resolution"	"LEFT"	"LEFT"	431.127399999923	1116.6666689	""	n/a	n/a	n/a	"False"	n/a	n/a	"2021-03-17 14:54:31.768716"	"2021-03-17 14:54:32.407525"	119	6.13128496666667
"S210317"	"Conflict_Resolution"	"RIGHT"	"RIGHT"	566.589000000022	600.0000012	""	n/a	n/a	n/a	"False"	n/a	n/a	"2021-03-17 14:54:33.025386"	"2021-03-17 14:54:33.800288"	120	6.13128496666667
"S210317"	"Conflict_Resolution"	"LEFT"	"LEFT"	546.915600000148	616.6666679	""	n/a	n/a	n/a	"True"	n/a	n/a	"2021-03-17 14:54:34.436749"	"2021-03-17 14:54:35.193222"	121	6.13128496666667
"S210317"	"Conflict_Resolution"	"RIGHT"	"RIGHT"	550.530900000012	933.3333352	""	n/a	n/a	n/a	"False"	n/a	n/a	"2021-03-17 14:54:36.145529"	"2021-03-17 14:54:36.903844"	122	6.13128496666667
"S210317"	"Conflict_Resolution"	"LEFT"	"LEFT"	598.441699999967	1166.666669	""	n/a	n/a	n/a	"True"	n/a	n/a	"2021-03-17 14:54:38.089782"	"2021-03-17 14:54:38.896129"	123	6.13128496666667
"S210317"	"Conflict_Resolution"	"RIGHT"	"RIGHT"	555.41049999988	833.333335	""	n/a	n/a	n/a	"True"	n/a	n/a	"2021-03-17 14:54:39.748864"	"2021-03-17 14:54:40.512216"	124	6.13128496666667
"S210317"	"Conflict_Resolution"	"RIGHT"	"RIGHT"	576.548000000003	1083.3333355	""	n/a	n/a	n/a	"True"	n/a	n/a	"2021-03-17 14:54:41.615731"	"2021-03-17 14:54:42.399426"	125	6.13128496666667
"S210317"	"Conflict_Resolution"	"LEFT"	"LEFT"	494.987499999979	1166.666669	""	n/a	n/a	n/a	"False"	n/a	n/a	"2021-03-17 14:54:43.585198"	"2021-03-17 14:54:44.288761"	126	6.13128496666667
"S210317"	"Conflict_Resolution"	"RIGHT"	"RIGHT"	700.153900000032	583.3333345	""	n/a	n/a	n/a	"False"	n/a	n/a	"2021-03-17 14:54:44.892305"	"2021-03-17 14:54:45.800581"	127	6.13128496666667
"S210317"	"Conflict_Resolution"	"RIGHT"	"RIGHT"	645.149899999979	983.3333353	""	n/a	n/a	n/a	"False"	n/a	n/a	"2021-03-17 14:54:46.802919"	"2021-03-17 14:54:47.656790"	128	6.13128496666667
"S210317"	"Conflict_Resolution"	"RIGHT"	"RIGHT"	498.685799999976	1033.3333354	""	n/a	n/a	n/a	"True"	n/a	n/a	"2021-03-17 14:54:48.709974"	"2021-03-17 14:54:49.415339"	129	6.13128496666667
"S210317"	"Conflict_Resolution"	"RIGHT"	"RIGHT"	660.242100000005	650.0000013	""	n/a	n/a	n/a	"True"	n/a	n/a	"2021-03-17 14:54:50.083712"	"2021-03-17 14:54:50.951510"	130	6.13128496666667
"S210317"	"Conflict_Resolution"	"LEFT"	"LEFT"	643.468999999868	1016.6666687	""	n/a	n/a	n/a	"True"	n/a	n/a	"2021-03-17 14:54:51.988407"	"2021-03-17 14:54:52.840141"	131	6.13128496666667
"S210317"	"Conflict_Resolution"	"LEFT"	"LEFT"	736.919799999896	1066.6666688	""	n/a	n/a	n/a	"True"	n/a	n/a	"2021-03-17 14:54:53.926760"	"2021-03-17 14:54:54.871764"	132	6.13128496666667
"S210317"	"Conflict_Resolution"	"LEFT"	"LEFT"	468.785000000025	1416.6666695	""	n/a	n/a	n/a	"False"	n/a	n/a	"2021-03-17 14:54:56.306879"	"2021-03-17 14:54:56.985103"	133	6.13128496666667
"S210317"	"Conflict_Resolution"	"RIGHT"	"RIGHT"	516.180700000177	1366.6666694	""	n/a	n/a	n/a	"False"	n/a	n/a	"2021-03-17 14:54:58.372202"	"2021-03-17 14:54:59.096342"	134	6.13128496666667
"S210317"	"Conflict_Resolution"	"RIGHT"	"RIGHT"	463.149199999862	1133.3333356	""	n/a	n/a	n/a	"False"	n/a	n/a	"2021-03-17 14:55:00.248600"	"2021-03-17 14:55:00.919418"	135	6.13128496666667
"S210317"	"Conflict_Resolution"	"LEFT"	"LEFT"	418.327699999963	1266.6666692	""	n/a	n/a	n/a	"False"	n/a	n/a	"2021-03-17 14:55:02.205768"	"2021-03-17 14:55:02.832881"	136	6.13128496666667
"S210317"	"Conflict_Resolution"	"LEFT"	"LEFT"	540.34989999991	1350.0000027	""	n/a	n/a	n/a	"True"	n/a	n/a	"2021-03-17 14:55:04.204205"	"2021-03-17 14:55:04.952964"	137	6.13128496666667
"S210317"	"Conflict_Resolution"	"LEFT"	"LEFT"	1243.23929999991	583.3333345	""	n/a	n/a	n/a	"True"	n/a	n/a	"2021-03-17 14:55:05.556373"	"2021-03-17 14:55:07.007418"	138	6.13128496666667
"S210317"	"Conflict_Resolution"	"RIGHT"	"RIGHT"	439.696400000003	1316.6666693	""	n/a	n/a	n/a	"False"	n/a	n/a	"2021-03-17 14:55:08.343982"	"2021-03-17 14:55:08.993004"	139	6.13128496666667
"S210317"	"Conflict_Resolution"	"LEFT"	"LEFT"	449.074100000189	1250.0000025	""	n/a	n/a	n/a	"False"	n/a	n/a	"2021-03-17 14:55:10.263281"	"2021-03-17 14:55:10.920033"	140	6.13128496666667
"S210317"	"Conflict_Resolution"	"LEFT"	"LEFT"	579.796600000009	633.3333346	""	n/a	n/a	n/a	"False"	n/a	n/a	"2021-03-17 14:55:11.572344"	"2021-03-17 14:55:12.361177"	141	6.13128496666667
"S210317"	"Conflict_Resolution"	"LEFT"	"LEFT"	412.783700000091	1316.6666693	""	n/a	n/a	n/a	"False"	n/a	n/a	"2021-03-17 14:55:13.699380"	"2021-03-17 14:55:14.320871"	142	6.13128496666667
"S210317"	"Conflict_Resolution"	"LEFT"	"LEFT"	479.187299999921	1116.6666689	""	n/a	n/a	n/a	"True"	n/a	n/a	"2021-03-17 14:55:15.456644"	"2021-03-17 14:55:16.143798"	143	6.13128496666667
"S210317"	"Conflict_Resolution"	"RIGHT"	"RIGHT"	549.259099999972	1183.3333357	""	n/a	n/a	n/a	"True"	n/a	n/a	"2021-03-17 14:55:17.347230"	"2021-03-17 14:55:18.103905"	144	6.13128496666667
"S210317"	"Conflict_Resolution"	"RIGHT"	"RIGHT"	473.666300000104	1283.3333359	""	n/a	n/a	n/a	"True"	n/a	n/a	"2021-03-17 14:55:19.406013"	"2021-03-17 14:55:20.088196"	145	6.13128496666667
"S210317"	"Conflict_Resolution"	"LEFT"	"LEFT"	507.393999999977	1216.6666691	""	n/a	n/a	n/a	"True"	n/a	n/a	"2021-03-17 14:55:21.324829"	"2021-03-17 14:55:22.040720"	146	6.13128496666667
"S210317"	"Conflict_Resolution"	"RIGHT"	"RIGHT"	740.253500000108	1433.3333362	""	n/a	n/a	n/a	"True"	n/a	n/a	"2021-03-17 14:55:23.491374"	"2021-03-17 14:55:24.440778"	147	6.13128496666667
"S210317"	"Conflict_Resolution"	"LEFT"	"RIGHT"	833.220100000062	666.666668	""	n/a	n/a	n/a	"True"	n/a	n/a	"2021-03-17 14:55:25.127237"	"2021-03-17 14:55:26.168850"	148	6.13128496666667
"S210317"	"Conflict_Resolution"	"RIGHT"	"RIGHT"	480.127299999822	533.3333344	""	n/a	n/a	n/a	"True"	n/a	n/a	"2021-03-17 14:55:26.720392"	"2021-03-17 14:55:27.408208"	149	6.13128496666667
"S210317"	"Conflict_Resolution"	"LEFT"	"LEFT"	394.903399999976	1050.0000021	""	n/a	n/a	n/a	"False"	n/a	n/a	"2021-03-17 14:55:28.477359"	"2021-03-17 14:55:29.080740"	150	6.13128496666667
"S210317"	"Conflict_Resolution"	"LEFT"	"LEFT"	452.670699999999	783.3333349	""	n/a	n/a	n/a	"False"	n/a	n/a	"2021-03-17 14:55:29.883920"	"2021-03-17 14:55:30.543952"	151	6.13128496666667
"S210317"	"Conflict_Resolution"	"RIGHT"	"RIGHT"	435.201200000165	1033.3333354	""	n/a	n/a	n/a	"False"	n/a	n/a	"2021-03-17 14:55:31.596752"	"2021-03-17 14:55:32.240339"	152	6.13128496666667
"S210317"	"Conflict_Resolution"	"LEFT"	"LEFT"	467.892399999982	733.3333348	""	n/a	n/a	n/a	"False"	n/a	n/a	"2021-03-17 14:55:32.995808"	"2021-03-17 14:55:33.672995"	153	6.13128496666667
"S210317"	"Conflict_Resolution"	"LEFT"	"LEFT"	362.824199999977	1200.0000024	""	n/a	n/a	n/a	"False"	n/a	n/a	"2021-03-17 14:55:34.893064"	"2021-03-17 14:55:35.465050"	154	6.13128496666667
"S210317"	"Conflict_Resolution"	"RIGHT"	"RIGHT"	524.62249999985	1383.3333361	""	n/a	n/a	n/a	"False"	n/a	n/a	"2021-03-17 14:55:36.866973"	"2021-03-17 14:55:37.600011"	155	6.13128496666667
"S210317"	"Conflict_Resolution"	"LEFT"	"LEFT"	698.704599999928	1050.0000021	""	n/a	n/a	n/a	"True"	n/a	n/a	"2021-03-17 14:55:38.669364"	"2021-03-17 14:55:39.575984"	156	6.13128496666667
"S210317"	"Conflict_Resolution"	"LEFT"	"Time_Max_Exceeded"	1500.08339999999	566.6666678	""	n/a	n/a	n/a	"True"	n/a	n/a	"2021-03-17 14:55:40.161445"	"2021-03-17 14:55:41.662340"	157	6.13128496666667
"S210317"	"Conflict_Resolution"	"LEFT"	"LEFT"	545.768899999985	533.3333344	"LEFT"	-335.608	n/a	n/a	"True"	n/a	n/a	"2021-03-17 14:55:42.214828"	"2021-03-17 14:55:42.968325"	158	6.13128496666667
"S210317"	"Conflict_Resolution"	"LEFT"	"LEFT"	419.711300000017	1016.6666687	""	n/a	n/a	n/a	"False"	n/a	n/a	"2021-03-17 14:55:44.004641"	"2021-03-17 14:55:44.631468"	159	6.13128496666667
"S210317"	"Conflict_Resolution"	"RIGHT"	"RIGHT"	470.428099999936	1333.333336	""	n/a	n/a	n/a	"True"	n/a	n/a	"2021-03-17 14:55:45.985424"	"2021-03-17 14:55:46.664232"	160	6.13128496666667
"S210317"	"Processing_Speed"	"LEFT"	"Time_Max_Exceeded"	1500.0703	633.3333346	n/a	n/a	n/a	n/a	n/a	n/a	n/a	"2021-03-17 14:38:40.976559"	"2021-03-17 14:38:42.502028"	1	1.90813298333333
"S210317"	"Processing_Speed"	"RIGHT"	"DOWN"	1278.6347	700.0000014	n/a	n/a	n/a	n/a	n/a	n/a	n/a	"2021-03-17 14:38:43.210649"	"2021-03-17 14:38:44.697138"	2	1.90813298333333
"S210317"	"Processing_Speed"	"RIGHT"	"DOWN"	313.666299999994	1150.0000023	n/a	n/a	n/a	n/a	n/a	n/a	n/a	"2021-03-17 14:38:45.855695"	"2021-03-17 14:38:46.376556"	3	1.90813298333333
"S210317"	"Processing_Speed"	"RIGHT"	"DOWN"	315.446399999999	1300.0000026	n/a	n/a	n/a	n/a	n/a	n/a	n/a	"2021-03-17 14:38:47.685550"	"2021-03-17 14:38:48.208672"	4	1.90813298333333
"S210317"	"Processing_Speed"	"LEFT"	"DOWN"	317.694899999992	1050.0000021	n/a	n/a	n/a	n/a	n/a	n/a	n/a	"2021-03-17 14:38:49.267866"	"2021-03-17 14:38:49.792341"	5	1.90813298333333
"S210317"	"Processing_Speed"	"RIGHT"	"DOWN"	294.797000000003	633.3333346	n/a	n/a	n/a	n/a	n/a	n/a	n/a	"2021-03-17 14:38:50.434283"	"2021-03-17 14:38:50.937368"	6	1.90813298333333
"S210317"	"Processing_Speed"	"RIGHT"	"DOWN"	410.5986	1116.6666689	n/a	n/a	n/a	n/a	n/a	n/a	n/a	"2021-03-17 14:38:52.062945"	"2021-03-17 14:38:52.682027"	7	1.90813298333333
"S210317"	"Processing_Speed"	"RIGHT"	"DOWN"	438.725199999993	566.6666678	n/a	n/a	n/a	n/a	n/a	n/a	n/a	"2021-03-17 14:38:53.258303"	"2021-03-17 14:38:53.904574"	8	1.90813298333333
"S210317"	"Processing_Speed"	"LEFT"	"DOWN"	501.123200000009	666.666668	n/a	n/a	n/a	n/a	n/a	n/a	n/a	"2021-03-17 14:38:54.580211"	"2021-03-17 14:38:55.288574"	9	1.90813298333333
"S210317"	"Processing_Speed"	"LEFT"	"DOWN"	420.387099999999	500.000001	n/a	n/a	n/a	n/a	n/a	n/a	n/a	"2021-03-17 14:38:55.797293"	"2021-03-17 14:38:56.425069"	10	1.90813298333333
"S210317"	"Processing_Speed"	"LEFT"	"DOWN"	353.151799999992	1366.6666694	n/a	n/a	n/a	n/a	n/a	n/a	n/a	"2021-03-17 14:38:57.799953"	"2021-03-17 14:38:58.360468"	11	1.90813298333333
"S210317"	"Processing_Speed"	"LEFT"	"DOWN"	311.827500000007	816.6666683	n/a	n/a	n/a	n/a	n/a	n/a	n/a	"2021-03-17 14:38:59.185663"	"2021-03-17 14:38:59.705969"	12	1.90813298333333
"S210317"	"Processing_Speed"	"LEFT"	"DOWN"	259.328400000001	1083.3333355	n/a	n/a	n/a	n/a	n/a	n/a	n/a	"2021-03-17 14:39:00.798157"	"2021-03-17 14:39:01.265584"	13	1.90813298333333
"S210317"	"Processing_Speed"	"RIGHT"	"DOWN"	254.403199999999	816.6666683	n/a	n/a	n/a	n/a	n/a	n/a	n/a	"2021-03-17 14:39:02.090363"	"2021-03-17 14:39:02.552292"	14	1.90813298333333
"S210317"	"Processing_Speed"	"LEFT"	"DOWN"	274.1908	1150.0000023	n/a	n/a	n/a	n/a	n/a	n/a	n/a	"2021-03-17 14:39:03.711426"	"2021-03-17 14:39:04.192848"	15	1.90813298333333
"S210317"	"Processing_Speed"	"RIGHT"	"DOWN"	230.185799999987	1016.6666687	n/a	n/a	n/a	n/a	n/a	n/a	n/a	"2021-03-17 14:39:05.219302"	"2021-03-17 14:39:05.658060"	16	1.90813298333333
"S210317"	"Processing_Speed"	"LEFT"	"DOWN"	270.970900000009	1183.3333357	n/a	n/a	n/a	n/a	n/a	n/a	n/a	"2021-03-17 14:39:06.850036"	"2021-03-17 14:39:07.330138"	17	1.90813298333333
"S210317"	"Processing_Speed"	"RIGHT"	"DOWN"	236.222599999991	1466.6666696	n/a	n/a	n/a	n/a	n/a	n/a	n/a	"2021-03-17 14:39:08.805292"	"2021-03-17 14:39:09.248364"	18	1.90813298333333
"S210317"	"Processing_Speed"	"RIGHT"	"DOWN"	386.985400000015	733.3333348	n/a	n/a	n/a	n/a	n/a	n/a	n/a	"2021-03-17 14:39:09.990559"	"2021-03-17 14:39:10.584826"	19	1.90813298333333
"S210317"	"Processing_Speed"	"LEFT"	"DOWN"	272.657500000008	783.3333349	n/a	n/a	n/a	n/a	n/a	n/a	n/a	"2021-03-17 14:39:11.376782"	"2021-03-17 14:39:11.857359"	20	1.90813298333333
"S210317"	"Processing_Speed"	"LEFT"	"DOWN"	330.764700000003	1116.6666689	n/a	n/a	n/a	n/a	n/a	n/a	n/a	"2021-03-17 14:39:12.982754"	"2021-03-17 14:39:13.521427"	21	1.90813298333333
"S210317"	"Processing_Speed"	"RIGHT"	"DOWN"	495.435000000015	983.3333353	n/a	n/a	n/a	n/a	n/a	n/a	n/a	"2021-03-17 14:39:14.513680"	"2021-03-17 14:39:15.216684"	22	1.90813298333333
"S210317"	"Processing_Speed"	"LEFT"	"DOWN"	474.795999999998	733.3333348	n/a	n/a	n/a	n/a	n/a	n/a	n/a	"2021-03-17 14:39:15.958273"	"2021-03-17 14:39:16.640825"	23	1.90813298333333
"S210317"	"Processing_Speed"	"RIGHT"	"DOWN"	455.9864	600.0000012	n/a	n/a	n/a	n/a	n/a	n/a	n/a	"2021-03-17 14:39:17.249199"	"2021-03-17 14:39:17.912408"	24	1.90813298333333
"S210317"	"Processing_Speed"	"RIGHT"	"DOWN"	344.6529	1366.6666694	n/a	n/a	n/a	n/a	n/a	n/a	n/a	"2021-03-17 14:39:19.288908"	"2021-03-17 14:39:19.841467"	25	1.90813298333333
"S210317"	"Processing_Speed"	"RIGHT"	"DOWN"	377.961499999998	1333.333336	n/a	n/a	n/a	n/a	n/a	n/a	n/a	"2021-03-17 14:39:21.183734"	"2021-03-17 14:39:21.770210"	26	1.90813298333333
"S210317"	"Processing_Speed"	"LEFT"	"DOWN"	514.951700000012	883.3333351	n/a	n/a	n/a	n/a	n/a	n/a	n/a	"2021-03-17 14:39:22.662198"	"2021-03-17 14:39:23.385257"	27	1.90813298333333
"S210317"	"Processing_Speed"	"LEFT"	"DOWN"	312.019500000019	1400.0000028	n/a	n/a	n/a	n/a	n/a	n/a	n/a	"2021-03-17 14:39:24.794025"	"2021-03-17 14:39:25.313928"	28	1.90813298333333
"S210317"	"Processing_Speed"	"LEFT"	"DOWN"	536.121699999995	566.6666678	n/a	n/a	n/a	n/a	n/a	n/a	n/a	"2021-03-17 14:39:25.889119"	"2021-03-17 14:39:26.632709"	29	1.90813298333333
"S210317"	"Processing_Speed"	"RIGHT"	"DOWN"	253.589000000005	1050.0000021	n/a	n/a	n/a	n/a	n/a	n/a	n/a	"2021-03-17 14:39:27.692021"	"2021-03-17 14:39:28.154052"	30	1.90813298333333
"S210317"	"Processing_Speed"	"LEFT"	"DOWN"	344.501500000007	950.0000019	n/a	n/a	n/a	n/a	n/a	n/a	n/a	"2021-03-17 14:39:29.112561"	"2021-03-17 14:39:29.666052"	31	1.90813298333333
"S210317"	"Processing_Speed"	"LEFT"	"DOWN"	311.556599999989	983.3333353	n/a	n/a	n/a	n/a	n/a	n/a	n/a	"2021-03-17 14:39:30.657414"	"2021-03-17 14:39:31.176568"	32	1.90813298333333
"S210317"	"Processing_Speed"	"LEFT"	"DOWN"	352.227900000003	600.0000012	n/a	n/a	n/a	n/a	n/a	n/a	n/a	"2021-03-17 14:39:31.784976"	"2021-03-17 14:39:32.345256"	33	1.90813298333333
"S210317"	"Processing_Speed"	"LEFT"	"DOWN"	268.943199999995	1266.6666692	n/a	n/a	n/a	n/a	n/a	n/a	n/a	"2021-03-17 14:39:33.620478"	"2021-03-17 14:39:34.097572"	34	1.90813298333333
"S210317"	"Processing_Speed"	"LEFT"	"DOWN"	333.785799999987	1216.6666691	n/a	n/a	n/a	n/a	n/a	n/a	n/a	"2021-03-17 14:39:35.323427"	"2021-03-17 14:39:35.865995"	35	1.90813298333333
"S210317"	"Processing_Speed"	"LEFT"	"DOWN"	330.601999999999	1500.000003	n/a	n/a	n/a	n/a	n/a	n/a	n/a	"2021-03-17 14:39:37.374246"	"2021-03-17 14:39:37.913673"	36	1.90813298333333
"S210317"	"Processing_Speed"	"RIGHT"	"DOWN"	420.187700000014	666.666668	n/a	n/a	n/a	n/a	n/a	n/a	n/a	"2021-03-17 14:39:38.589484"	"2021-03-17 14:39:39.217628"	37	1.90813298333333
"S210317"	"Processing_Speed"	"LEFT"	"DOWN"	262.171500000022	1016.6666687	n/a	n/a	n/a	n/a	n/a	n/a	n/a	"2021-03-17 14:39:40.243042"	"2021-03-17 14:39:40.713436"	38	1.90813298333333
"S210317"	"Processing_Speed"	"RIGHT"	"DOWN"	282.566099999997	1500.000003	n/a	n/a	n/a	n/a	n/a	n/a	n/a	"2021-03-17 14:39:42.222714"	"2021-03-17 14:39:42.713410"	39	1.90813298333333
"S210317"	"Processing_Speed"	"LEFT"	"DOWN"	523.339399999998	700.0000014	n/a	n/a	n/a	n/a	n/a	n/a	n/a	"2021-03-17 14:39:43.422171"	"2021-03-17 14:39:44.152323"	40	1.90813298333333
"S210317"	"Processing_Speed"	"RIGHT"	"DOWN"	281.117800000004	1183.3333357	n/a	n/a	n/a	n/a	n/a	n/a	n/a	"2021-03-17 14:39:45.344424"	"2021-03-17 14:39:45.833098"	41	1.90813298333333
"S210317"	"Processing_Speed"	"RIGHT"	"DOWN"	345.473599999991	950.0000019	n/a	n/a	n/a	n/a	n/a	n/a	n/a	"2021-03-17 14:39:46.791608"	"2021-03-17 14:39:47.344709"	42	1.90813298333333
"S210317"	"Processing_Speed"	"LEFT"	"DOWN"	389.484600000003	850.0000017	n/a	n/a	n/a	n/a	n/a	n/a	n/a	"2021-03-17 14:39:48.203466"	"2021-03-17 14:39:48.800855"	43	1.90813298333333
"S210317"	"Processing_Speed"	"RIGHT"	"DOWN"	214.378500000009	1433.3333362	n/a	n/a	n/a	n/a	n/a	n/a	n/a	"2021-03-17 14:39:50.242500"	"2021-03-17 14:39:50.664326"	44	1.90813298333333
"S210317"	"Processing_Speed"	"LEFT"	"DOWN"	86.8459000000144	1433.3333362	n/a	n/a	n/a	n/a	n/a	n/a	n/a	"2021-03-17 14:39:52.106173"	"2021-03-17 14:39:52.400639"	45	1.90813298333333
"S210317"	"Processing_Speed"	"RIGHT"	"DOWN"	322.581700000001	783.3333349	n/a	n/a	n/a	n/a	n/a	n/a	n/a	"2021-03-17 14:39:53.192588"	"2021-03-17 14:39:53.723402"	46	1.90813298333333
"S210317"	"Processing_Speed"	"RIGHT"	"DOWN"	418.669999999992	1266.6666692	n/a	n/a	n/a	n/a	n/a	n/a	n/a	"2021-03-17 14:39:54.998256"	"2021-03-17 14:39:55.624332"	47	1.90813298333333
"S210317"	"Processing_Speed"	"LEFT"	"DOWN"	292.466300000001	1300.0000026	n/a	n/a	n/a	n/a	n/a	n/a	n/a	"2021-03-17 14:39:56.932909"	"2021-03-17 14:39:57.432583"	48	1.90813298333333
"S210317"	"Processing_Speed"	"LEFT"	"DOWN"	354.641299999997	1333.333336	n/a	n/a	n/a	n/a	n/a	n/a	n/a	"2021-03-17 14:39:58.774263"	"2021-03-17 14:39:59.337876"	49	1.90813298333333
"S210317"	"Processing_Speed"	"LEFT"	"DOWN"	268.030799999991	1466.6666696	n/a	n/a	n/a	n/a	n/a	n/a	n/a	"2021-03-17 14:40:00.813206"	"2021-03-17 14:40:01.289335"	50	1.90813298333333
"S210317"	"Processing_Speed"	"RIGHT"	"DOWN"	362.531700000005	916.6666685	n/a	n/a	n/a	n/a	n/a	n/a	n/a	"2021-03-17 14:40:02.214859"	"2021-03-17 14:40:02.784408"	51	1.90813298333333
"S210317"	"Processing_Speed"	"RIGHT"	"DOWN"	312.078200000002	1400.0000028	n/a	n/a	n/a	n/a	n/a	n/a	n/a	"2021-03-17 14:40:04.193071"	"2021-03-17 14:40:04.712422"	52	1.90813298333333
"S210317"	"Processing_Speed"	"RIGHT"	"DOWN"	371.602300000006	883.3333351	n/a	n/a	n/a	n/a	n/a	n/a	n/a	"2021-03-17 14:40:05.605797"	"2021-03-17 14:40:06.184350"	53	1.90813298333333
"S210317"	"Processing_Speed"	"RIGHT"	"DOWN"	333.572199999992	850.0000017	n/a	n/a	n/a	n/a	n/a	n/a	n/a	"2021-03-17 14:40:07.043079"	"2021-03-17 14:40:07.585319"	54	1.90813298333333
"S210317"	"Processing_Speed"	"RIGHT"	"DOWN"	276.087599999983	1083.3333355	n/a	n/a	n/a	n/a	n/a	n/a	n/a	"2021-03-17 14:40:08.677091"	"2021-03-17 14:40:09.162978"	55	1.90813298333333
"S210317"	"Processing_Speed"	"LEFT"	"DOWN"	343.670900000006	916.6666685	n/a	n/a	n/a	n/a	n/a	n/a	n/a	"2021-03-17 14:40:10.089862"	"2021-03-17 14:40:10.640593"	56	1.90813298333333
"S210317"	"Processing_Speed"	"RIGHT"	"DOWN"	312.9323	533.3333344	n/a	n/a	n/a	n/a	n/a	n/a	n/a	"2021-03-17 14:40:11.183635"	"2021-03-17 14:40:11.705777"	57	1.90813298333333
"S210317"	"Processing_Speed"	"RIGHT"	"DOWN"	326.047499999987	1216.6666691	n/a	n/a	n/a	n/a	n/a	n/a	n/a	"2021-03-17 14:40:12.931253"	"2021-03-17 14:40:13.466157"	58	1.90813298333333
"S210317"	"Processing_Speed"	"RIGHT"	"DOWN"	490.493399999991	500.000001	n/a	n/a	n/a	n/a	n/a	n/a	n/a	"2021-03-17 14:40:13.974664"	"2021-03-17 14:40:14.673758"	59	1.90813298333333
"S210317"	"Processing_Speed"	"LEFT"	"DOWN"	384.942599999988	533.3333344	n/a	n/a	n/a	n/a	n/a	n/a	n/a	"2021-03-17 14:40:15.216410"	"2021-03-17 14:40:15.809264"	60	1.90813298333333
"S210317"	"Response_Inhibition"	"LEFT"	"Time_Max_Exceeded"	1500.04886710001	733.3333348	""	n/a	n/a	n/a	n/a	n/a	n/a	"2021-03-17 14:44:00.451240"	"2021-03-17 14:44:01.955386"	1	6.51336141666667
"S210317"	"Response_Inhibition"	"LEFT"	"LEFT"	557.306299999993	1166.666669	""	n/a	n/a	n/a	n/a	n/a	n/a	"2021-03-17 14:44:03.131291"	"2021-03-17 14:44:03.896317"	2	6.51336141666667
"S210317"	"Response_Inhibition"	"RIGHT"	"RIGHT"	438.026200000024	1450.0000029	""	n/a	n/a	n/a	n/a	n/a	n/a	"2021-03-17 14:44:05.355285"	"2021-03-17 14:44:06.000926"	3	6.51336141666667
"S210317"	"Response_Inhibition"	"LEFT"	"LEFT"	396.301033699979	1200.0000024	""	n/a	n/a	n/a	n/a	n/a	n/a	"2021-03-17 14:44:07.209059"	"2021-03-17 14:44:07.817902"	4	6.51336141666667
"S210317"	"Response_Inhibition"	"LEFT"	"LEFT"	761.312900000007	933.3333352	""	n/a	n/a	n/a	n/a	n/a	n/a	"2021-03-17 14:44:08.759500"	"2021-03-17 14:44:09.729108"	5	6.51336141666667
"S210317"	"Response_Inhibition"	"RIGHT"	"RIGHT"	773.197799999991	850.0000017	""	n/a	n/a	n/a	n/a	n/a	n/a	"2021-03-17 14:44:10.587926"	"2021-03-17 14:44:11.568940"	6	6.51336141666667
"S210317"	"Response_Inhibition"	"RIGHT"	"RIGHT"	800.168499999984	783.3333349	""	n/a	n/a	n/a	n/a	n/a	n/a	"2021-03-17 14:44:12.360834"	"2021-03-17 14:44:13.368472"	7	6.51336141666667
"S210317"	"Response_Inhibition"	"LEFT"	"LEFT"	707.797000000028	500.000001	""	n/a	n/a	n/a	n/a	n/a	n/a	"2021-03-17 14:44:13.877000"	"2021-03-17 14:44:14.792453"	8	6.51336141666667
"S210317"	"Response_Inhibition"	"RIGHT"	"RIGHT"	455.952700000012	1400.0000028	""	n/a	n/a	n/a	n/a	n/a	n/a	"2021-03-17 14:44:16.201078"	"2021-03-17 14:44:16.864393"	9	6.51336141666667
"S210317"	"Response_Inhibition"	"RIGHT"	"RIGHT"	521.1951	1366.6666694	""	n/a	n/a	n/a	n/a	n/a	n/a	"2021-03-17 14:44:18.239278"	"2021-03-17 14:44:18.968412"	10	6.51336141666667
"S210317"	"Response_Inhibition"	"LEFT"	"LEFT"	725.538099999994	633.3333346	""	n/a	n/a	n/a	n/a	n/a	n/a	"2021-03-17 14:44:19.612196"	"2021-03-17 14:44:20.545880"	11	6.51336141666667
"S210317"	"Response_Inhibition"	"LEFT"	"LEFT"	619.663000000003	1266.6666692	""	n/a	n/a	n/a	n/a	n/a	n/a	"2021-03-17 14:44:21.821198"	"2021-03-17 14:44:22.648332"	12	6.51336141666667
"S210317"	"Response_Inhibition"	"LEFT"	"LEFT"	705.517600000007	866.6666684	""	n/a	n/a	n/a	n/a	n/a	n/a	"2021-03-17 14:44:23.527091"	"2021-03-17 14:44:24.440765"	13	6.51336141666667
"S210317"	"Response_Inhibition"	"RIGHT"	"RIGHT"	358.034099999998	1233.3333358	""	n/a	n/a	n/a	n/a	n/a	n/a	"2021-03-17 14:44:25.682192"	"2021-03-17 14:44:26.248439"	14	6.51336141666667
"S210317"	"Response_Inhibition"	"LEFT"	"LEFT"	416.187900000011	1000.000002	""	n/a	n/a	n/a	n/a	n/a	n/a	"2021-03-17 14:44:27.256730"	"2021-03-17 14:44:27.881275"	15	6.51336141666667
"S210317"	"Response_Inhibition"	"RIGHT"	"Time_Max_Exceeded"	1500.05513340002	1200.0000024	""	n/a	n/a	n/a	n/a	n/a	n/a	"2021-03-17 14:44:29.090054"	"2021-03-17 14:44:30.593299"	16	6.51336141666667
"S210317"	"Response_Inhibition"	"RIGHT"	"RIGHT"	577.052200000026	533.3333344	""	n/a	n/a	n/a	n/a	n/a	n/a	"2021-03-17 14:44:31.135423"	"2021-03-17 14:44:31.921198"	17	6.51336141666667
"S210317"	"Response_Inhibition"	"RIGHT"	"Time_Max_Exceeded"	1500.05876679999	1466.6666696	""	n/a	n/a	n/a	n/a	n/a	n/a	"2021-03-17 14:44:33.397016"	"2021-03-17 14:44:34.901168"	18	6.51336141666667
"S210317"	"Response_Inhibition"	"RIGHT"	"RIGHT"	519.90016730001	766.6666682	""	n/a	n/a	n/a	n/a	n/a	n/a	"2021-03-17 14:44:35.677943"	"2021-03-17 14:44:36.408810"	19	6.51336141666667
"S210317"	"Response_Inhibition"	"RIGHT"	"Time_Max_Exceeded"	1500.06310000003	950.0000019	""	n/a	n/a	n/a	n/a	n/a	n/a	"2021-03-17 14:44:37.367183"	"2021-03-17 14:44:38.867320"	20	6.51336141666667
"S210317"	"Response_Inhibition"	"LEFT"	"Time_Max_Exceeded"	1500.06043379997	966.6666686	""	n/a	n/a	n/a	n/a	n/a	n/a	"2021-03-17 14:44:39.843974"	"2021-03-17 14:44:41.346385"	21	6.51336141666667
"S210317"	"Response_Inhibition"	"RIGHT"	"RIGHT"	832.106599999975	733.3333348	""	n/a	n/a	n/a	n/a	n/a	n/a	"2021-03-17 14:44:42.089549"	"2021-03-17 14:44:43.129284"	22	6.51336141666667
"S210317"	"Response_Inhibition"	"RIGHT"	"RIGHT"	735.662100000013	816.6666683	""	n/a	n/a	n/a	n/a	n/a	n/a	"2021-03-17 14:44:43.954811"	"2021-03-17 14:44:44.898183"	23	6.51336141666667
"S210317"	"Response_Inhibition"	"RIGHT"	"Time_Max_Exceeded"	1500.06226700002	1100.0000022	""	n/a	n/a	n/a	n/a	n/a	n/a	"2021-03-17 14:44:46.006886"	"2021-03-17 14:44:47.511171"	24	6.51336141666667
"S210317"	"Response_Inhibition"	"LEFT"	"Time_Max_Exceeded"	1500.05886730001	1016.6666687	""	n/a	n/a	n/a	n/a	n/a	n/a	"2021-03-17 14:44:48.536612"	"2021-03-17 14:44:50.040112"	25	6.51336141666667
"S210317"	"Response_Inhibition"	"LEFT"	"LEFT"	738.467700000001	1133.3333356	""	n/a	n/a	n/a	n/a	n/a	n/a	"2021-03-17 14:44:51.181859"	"2021-03-17 14:44:52.130194"	26	6.51336141666667
"S210317"	"Response_Inhibition"	"LEFT"	"Time_Max_Exceeded"	1500.0576335	850.0000017	""	n/a	n/a	n/a	n/a	n/a	n/a	"2021-03-17 14:44:52.988434"	"2021-03-17 14:44:54.492548"	27	6.51336141666667
"S210317"	"Response_Inhibition"	"LEFT"	"LEFT"	818.339700000024	1033.3333354	""	n/a	n/a	n/a	n/a	n/a	n/a	"2021-03-17 14:44:55.534093"	"2021-03-17 14:44:56.560383"	28	6.51336141666667
"S210317"	"Response_Inhibition"	"LEFT"	"LEFT"	847.01419999999	833.333335	""	n/a	n/a	n/a	n/a	n/a	n/a	"2021-03-17 14:44:57.401728"	"2021-03-17 14:44:58.457120"	29	6.51336141666667
"S210317"	"Response_Inhibition"	"LEFT"	"LEFT"	793.10670000001	550.0000011	""	n/a	n/a	n/a	n/a	n/a	n/a	"2021-03-17 14:44:59.015313"	"2021-03-17 14:45:00.017142"	30	6.51336141666667
"S210317"	"Response_Inhibition"	"LEFT"	"Time_Max_Exceeded"	1500.0515004	1116.6666689	""	n/a	n/a	n/a	n/a	n/a	n/a	"2021-03-17 14:45:01.144400"	"2021-03-17 14:45:02.647868"	31	6.51336141666667
"S210317"	"Response_Inhibition"	"RIGHT"	"RIGHT"	740.477099999964	1466.6666696	""	n/a	n/a	n/a	n/a	n/a	n/a	"2021-03-17 14:45:04.124018"	"2021-03-17 14:45:05.072738"	32	6.51336141666667
"S210317"	"Response_Inhibition"	"LEFT"	"LEFT"	808.520499999986	950.0000019	""	n/a	n/a	n/a	n/a	n/a	n/a	"2021-03-17 14:45:06.032415"	"2021-03-17 14:45:07.048750"	33	6.51336141666667
"S210317"	"Response_Inhibition"	"RIGHT"	"RIGHT"	657.181199999968	1150.0000023	""	n/a	n/a	n/a	n/a	n/a	n/a	"2021-03-17 14:45:08.207298"	"2021-03-17 14:45:09.074044"	34	6.51336141666667
"S210317"	"Response_Inhibition"	"RIGHT"	"RIGHT"	894.475199999988	800.0000016	""	n/a	n/a	n/a	n/a	n/a	n/a	"2021-03-17 14:45:09.881949"	"2021-03-17 14:45:10.984947"	35	6.51336141666667
"S210317"	"Response_Inhibition"	"RIGHT"	"RIGHT"	831.325499999991	1183.3333357	""	n/a	n/a	n/a	n/a	n/a	n/a	"2021-03-17 14:45:12.177961"	"2021-03-17 14:45:13.216423"	36	6.51336141666667
"S210317"	"Response_Inhibition"	"LEFT"	"Time_Max_Exceeded"	1500.05813390001	783.3333349	""	n/a	n/a	n/a	n/a	n/a	n/a	"2021-03-17 14:45:14.008749"	"2021-03-17 14:45:15.512340"	37	6.51336141666667
"S210317"	"Response_Inhibition"	"LEFT"	"LEFT"	720.062799999994	583.3333345	""	n/a	n/a	n/a	n/a	n/a	n/a	"2021-03-17 14:45:16.104926"	"2021-03-17 14:45:17.032941"	38	6.51336141666667
"S210317"	"Response_Inhibition"	"LEFT"	"LEFT"	825.155800000005	1150.0000023	""	n/a	n/a	n/a	n/a	n/a	n/a	"2021-03-17 14:45:18.191480"	"2021-03-17 14:45:19.224316"	39	6.51336141666667
"S210317"	"Response_Inhibition"	"RIGHT"	"Time_Max_Exceeded"	1500.0566671	566.6666678	""	n/a	n/a	n/a	n/a	n/a	n/a	"2021-03-17 14:45:19.798987"	"2021-03-17 14:45:21.303010"	40	6.51336141666667
"S210317"	"Response_Inhibition"	"RIGHT"	"RIGHT"	749.125499999991	1500.000003	""	n/a	n/a	n/a	n/a	n/a	n/a	"2021-03-17 14:45:22.812431"	"2021-03-17 14:45:23.769292"	41	6.51336141666667
"S210317"	"Response_Inhibition"	"RIGHT"	"Time_Max_Exceeded"	1500.062934	1316.6666693	""	n/a	n/a	n/a	n/a	n/a	n/a	"2021-03-17 14:45:25.094284"	"2021-03-17 14:45:26.597786"	42	6.51336141666667
"S210317"	"Response_Inhibition"	"RIGHT"	"RIGHT"	882.837999999992	983.3333353	""	n/a	n/a	n/a	n/a	n/a	n/a	"2021-03-17 14:45:27.590207"	"2021-03-17 14:45:28.681210"	43	6.51336141666667
"S210317"	"Response_Inhibition"	"LEFT"	"LEFT"	1010.05959999998	1100.0000022	""	n/a	n/a	n/a	n/a	n/a	n/a	"2021-03-17 14:45:29.790889"	"2021-03-17 14:45:31.008932"	44	6.51336141666667
"S210317"	"Response_Inhibition"	"LEFT"	"LEFT"	775.336799999991	1000.000002	""	n/a	n/a	n/a	n/a	n/a	n/a	"2021-03-17 14:45:32.017673"	"2021-03-17 14:45:33.000311"	45	6.51336141666667
"S210317"	"Response_Inhibition"	"RIGHT"	"RIGHT"	800.606000000016	783.3333349	""	n/a	n/a	n/a	n/a	n/a	n/a	"2021-03-17 14:45:33.792270"	"2021-03-17 14:45:34.800940"	46	6.51336141666667
"S210317"	"Response_Inhibition"	"LEFT"	"Time_Max_Exceeded"	1500.05233370003	950.0000019	""	n/a	n/a	n/a	n/a	n/a	n/a	"2021-03-17 14:45:35.758949"	"2021-03-17 14:45:37.263070"	47	6.51336141666667
"S210317"	"Response_Inhibition"	"LEFT"	"LEFT"	848.672299999976	1216.6666691	""	n/a	n/a	n/a	n/a	n/a	n/a	"2021-03-17 14:45:38.487963"	"2021-03-17 14:45:39.544586"	48	6.51336141666667
"S210317"	"Response_Inhibition"	"RIGHT"	"Time_Max_Exceeded"	1500.06096700001	866.6666684	""	n/a	n/a	n/a	n/a	n/a	n/a	"2021-03-17 14:45:40.420280"	"2021-03-17 14:45:41.923298"	49	6.51336141666667
"S210317"	"Response_Inhibition"	"LEFT"	"LEFT"	763.878399999953	800.0000016	""	n/a	n/a	n/a	n/a	n/a	n/a	"2021-03-17 14:45:42.733214"	"2021-03-17 14:45:43.704373"	50	6.51336141666667
"S210317"	"Response_Inhibition"	"RIGHT"	"Time_Max_Exceeded"	1500.0722334	1283.3333359	""	n/a	n/a	n/a	n/a	n/a	n/a	"2021-03-17 14:45:44.997204"	"2021-03-17 14:45:46.501214"	51	6.51336141666667
"S210317"	"Response_Inhibition"	"RIGHT"	"RIGHT"	725.521100000037	1333.333336	""	n/a	n/a	n/a	n/a	n/a	n/a	"2021-03-17 14:45:47.842943"	"2021-03-17 14:45:48.776973"	52	6.51336141666667
"S210317"	"Response_Inhibition"	"RIGHT"	"Time_Max_Exceeded"	1500.05750009996	733.3333348	""	n/a	n/a	n/a	n/a	n/a	n/a	"2021-03-17 14:45:49.518956"	"2021-03-17 14:45:51.021716"	53	6.51336141666667
"S210317"	"Response_Inhibition"	"RIGHT"	"Time_Max_Exceeded"	1500.29053379998	700.0000014	""	n/a	n/a	n/a	n/a	n/a	n/a	"2021-03-17 14:45:51.731356"	"2021-03-17 14:45:53.235431"	54	6.51336141666667
"S210317"	"Response_Inhibition"	"LEFT"	"LEFT"	824.114899999927	1100.0000022	""	n/a	n/a	n/a	n/a	n/a	n/a	"2021-03-17 14:45:54.344612"	"2021-03-17 14:45:55.376563"	55	6.51336141666667
"S210317"	"Response_Inhibition"	"RIGHT"	"RIGHT"	1155.43609999997	500.000001	""	n/a	n/a	n/a	n/a	n/a	n/a	"2021-03-17 14:45:55.885206"	"2021-03-17 14:45:57.249758"	56	6.51336141666667
"S210317"	"Response_Inhibition"	"RIGHT"	"Time_Max_Exceeded"	1500.05490010005	1216.6666691	""	n/a	n/a	n/a	n/a	n/a	n/a	"2021-03-17 14:45:58.474931"	"2021-03-17 14:45:59.978021"	57	6.51336141666667
"S210317"	"Response_Inhibition"	"LEFT"	"LEFT"	608.779600000048	1316.6666693	""	n/a	n/a	n/a	n/a	n/a	n/a	"2021-03-17 14:46:01.303665"	"2021-03-17 14:46:02.120475"	58	6.51336141666667
"S210317"	"Response_Inhibition"	"RIGHT"	"RIGHT"	822.66340000001	633.3333346	""	n/a	n/a	n/a	n/a	n/a	n/a	"2021-03-17 14:46:02.762413"	"2021-03-17 14:46:03.793481"	59	6.51336141666667
"S210317"	"Response_Inhibition"	"LEFT"	"LEFT"	865.580999999906	716.6666681	""	n/a	n/a	n/a	n/a	n/a	n/a	"2021-03-17 14:46:04.518901"	"2021-03-17 14:46:05.593231"	60	6.51336141666667
"S210317"	"Response_Inhibition"	"LEFT"	"LEFT"	619.912900000031	650.0000013	""	n/a	n/a	n/a	n/a	n/a	n/a	"2021-03-17 14:46:06.253162"	"2021-03-17 14:46:07.080960"	61	6.51336141666667
"S210317"	"Response_Inhibition"	"LEFT"	"LEFT"	694.934500000045	583.3333345	""	n/a	n/a	n/a	n/a	n/a	n/a	"2021-03-17 14:46:07.673880"	"2021-03-17 14:46:08.576954"	62	6.51336141666667
"S210317"	"Response_Inhibition"	"LEFT"	"Time_Max_Exceeded"	1500.06976670003	1183.3333357	""	n/a	n/a	n/a	n/a	n/a	n/a	"2021-03-17 14:46:09.769462"	"2021-03-17 14:46:11.272659"	63	6.51336141666667
"S210317"	"Response_Inhibition"	"RIGHT"	"RIGHT"	675.025399999981	1050.0000021	""	n/a	n/a	n/a	n/a	n/a	n/a	"2021-03-17 14:46:12.333926"	"2021-03-17 14:46:13.216277"	64	6.51336141666667
"S210317"	"Response_Inhibition"	"RIGHT"	"Time_Max_Exceeded"	1500.06333350003	900.0000018	""	n/a	n/a	n/a	n/a	n/a	n/a	"2021-03-17 14:46:14.124822"	"2021-03-17 14:46:15.628226"	65	6.51336141666667
"S210317"	"Response_Inhibition"	"LEFT"	"Time_Max_Exceeded"	1500.05860060003	516.6666677	""	n/a	n/a	n/a	n/a	n/a	n/a	"2021-03-17 14:46:16.153867"	"2021-03-17 14:46:17.657292"	66	6.51336141666667
"S210317"	"Response_Inhibition"	"LEFT"	"LEFT"	757.56100000001	1233.3333358	""	n/a	n/a	n/a	n/a	n/a	n/a	"2021-03-17 14:46:18.898849"	"2021-03-17 14:46:19.865221"	67	6.51336141666667
"S210317"	"Response_Inhibition"	"LEFT"	"Time_Max_Exceeded"	1500.05673389998	616.6666679	""	n/a	n/a	n/a	n/a	n/a	n/a	"2021-03-17 14:46:20.490764"	"2021-03-17 14:46:21.993356"	68	6.51336141666667
"S210317"	"Response_Inhibition"	"LEFT"	"Time_Max_Exceeded"	1500.05680010008	1316.6666693	""	n/a	n/a	n/a	n/a	n/a	n/a	"2021-03-17 14:46:23.319872"	"2021-03-17 14:46:24.822829"	69	6.51336141666667
"S210317"	"Response_Inhibition"	"LEFT"	"LEFT"	714.005799999995	750.0000015	""	n/a	n/a	n/a	n/a	n/a	n/a	"2021-03-17 14:46:25.583704"	"2021-03-17 14:46:26.504350"	70	6.51336141666667
"S210317"	"Response_Inhibition"	"RIGHT"	"RIGHT"	734.884599999987	1416.6666695	""	n/a	n/a	n/a	n/a	n/a	n/a	"2021-03-17 14:46:27.929409"	"2021-03-17 14:46:28.872786"	71	6.51336141666667
"S210317"	"Response_Inhibition"	"RIGHT"	"RIGHT"	996.497500000032	1083.3333355	""	n/a	n/a	n/a	n/a	n/a	n/a	"2021-03-17 14:46:29.964433"	"2021-03-17 14:46:31.168788"	72	6.51336141666667
"S210317"	"Response_Inhibition"	"LEFT"	"LEFT"	877.699199999938	1216.6666691	""	n/a	n/a	n/a	n/a	n/a	n/a	"2021-03-17 14:46:32.394511"	"2021-03-17 14:46:33.480717"	73	6.51336141666667
"S210317"	"Response_Inhibition"	"RIGHT"	"RIGHT"	580.487299999959	1266.6666692	""	n/a	n/a	n/a	n/a	n/a	n/a	"2021-03-17 14:46:34.756374"	"2021-03-17 14:46:35.544476"	74	6.51336141666667
"S210317"	"Response_Inhibition"	"LEFT"	"LEFT"	691.499300000032	1500.000003	""	n/a	n/a	n/a	n/a	n/a	n/a	"2021-03-17 14:46:37.053111"	"2021-03-17 14:46:37.952850"	75	6.51336141666667
"S210317"	"Response_Inhibition"	"LEFT"	"LEFT"	743.636299999935	1366.6666694	""	n/a	n/a	n/a	n/a	n/a	n/a	"2021-03-17 14:46:39.329381"	"2021-03-17 14:46:40.280893"	76	6.51336141666667
"S210317"	"Response_Inhibition"	"LEFT"	"LEFT"	608.556967400023	1466.6666696	""	n/a	n/a	n/a	n/a	n/a	n/a	"2021-03-17 14:46:41.757067"	"2021-03-17 14:46:42.576381"	77	6.51336141666667
"S210317"	"Response_Inhibition"	"RIGHT"	"RIGHT"	735.254300000065	583.3333345	""	n/a	n/a	n/a	n/a	n/a	n/a	"2021-03-17 14:46:43.169315"	"2021-03-17 14:46:44.112347"	78	6.51336141666667
"S210317"	"Response_Inhibition"	"RIGHT"	"RIGHT"	775.194400000032	1216.6666691	""	n/a	n/a	n/a	n/a	n/a	n/a	"2021-03-17 14:46:45.337073"	"2021-03-17 14:46:46.321884"	79	6.51336141666667
"S210317"	"Response_Inhibition"	"RIGHT"	"RIGHT"	816.484699999933	1150.0000023	""	n/a	n/a	n/a	n/a	n/a	n/a	"2021-03-17 14:46:47.480304"	"2021-03-17 14:46:48.505061"	80	6.51336141666667
"S210317"	"Response_Inhibition"	"LEFT"	"Time_Max_Exceeded"	1500.0896666999	1300.0000026	""	n/a	n/a	n/a	n/a	n/a	n/a	"2021-03-17 14:46:49.814208"	"2021-03-17 14:46:51.317959"	81	6.51336141666667
"S210317"	"Response_Inhibition"	"RIGHT"	"RIGHT"	614.45260000005	1066.6666688	""	n/a	n/a	n/a	n/a	n/a	n/a	"2021-03-17 14:46:52.393909"	"2021-03-17 14:46:53.216942"	82	6.51336141666667
"S210317"	"Response_Inhibition"	"LEFT"	"Time_Max_Exceeded"	1500.04830019998	1383.3333361	""	n/a	n/a	n/a	n/a	n/a	n/a	"2021-03-17 14:46:54.609265"	"2021-03-17 14:46:56.112606"	83	6.51336141666667
"S210317"	"Response_Inhibition"	"RIGHT"	"RIGHT"	612.410400000044	1250.0000025	""	n/a	n/a	n/a	n/a	n/a	n/a	"2021-03-17 14:46:57.372326"	"2021-03-17 14:46:58.191744"	84	6.51336141666667
"S210317"	"Response_Inhibition"	"RIGHT"	"RIGHT"	1001.81120000002	750.0000015	""	n/a	n/a	n/a	n/a	n/a	n/a	"2021-03-17 14:46:58.950962"	"2021-03-17 14:47:00.160615"	85	6.51336141666667
"S210317"	"Response_Inhibition"	"LEFT"	"Time_Max_Exceeded"	1500.07020059991	733.3333348	""	n/a	n/a	n/a	n/a	n/a	n/a	"2021-03-17 14:47:00.902723"	"2021-03-17 14:47:02.406498"	86	6.51336141666667
"S210317"	"Response_Inhibition"	"LEFT"	"LEFT"	767.791699999975	1250.0000025	""	n/a	n/a	n/a	n/a	n/a	n/a	"2021-03-17 14:47:03.664561"	"2021-03-17 14:47:04.640949"	87	6.51336141666667
"S210317"	"Response_Inhibition"	"RIGHT"	"RIGHT"	1124.79080000003	666.666668	""	n/a	n/a	n/a	n/a	n/a	n/a	"2021-03-17 14:47:05.316226"	"2021-03-17 14:47:06.648571"	88	6.51336141666667
"S210317"	"Response_Inhibition"	"RIGHT"	"Time_Max_Exceeded"	1500.05896740008	1016.6666687	""	n/a	n/a	n/a	n/a	n/a	n/a	"2021-03-17 14:47:07.673444"	"2021-03-17 14:47:09.176771"	89	6.51336141666667
"S210317"	"Response_Inhibition"	"RIGHT"	"RIGHT"	658.669700000019	900.0000018	""	n/a	n/a	n/a	n/a	n/a	n/a	"2021-03-17 14:47:10.085891"	"2021-03-17 14:47:10.952473"	90	6.51336141666667
"S210317"	"Response_Inhibition"	"RIGHT"	"RIGHT"	793.532300000038	933.3333352	""	n/a	n/a	n/a	n/a	n/a	n/a	"2021-03-17 14:47:11.895601"	"2021-03-17 14:47:12.896475"	91	6.51336141666667
"S210317"	"Response_Inhibition"	"LEFT"	"LEFT"	1140.90780000004	666.666668	""	n/a	n/a	n/a	n/a	n/a	n/a	"2021-03-17 14:47:13.571897"	"2021-03-17 14:47:14.920427"	92	6.51336141666667
"S210317"	"Response_Inhibition"	"LEFT"	"LEFT"	786.414000000036	900.0000018	""	n/a	n/a	n/a	n/a	n/a	n/a	"2021-03-17 14:47:15.829870"	"2021-03-17 14:47:16.824746"	93	6.51336141666667
"S210317"	"Response_Inhibition"	"LEFT"	"Time_Max_Exceeded"	1500.05800029999	633.3333346	""	n/a	n/a	n/a	n/a	n/a	n/a	"2021-03-17 14:47:17.466618"	"2021-03-17 14:47:18.970222"	94	6.51336141666667
"S210317"	"Response_Inhibition"	"RIGHT"	"Time_Max_Exceeded"	1500.06176690003	650.0000013	""	n/a	n/a	n/a	n/a	n/a	n/a	"2021-03-17 14:47:19.629459"	"2021-03-17 14:47:21.133729"	95	6.51336141666667
"S210317"	"Response_Inhibition"	"LEFT"	"LEFT"	555.58910000002	1366.6666694	""	n/a	n/a	n/a	n/a	n/a	n/a	"2021-03-17 14:47:22.509237"	"2021-03-17 14:47:23.272965"	96	6.51336141666667
"S210317"	"Response_Inhibition"	"LEFT"	"LEFT"	616.120100000103	983.3333353	""	n/a	n/a	n/a	n/a	n/a	n/a	"2021-03-17 14:47:24.264362"	"2021-03-17 14:47:25.088935"	97	6.51336141666667
"S210317"	"Response_Inhibition"	"LEFT"	"LEFT"	582.601700000055	1416.6666695	""	n/a	n/a	n/a	n/a	n/a	n/a	"2021-03-17 14:47:26.513776"	"2021-03-17 14:47:27.306190"	98	6.51336141666667
"S210317"	"Response_Inhibition"	"LEFT"	"LEFT"	1133.80280000001	600.0000012	""	n/a	n/a	n/a	n/a	n/a	n/a	"2021-03-17 14:47:27.914564"	"2021-03-17 14:47:29.256609"	99	6.51336141666667
"S210317"	"Response_Inhibition"	"LEFT"	"LEFT"	553.491600000029	1150.0000023	""	n/a	n/a	n/a	n/a	n/a	n/a	"2021-03-17 14:47:30.414982"	"2021-03-17 14:47:31.178006"	100	6.51336141666667
"S210317"	"Response_Inhibition"	"LEFT"	"LEFT"	498.39709999992	1283.3333359	""	n/a	n/a	n/a	n/a	n/a	n/a	"2021-03-17 14:47:32.470477"	"2021-03-17 14:47:33.176534"	101	6.51336141666667
"S210317"	"Response_Inhibition"	"LEFT"	"Time_Max_Exceeded"	1500.06093369992	1433.3333362	""	n/a	n/a	n/a	n/a	n/a	n/a	"2021-03-17 14:47:34.619384"	"2021-03-17 14:47:36.122318"	102	6.51336141666667
"S210317"	"Response_Inhibition"	"LEFT"	"LEFT"	664.235500000018	916.6666685	""	n/a	n/a	n/a	n/a	n/a	n/a	"2021-03-17 14:47:37.048650"	"2021-03-17 14:47:37.920332"	103	6.51336141666667
"S210317"	"Response_Inhibition"	"LEFT"	"LEFT"	1483.80129999998	683.3333347	""	n/a	n/a	n/a	n/a	n/a	n/a	"2021-03-17 14:47:38.613053"	"2021-03-17 14:47:40.304989"	104	6.51336141666667
"S210317"	"Response_Inhibition"	"LEFT"	"Time_Max_Exceeded"	1500.06440000004	1266.6666692	""	n/a	n/a	n/a	n/a	n/a	n/a	"2021-03-17 14:47:41.580868"	"2021-03-17 14:47:43.081171"	105	6.51336141666667
"S210317"	"Response_Inhibition"	"LEFT"	"LEFT"	556.698100000062	1050.0000021	""	n/a	n/a	n/a	n/a	n/a	n/a	"2021-03-17 14:47:44.139421"	"2021-03-17 14:47:44.904432"	106	6.51336141666667
"S210317"	"Response_Inhibition"	"RIGHT"	"RIGHT"	545.197400000006	966.6666686	""	n/a	n/a	n/a	n/a	n/a	n/a	"2021-03-17 14:47:45.879426"	"2021-03-17 14:47:46.632747"	107	6.51336141666667
"S210317"	"Response_Inhibition"	"RIGHT"	"RIGHT"	575.674100000015	583.3333345	""	n/a	n/a	n/a	n/a	n/a	n/a	"2021-03-17 14:47:47.225304"	"2021-03-17 14:47:48.008401"	108	6.51336141666667
"S210317"	"Response_Inhibition"	"RIGHT"	"RIGHT"	630.81939999995	616.6666679	""	n/a	n/a	n/a	n/a	n/a	n/a	"2021-03-17 14:47:48.633513"	"2021-03-17 14:47:49.472806"	109	6.51336141666667
"S210317"	"Response_Inhibition"	"RIGHT"	"RIGHT"	378.661067200071	833.333335	""	n/a	n/a	n/a	n/a	n/a	n/a	"2021-03-17 14:47:50.314606"	"2021-03-17 14:47:50.904290"	110	6.51336141666667
"S210317"	"Response_Inhibition"	"RIGHT"	"Time_Max_Exceeded"	1500.06600040002	600.0000012	""	n/a	n/a	n/a	n/a	n/a	n/a	"2021-03-17 14:47:51.512681"	"2021-03-17 14:47:53.016403"	111	6.51336141666667
"S210317"	"Response_Inhibition"	"RIGHT"	"RIGHT"	660.83279999998	1266.6666692	""	n/a	n/a	n/a	n/a	n/a	n/a	"2021-03-17 14:47:54.291881"	"2021-03-17 14:47:55.160654"	112	6.51336141666667
"S210317"	"Response_Inhibition"	"RIGHT"	"RIGHT"	430.079399999954	1433.3333362	""	n/a	n/a	n/a	n/a	n/a	n/a	"2021-03-17 14:47:56.602365"	"2021-03-17 14:47:57.240310"	113	6.51336141666667
"S210317"	"Response_Inhibition"	"LEFT"	"Time_Max_Exceeded"	1500.04760019999	816.6666683	""	n/a	n/a	n/a	n/a	n/a	n/a	"2021-03-17 14:47:58.065758"	"2021-03-17 14:47:59.568895"	114	6.51336141666667
"S210317"	"Response_Inhibition"	"RIGHT"	"Time_Max_Exceeded"	1500.04906680003	633.3333346	""	n/a	n/a	n/a	n/a	n/a	n/a	"2021-03-17 14:48:00.211490"	"2021-03-17 14:48:01.715430"	115	6.51336141666667
"S210317"	"Response_Inhibition"	"RIGHT"	"Time_Max_Exceeded"	1500.06103359996	533.3333344	""	n/a	n/a	n/a	n/a	n/a	n/a	"2021-03-17 14:48:02.257843"	"2021-03-17 14:48:03.760869"	116	6.51336141666667
"S210317"	"Response_Inhibition"	"LEFT"	"LEFT"	442.949800000065	883.3333351	""	n/a	n/a	n/a	n/a	n/a	n/a	"2021-03-17 14:48:04.654058"	"2021-03-17 14:48:05.304338"	117	6.51336141666667
"S210317"	"Response_Inhibition"	"RIGHT"	"RIGHT"	718.149899999958	1050.0000021	""	n/a	n/a	n/a	n/a	n/a	n/a	"2021-03-17 14:48:06.362773"	"2021-03-17 14:48:07.288439"	118	6.51336141666667
"S210317"	"Response_Inhibition"	"RIGHT"	"RIGHT"	579.789100000085	883.3333351	""	n/a	n/a	n/a	n/a	n/a	n/a	"2021-03-17 14:48:08.181127"	"2021-03-17 14:48:08.969234"	119	6.51336141666667
"S210317"	"Response_Inhibition"	"LEFT"	"LEFT"	556.694099999959	850.0000017	""	n/a	n/a	n/a	n/a	n/a	n/a	"2021-03-17 14:48:09.828663"	"2021-03-17 14:48:10.592388"	120	6.51336141666667
"S210317"	"Response_Inhibition"	"RIGHT"	"Time_Max_Exceeded"	1500.05696730004	1383.3333361	""	n/a	n/a	n/a	n/a	n/a	n/a	"2021-03-17 14:48:11.984020"	"2021-03-17 14:48:13.487497"	121	6.51336141666667
"S210317"	"Response_Inhibition"	"LEFT"	"LEFT"	1026.22289999999	533.3333344	""	n/a	n/a	n/a	n/a	n/a	n/a	"2021-03-17 14:48:14.030752"	"2021-03-17 14:48:15.264464"	122	6.51336141666667
"S210317"	"Response_Inhibition"	"RIGHT"	"Time_Max_Exceeded"	1500.05720050001	1483.3333363	""	n/a	n/a	n/a	n/a	n/a	n/a	"2021-03-17 14:48:16.756227"	"2021-03-17 14:48:18.260019"	123	6.51336141666667
"S210317"	"Response_Inhibition"	"LEFT"	"Time_Max_Exceeded"	1500.04973400004	566.6666678	""	n/a	n/a	n/a	n/a	n/a	n/a	"2021-03-17 14:48:18.836510"	"2021-03-17 14:48:20.339399"	124	6.51336141666667
"S210317"	"Response_Inhibition"	"RIGHT"	"RIGHT"	711.6671	1300.0000026	""	n/a	n/a	n/a	n/a	n/a	n/a	"2021-03-17 14:48:21.649363"	"2021-03-17 14:48:22.567503"	125	6.51336141666667
"S210317"	"Response_Inhibition"	"LEFT"	"LEFT"	614.780799999949	1450.0000029	""	n/a	n/a	n/a	n/a	n/a	n/a	"2021-03-17 14:48:24.025929"	"2021-03-17 14:48:24.849105"	126	6.51336141666667
"S210317"	"Response_Inhibition"	"RIGHT"	"RIGHT"	760.950099999945	550.0000011	""	n/a	n/a	n/a	n/a	n/a	n/a	"2021-03-17 14:48:25.407824"	"2021-03-17 14:48:26.375371"	127	6.51336141666667
"S210317"	"Response_Inhibition"	"RIGHT"	"RIGHT"	752.293099999974	1000.000002	""	n/a	n/a	n/a	n/a	n/a	n/a	"2021-03-17 14:48:27.384779"	"2021-03-17 14:48:28.344335"	128	6.51336141666667
"S210317"	"Response_Inhibition"	"RIGHT"	"RIGHT"	682.449199999951	1133.3333356	""	n/a	n/a	n/a	n/a	n/a	n/a	"2021-03-17 14:48:29.485849"	"2021-03-17 14:48:30.376313"	129	6.51336141666667
"S210317"	"Response_Inhibition"	"RIGHT"	"RIGHT"	930.713100000048	916.6666685	""	n/a	n/a	n/a	n/a	n/a	n/a	"2021-03-17 14:48:31.301406"	"2021-03-17 14:48:32.439327"	130	6.51336141666667
"S210317"	"Response_Inhibition"	"LEFT"	"Time_Max_Exceeded"	1500.05880070001	683.3333347	""	n/a	n/a	n/a	n/a	n/a	n/a	"2021-03-17 14:48:33.132555"	"2021-03-17 14:48:34.634989"	131	6.51336141666667
"S210317"	"Response_Inhibition"	"RIGHT"	"RIGHT"	536.832599999912	683.3333347	""	n/a	n/a	n/a	n/a	n/a	n/a	"2021-03-17 14:48:35.327280"	"2021-03-17 14:48:36.072912"	132	6.51336141666667
"S210317"	"Response_Inhibition"	"LEFT"	"LEFT"	1353.6795	533.3333344	""	n/a	n/a	n/a	n/a	n/a	n/a	"2021-03-17 14:48:36.614998"	"2021-03-17 14:48:38.176447"	133	6.51336141666667
"S210317"	"Response_Inhibition"	"RIGHT"	"Time_Max_Exceeded"	1500.05046719996	1033.3333354	""	n/a	n/a	n/a	n/a	n/a	n/a	"2021-03-17 14:48:39.218135"	"2021-03-17 14:48:40.721350"	134	6.51336141666667
"S210317"	"Response_Inhibition"	"LEFT"	"LEFT"	646.489799999927	766.6666682	""	n/a	n/a	n/a	n/a	n/a	n/a	"2021-03-17 14:48:41.498434"	"2021-03-17 14:48:42.352912"	135	6.51336141666667
"S210317"	"Response_Inhibition"	"RIGHT"	"Time_Max_Exceeded"	1500.05156690001	1166.666669	""	n/a	n/a	n/a	n/a	n/a	n/a	"2021-03-17 14:48:43.529106"	"2021-03-17 14:48:45.032425"	136	6.51336141666667
"S210317"	"Response_Inhibition"	"RIGHT"	"Time_Max_Exceeded"	1500.05910049993	1100.0000022	""	n/a	n/a	n/a	n/a	n/a	n/a	"2021-03-17 14:48:46.142108"	"2021-03-17 14:48:47.644955"	137	6.51336141666667
"S210317"	"Response_Inhibition"	"RIGHT"	"Time_Max_Exceeded"	1500.05403360009	1366.6666694	""	n/a	n/a	n/a	n/a	n/a	n/a	"2021-03-17 14:48:49.021566"	"2021-03-17 14:48:50.524825"	138	6.51336141666667
"S210317"	"Response_Inhibition"	"RIGHT"	"RIGHT"	668.612399999915	1350.0000027	""	n/a	n/a	n/a	n/a	n/a	n/a	"2021-03-17 14:48:51.884171"	"2021-03-17 14:48:52.760290"	139	6.51336141666667
"S210317"	"Response_Inhibition"	"LEFT"	"Time_Max_Exceeded"	1500.04820070001	1350.0000027	""	n/a	n/a	n/a	n/a	n/a	n/a	"2021-03-17 14:48:54.118722"	"2021-03-17 14:48:55.621772"	140	6.51336141666667
"S210317"	"Response_Inhibition"	"LEFT"	"LEFT"	1177.47530000008	1400.0000028	""	n/a	n/a	n/a	n/a	n/a	n/a	"2021-03-17 14:48:57.031181"	"2021-03-17 14:48:58.416664"	141	6.51336141666667
"S210317"	"Response_Inhibition"	"LEFT"	"Time_Max_Exceeded"	1500.05843380003	1050.0000021	""	n/a	n/a	n/a	n/a	n/a	n/a	"2021-03-17 14:48:59.475872"	"2021-03-17 14:49:00.980154"	142	6.51336141666667
"S210317"	"Response_Inhibition"	"RIGHT"	"Time_Max_Exceeded"	1500.06090030002	1416.6666695	""	n/a	n/a	n/a	n/a	n/a	n/a	"2021-03-17 14:49:02.405022"	"2021-03-17 14:49:03.908751"	143	6.51336141666667
"S210317"	"Response_Inhibition"	"LEFT"	"LEFT"	991.094099999941	1483.3333363	""	n/a	n/a	n/a	n/a	n/a	n/a	"2021-03-17 14:49:05.401470"	"2021-03-17 14:49:06.600432"	144	6.51336141666667
"S210317"	"Response_Inhibition"	"RIGHT"	"Time_Max_Exceeded"	1500.26290019992	950.0000019	""	n/a	n/a	n/a	n/a	n/a	n/a	"2021-03-17 14:49:07.559090"	"2021-03-17 14:49:09.062248"	145	6.51336141666667
"S210317"	"Response_Inhibition"	"LEFT"	"LEFT"	702.319999999986	1466.6666696	""	n/a	n/a	n/a	n/a	n/a	n/a	"2021-03-17 14:49:10.538005"	"2021-03-17 14:49:11.449153"	146	6.51336141666667
"S210317"	"Response_Inhibition"	"RIGHT"	"RIGHT"	790.934099999959	1000.000002	""	n/a	n/a	n/a	n/a	n/a	n/a	"2021-03-17 14:49:12.457686"	"2021-03-17 14:49:13.457119"	147	6.51336141666667
"S210317"	"Response_Inhibition"	"RIGHT"	"RIGHT"	875.231699999972	683.3333347	""	n/a	n/a	n/a	n/a	n/a	n/a	"2021-03-17 14:49:14.149737"	"2021-03-17 14:49:15.232429"	148	6.51336141666667
"S210317"	"Response_Inhibition"	"LEFT"	"LEFT"	808.245599999964	783.3333349	""	n/a	n/a	n/a	n/a	n/a	n/a	"2021-03-17 14:49:16.024419"	"2021-03-17 14:49:17.041024"	149	6.51336141666667
"S210317"	"Response_Inhibition"	"LEFT"	"LEFT"	725.368600000024	1416.6666695	""	n/a	n/a	n/a	n/a	n/a	n/a	"2021-03-17 14:49:18.467417"	"2021-03-17 14:49:19.401189"	150	6.51336141666667
"S210317"	"Response_Inhibition"	"LEFT"	"Time_Max_Exceeded"	1500.05236719999	1083.3333355	""	n/a	n/a	n/a	n/a	n/a	n/a	"2021-03-17 14:49:20.492836"	"2021-03-17 14:49:21.996529"	151	6.51336141666667
"S210317"	"Response_Inhibition"	"RIGHT"	"RIGHT"	695.109500000058	1116.6666689	""	n/a	n/a	n/a	n/a	n/a	n/a	"2021-03-17 14:49:23.121692"	"2021-03-17 14:49:24.025011"	152	6.51336141666667
"S210317"	"Response_Inhibition"	"RIGHT"	"Time_Max_Exceeded"	1500.05710000005	716.6666681	""	n/a	n/a	n/a	n/a	n/a	n/a	"2021-03-17 14:49:24.750579"	"2021-03-17 14:49:26.250552"	153	6.51336141666667
"S210317"	"Response_Inhibition"	"LEFT"	"LEFT"	426.536800000008	1066.6666688	"RIGHT"	-881.094	n/a	n/a	n/a	n/a	n/a	"2021-03-17 14:49:27.326111"	"2021-03-17 14:49:27.959405"	154	6.51336141666667
"S210317"	"Response_Inhibition"	"RIGHT"	"RIGHT"	484.614800000031	516.6666677	""	n/a	n/a	n/a	n/a	n/a	n/a	"2021-03-17 14:49:28.484181"	"2021-03-17 14:49:29.176456"	155	6.51336141666667
"S210317"	"Response_Inhibition"	"RIGHT"	"RIGHT"	445.51290000004	850.0000017	""	n/a	n/a	n/a	n/a	n/a	n/a	"2021-03-17 14:49:30.035207"	"2021-03-17 14:49:30.689235"	156	6.51336141666667
"S210317"	"Response_Inhibition"	"LEFT"	"LEFT"	609.609599999999	1333.333336	""	n/a	n/a	n/a	n/a	n/a	n/a	"2021-03-17 14:49:32.030734"	"2021-03-17 14:49:32.849057"	157	6.51336141666667
"S210317"	"Response_Inhibition"	"LEFT"	"LEFT"	483.07310000007	700.0000014	""	n/a	n/a	n/a	n/a	n/a	n/a	"2021-03-17 14:49:33.557509"	"2021-03-17 14:49:34.248321"	158	6.51336141666667
"S210317"	"Response_Inhibition"	"LEFT"	"Time_Max_Exceeded"	1500.05683360003	900.0000018	""	n/a	n/a	n/a	n/a	n/a	n/a	"2021-03-17 14:49:35.156681"	"2021-03-17 14:49:36.659627"	159	6.51336141666667
"S210317"	"Response_Inhibition"	"RIGHT"	"RIGHT"	486.749600000053	1316.6666693	""	n/a	n/a	n/a	n/a	n/a	n/a	"2021-03-17 14:49:37.985946"	"2021-03-17 14:49:38.681135"	160	6.51336141666667
"S210317"	"Response_Selection"	"LEFT"	"LEFT"	386.387499999984	1500.000003	n/a	n/a	n/a	n/a	n/a	n/a	n/a	"2021-03-17 14:41:00.542893"	"2021-03-17 14:41:01.138141"	1	2.83459016666667
"S210317"	"Response_Selection"	"RIGHT"	"RIGHT"	351.301699999993	583.3333345	n/a	n/a	n/a	n/a	n/a	n/a	n/a	"2021-03-17 14:41:01.730073"	"2021-03-17 14:41:02.288906"	2	2.83459016666667
"S210317"	"Response_Selection"	"LEFT"	"LEFT"	336.076600000013	1400.0000028	n/a	n/a	n/a	n/a	n/a	n/a	n/a	"2021-03-17 14:41:03.697677"	"2021-03-17 14:41:04.241279"	3	2.83459016666667
"S210317"	"Response_Selection"	"RIGHT"	"RIGHT"	406.407099999996	1400.0000028	n/a	n/a	n/a	n/a	n/a	n/a	n/a	"2021-03-17 14:41:05.651220"	"2021-03-17 14:41:06.264488"	4	2.83459016666667
"S210317"	"Response_Selection"	"RIGHT"	"RIGHT"	432.474500000012	983.3333353	n/a	n/a	n/a	n/a	n/a	n/a	n/a	"2021-03-17 14:41:07.257004"	"2021-03-17 14:41:07.897840"	5	2.83459016666667
"S210317"	"Response_Selection"	"LEFT"	"LEFT"	407.434099999989	983.3333353	n/a	n/a	n/a	n/a	n/a	n/a	n/a	"2021-03-17 14:41:08.889805"	"2021-03-17 14:41:09.504665"	6	2.83459016666667
"S210317"	"Response_Selection"	"LEFT"	"LEFT"	326.438100000018	1033.3333354	n/a	n/a	n/a	n/a	n/a	n/a	n/a	"2021-03-17 14:41:10.546989"	"2021-03-17 14:41:11.080563"	7	2.83459016666667
"S210317"	"Response_Selection"	"LEFT"	"LEFT"	333.511199999975	1266.6666692	n/a	n/a	n/a	n/a	n/a	n/a	n/a	"2021-03-17 14:41:12.355451"	"2021-03-17 14:41:12.896567"	8	2.83459016666667
"S210317"	"Response_Selection"	"RIGHT"	"RIGHT"	302.089800000033	1250.0000025	n/a	n/a	n/a	n/a	n/a	n/a	n/a	"2021-03-17 14:41:14.154878"	"2021-03-17 14:41:14.665098"	9	2.83459016666667
"S210317"	"Response_Selection"	"RIGHT"	"RIGHT"	626.946799999985	1083.3333355	n/a	n/a	n/a	n/a	n/a	n/a	n/a	"2021-03-17 14:41:15.757880"	"2021-03-17 14:41:16.593781"	10	2.83459016666667
"S210317"	"Response_Selection"	"LEFT"	"LEFT"	658.895400000006	683.3333347	n/a	n/a	n/a	n/a	n/a	n/a	n/a	"2021-03-17 14:41:17.285974"	"2021-03-17 14:41:18.152749"	11	2.83459016666667
"S210317"	"Response_Selection"	"LEFT"	"LEFT"	481.522600000005	783.3333349	n/a	n/a	n/a	n/a	n/a	n/a	n/a	"2021-03-17 14:41:18.944548"	"2021-03-17 14:41:19.632470"	12	2.83459016666667
"S210317"	"Response_Selection"	"LEFT"	"LEFT"	819.906800000012	500.000001	n/a	n/a	n/a	n/a	n/a	n/a	n/a	"2021-03-17 14:41:20.141120"	"2021-03-17 14:41:21.168655"	13	2.83459016666667
"S210317"	"Response_Selection"	"LEFT"	"LEFT"	354.710699999998	933.3333352	n/a	n/a	n/a	n/a	n/a	n/a	n/a	"2021-03-17 14:41:22.110554"	"2021-03-17 14:41:22.673144"	14	2.83459016666667
"S210317"	"Response_Selection"	"RIGHT"	"RIGHT"	345.722299999977	1316.6666693	n/a	n/a	n/a	n/a	n/a	n/a	n/a	"2021-03-17 14:41:23.999594"	"2021-03-17 14:41:24.554139"	15	2.83459016666667
"S210317"	"Response_Selection"	"RIGHT"	"RIGHT"	390.675200000032	600.0000012	n/a	n/a	n/a	n/a	n/a	n/a	n/a	"2021-03-17 14:41:25.162626"	"2021-03-17 14:41:25.760644"	16	2.83459016666667
"S210317"	"Response_Selection"	"RIGHT"	"RIGHT"	295.670099999995	800.0000016	n/a	n/a	n/a	n/a	n/a	n/a	n/a	"2021-03-17 14:41:26.568774"	"2021-03-17 14:41:27.072586"	17	2.83459016666667
"S210317"	"Response_Selection"	"LEFT"	"LEFT"	299.661700000001	883.3333351	n/a	n/a	n/a	n/a	n/a	n/a	n/a	"2021-03-17 14:41:27.965814"	"2021-03-17 14:41:28.474135"	18	2.83459016666667
"S210317"	"Response_Selection"	"RIGHT"	"RIGHT"	310.55520000001	1200.0000024	n/a	n/a	n/a	n/a	n/a	n/a	n/a	"2021-03-17 14:41:29.682534"	"2021-03-17 14:41:30.200957"	19	2.83459016666667
"S210317"	"Response_Selection"	"RIGHT"	"RIGHT"	353.899299999966	1133.3333356	n/a	n/a	n/a	n/a	n/a	n/a	n/a	"2021-03-17 14:41:31.343381"	"2021-03-17 14:41:31.904542"	20	2.83459016666667
"S210317"	"Response_Selection"	"LEFT"	"LEFT"	346.21629999998	733.3333348	n/a	n/a	n/a	n/a	n/a	n/a	n/a	"2021-03-17 14:41:32.646617"	"2021-03-17 14:41:33.202165"	21	2.83459016666667
"S210317"	"Response_Selection"	"LEFT"	"LEFT"	398.3518	600.0000012	n/a	n/a	n/a	n/a	n/a	n/a	n/a	"2021-03-17 14:41:33.811082"	"2021-03-17 14:41:34.416509"	22	2.83459016666667
"S210317"	"Response_Selection"	"LEFT"	"LEFT"	413.785399999995	1450.0000029	n/a	n/a	n/a	n/a	n/a	n/a	n/a	"2021-03-17 14:41:35.874770"	"2021-03-17 14:41:36.497305"	23	2.83459016666667
"S210317"	"Response_Selection"	"LEFT"	"LEFT"	310.611699999981	1416.6666695	n/a	n/a	n/a	n/a	n/a	n/a	n/a	"2021-03-17 14:41:37.922558"	"2021-03-17 14:41:38.441170"	24	2.83459016666667
"S210317"	"Response_Selection"	"LEFT"	"LEFT"	350.26049999999	1016.6666687	n/a	n/a	n/a	n/a	n/a	n/a	n/a	"2021-03-17 14:41:39.467093"	"2021-03-17 14:41:40.025770"	25	2.83459016666667
"S210317"	"Response_Selection"	"RIGHT"	"RIGHT"	314.013800000055	916.6666685	n/a	n/a	n/a	n/a	n/a	n/a	n/a	"2021-03-17 14:41:40.950464"	"2021-03-17 14:41:41.474207"	26	2.83459016666667
"S210317"	"Response_Selection"	"LEFT"	"LEFT"	279.421500000012	1300.0000026	n/a	n/a	n/a	n/a	n/a	n/a	n/a	"2021-03-17 14:41:42.785283"	"2021-03-17 14:41:43.272879"	27	2.83459016666667
"S210317"	"Response_Selection"	"LEFT"	"LEFT"	311.924499999975	1166.666669	n/a	n/a	n/a	n/a	n/a	n/a	n/a	"2021-03-17 14:41:44.449284"	"2021-03-17 14:41:44.971123"	28	2.83459016666667
"S210317"	"Response_Selection"	"RIGHT"	"RIGHT"	448.947900000007	500.000001	n/a	n/a	n/a	n/a	n/a	n/a	n/a	"2021-03-17 14:41:45.480030"	"2021-03-17 14:41:46.138079"	29	2.83459016666667
"S210317"	"Response_Selection"	"RIGHT"	"RIGHT"	371.484899999984	1466.6666696	n/a	n/a	n/a	n/a	n/a	n/a	n/a	"2021-03-17 14:41:47.613581"	"2021-03-17 14:41:48.192727"	30	2.83459016666667
"S210317"	"Response_Selection"	"LEFT"	"LEFT"	521.724300000017	550.0000011	n/a	n/a	n/a	n/a	n/a	n/a	n/a	"2021-03-17 14:41:48.750740"	"2021-03-17 14:41:49.480759"	31	2.83459016666667
"S210317"	"Response_Selection"	"RIGHT"	"RIGHT"	411.868999999967	1266.6666692	n/a	n/a	n/a	n/a	n/a	n/a	n/a	"2021-03-17 14:41:50.757044"	"2021-03-17 14:41:51.376957"	32	2.83459016666667
"S210317"	"Response_Selection"	"RIGHT"	"RIGHT"	537.561700000026	533.3333344	n/a	n/a	n/a	n/a	n/a	n/a	n/a	"2021-03-17 14:41:51.919415"	"2021-03-17 14:41:52.664927"	33	2.83459016666667
"S210317"	"Response_Selection"	"LEFT"	"LEFT"	553.484800000035	533.3333344	n/a	n/a	n/a	n/a	n/a	n/a	n/a	"2021-03-17 14:41:53.207471"	"2021-03-17 14:41:53.969996"	34	2.83459016666667
"S210317"	"Response_Selection"	"RIGHT"	"RIGHT"	352.418499999999	750.0000015	n/a	n/a	n/a	n/a	n/a	n/a	n/a	"2021-03-17 14:41:54.728307"	"2021-03-17 14:41:55.288827"	35	2.83459016666667
"S210317"	"Response_Selection"	"RIGHT"	"RIGHT"	354.268999999988	933.3333352	n/a	n/a	n/a	n/a	n/a	n/a	n/a	"2021-03-17 14:41:56.230994"	"2021-03-17 14:41:56.793199"	36	2.83459016666667
"S210317"	"Response_Selection"	"RIGHT"	"RIGHT"	301.799799999969	1450.0000029	n/a	n/a	n/a	n/a	n/a	n/a	n/a	"2021-03-17 14:41:58.251996"	"2021-03-17 14:41:58.760624"	37	2.83459016666667
"S210317"	"Response_Selection"	"LEFT"	"LEFT"	364.204900000004	1466.6666696	n/a	n/a	n/a	n/a	n/a	n/a	n/a	"2021-03-17 14:42:00.236834"	"2021-03-17 14:42:00.808859"	38	2.83459016666667
"S210317"	"Response_Selection"	"RIGHT"	"RIGHT"	437.775199999976	633.3333346	n/a	n/a	n/a	n/a	n/a	n/a	n/a	"2021-03-17 14:42:01.451656"	"2021-03-17 14:42:02.096449"	39	2.83459016666667
"S210317"	"Response_Selection"	"LEFT"	"LEFT"	413.705899999968	650.0000013	n/a	n/a	n/a	n/a	n/a	n/a	n/a	"2021-03-17 14:42:02.755194"	"2021-03-17 14:42:03.377030"	40	2.83459016666667
"S210317"	"Response_Selection"	"LEFT"	"LEFT"	390.582900000027	1216.6666691	n/a	n/a	n/a	n/a	n/a	n/a	n/a	"2021-03-17 14:42:04.602634"	"2021-03-17 14:42:05.200584"	41	2.83459016666667
"S210317"	"Response_Selection"	"LEFT"	"LEFT"	324.550699999975	1083.3333355	n/a	n/a	n/a	n/a	n/a	n/a	n/a	"2021-03-17 14:42:06.292851"	"2021-03-17 14:42:06.825132"	42	2.83459016666667
"S210317"	"Response_Selection"	"RIGHT"	"RIGHT"	455.535199999986	783.3333349	n/a	n/a	n/a	n/a	n/a	n/a	n/a	"2021-03-17 14:42:07.617077"	"2021-03-17 14:42:08.282234"	43	2.83459016666667
"S210317"	"Response_Selection"	"LEFT"	"LEFT"	361.27110000001	1116.6666689	n/a	n/a	n/a	n/a	n/a	n/a	n/a	"2021-03-17 14:42:09.407774"	"2021-03-17 14:42:09.976768"	44	2.83459016666667
"S210317"	"Response_Selection"	"RIGHT"	"RIGHT"	345.775899999978	1350.0000027	n/a	n/a	n/a	n/a	n/a	n/a	n/a	"2021-03-17 14:42:11.334830"	"2021-03-17 14:42:11.888412"	45	2.83459016666667
"S210317"	"Response_Selection"	"LEFT"	"LEFT"	264.397700000018	1350.0000027	n/a	n/a	n/a	n/a	n/a	n/a	n/a	"2021-03-17 14:42:13.248982"	"2021-03-17 14:42:13.720739"	46	2.83459016666667
"S210317"	"Response_Selection"	"RIGHT"	"RIGHT"	396.174799999983	683.3333347	n/a	n/a	n/a	n/a	n/a	n/a	n/a	"2021-03-17 14:42:14.413078"	"2021-03-17 14:42:15.016474"	47	2.83459016666667
"S210317"	"Response_Selection"	"RIGHT"	"RIGHT"	417.243999999982	1366.6666694	n/a	n/a	n/a	n/a	n/a	n/a	n/a	"2021-03-17 14:42:16.392234"	"2021-03-17 14:42:17.016583"	48	2.83459016666667
"S210317"	"Response_Selection"	"RIGHT"	"RIGHT"	388.880000000029	883.3333351	n/a	n/a	n/a	n/a	n/a	n/a	n/a	"2021-03-17 14:42:17.908420"	"2021-03-17 14:42:18.505181"	49	2.83459016666667
"S210317"	"Response_Selection"	"LEFT"	"LEFT"	340.567399999998	866.6666684	n/a	n/a	n/a	n/a	n/a	n/a	n/a	"2021-03-17 14:42:19.380665"	"2021-03-17 14:42:19.928305"	50	2.83459016666667
"S210317"	"Response_Selection"	"LEFT"	"LEFT"	334.788099999969	833.333335	n/a	n/a	n/a	n/a	n/a	n/a	n/a	"2021-03-17 14:42:20.770078"	"2021-03-17 14:42:21.313696"	51	2.83459016666667
"S210317"	"Response_Selection"	"RIGHT"	"RIGHT"	333.726399999989	1216.6666691	n/a	n/a	n/a	n/a	n/a	n/a	n/a	"2021-03-17 14:42:22.538719"	"2021-03-17 14:42:23.082245"	52	2.83459016666667
"S210317"	"Response_Selection"	"RIGHT"	"RIGHT"	356.85090000004	833.333335	n/a	n/a	n/a	n/a	n/a	n/a	n/a	"2021-03-17 14:42:23.924089"	"2021-03-17 14:42:24.488578"	53	2.83459016666667
"S210317"	"Response_Selection"	"LEFT"	"LEFT"	390.30200000002	633.3333346	n/a	n/a	n/a	n/a	n/a	n/a	n/a	"2021-03-17 14:42:25.130861"	"2021-03-17 14:42:25.728460"	54	2.83459016666667
"S210317"	"Response_Selection"	"LEFT"	"LEFT"	328.946700000017	966.6666686	n/a	n/a	n/a	n/a	n/a	n/a	n/a	"2021-03-17 14:42:26.704213"	"2021-03-17 14:42:27.241868"	55	2.83459016666667
"S210317"	"Response_Selection"	"RIGHT"	"RIGHT"	402.51619999998	700.0000014	n/a	n/a	n/a	n/a	n/a	n/a	n/a	"2021-03-17 14:42:27.950766"	"2021-03-17 14:42:28.561099"	56	2.83459016666667
"S210317"	"Response_Selection"	"LEFT"	"LEFT"	323.681399999998	1066.6666688	n/a	n/a	n/a	n/a	n/a	n/a	n/a	"2021-03-17 14:42:29.636714"	"2021-03-17 14:42:30.169111"	57	2.83459016666667
"S210317"	"Response_Selection"	"RIGHT"	"RIGHT"	361.722899999961	733.3333348	n/a	n/a	n/a	n/a	n/a	n/a	n/a	"2021-03-17 14:42:30.911141"	"2021-03-17 14:42:31.482138"	58	2.83459016666667
"S210317"	"Response_Selection"	"RIGHT"	"RIGHT"	420.284999999978	650.0000013	n/a	n/a	n/a	n/a	n/a	n/a	n/a	"2021-03-17 14:42:32.140397"	"2021-03-17 14:42:32.769390"	59	2.83459016666667
"S210317"	"Response_Selection"	"LEFT"	"LEFT"	360.048000000006	750.0000015	n/a	n/a	n/a	n/a	n/a	n/a	n/a	"2021-03-17 14:42:33.529379"	"2021-03-17 14:42:34.097903"	60	2.83459016666667
"S210317"	"Response_Selection"	"RIGHT"	"RIGHT"	401.599099999999	1116.6666689	n/a	n/a	n/a	n/a	n/a	n/a	n/a	"2021-03-17 14:42:35.223219"	"2021-03-17 14:42:35.832667"	61	2.83459016666667
"S210317"	"Response_Selection"	"LEFT"	"LEFT"	281.951599999957	1133.3333356	n/a	n/a	n/a	n/a	n/a	n/a	n/a	"2021-03-17 14:42:36.975129"	"2021-03-17 14:42:37.464375"	62	2.83459016666667
"S210317"	"Response_Selection"	"RIGHT"	"LEFT"	486.330800000019	1033.3333354	n/a	n/a	n/a	n/a	n/a	n/a	n/a	"2021-03-17 14:42:38.506622"	"2021-03-17 14:42:39.200969"	63	2.83459016666667
"S210317"	"Response_Selection"	"LEFT"	"LEFT"	418.816600000014	1316.6666693	n/a	n/a	n/a	n/a	n/a	n/a	n/a	"2021-03-17 14:42:40.526535"	"2021-03-17 14:42:41.153828"	64	2.83459016666667
"S210317"	"Response_Selection"	"LEFT"	"LEFT"	391.942200000017	1366.6666694	n/a	n/a	n/a	n/a	n/a	n/a	n/a	"2021-03-17 14:42:42.529465"	"2021-03-17 14:42:43.128861"	65	2.83459016666667
"S210317"	"Response_Selection"	"LEFT"	"LEFT"	383.384299999989	1200.0000024	n/a	n/a	n/a	n/a	n/a	n/a	n/a	"2021-03-17 14:42:44.337525"	"2021-03-17 14:42:44.928916"	66	2.83459016666667
"S210317"	"Response_Selection"	"RIGHT"	"RIGHT"	316.976599999975	1066.6666688	n/a	n/a	n/a	n/a	n/a	n/a	n/a	"2021-03-17 14:42:46.003685"	"2021-03-17 14:42:46.530145"	67	2.83459016666667
"S210317"	"Response_Selection"	"RIGHT"	"RIGHT"	325.644300000022	1416.6666695	n/a	n/a	n/a	n/a	n/a	n/a	n/a	"2021-03-17 14:42:47.955194"	"2021-03-17 14:42:48.490074"	68	2.83459016666667
"S210317"	"Response_Selection"	"LEFT"	"LEFT"	450.242599999967	700.0000014	n/a	n/a	n/a	n/a	n/a	n/a	n/a	"2021-03-17 14:42:49.198718"	"2021-03-17 14:42:49.856892"	69	2.83459016666667
"S210317"	"Response_Selection"	"LEFT"	"LEFT"	418.842900000016	916.6666685	n/a	n/a	n/a	n/a	n/a	n/a	n/a	"2021-03-17 14:42:50.782024"	"2021-03-17 14:42:51.408487"	70	2.83459016666667
"S210317"	"Response_Selection"	"LEFT"	"LEFT"	794.220199999984	583.3333345	n/a	n/a	n/a	n/a	n/a	n/a	n/a	"2021-03-17 14:42:51.999970"	"2021-03-17 14:42:53.001447"	71	2.83459016666667
"S210317"	"Response_Selection"	"RIGHT"	"RIGHT"	287.809799999991	966.6666686	n/a	n/a	n/a	n/a	n/a	n/a	n/a	"2021-03-17 14:42:53.977342"	"2021-03-17 14:42:54.473025"	72	2.83459016666667
"S210317"	"Response_Selection"	"RIGHT"	"RIGHT"	332.660400000009	866.6666684	n/a	n/a	n/a	n/a	n/a	n/a	n/a	"2021-03-17 14:42:55.347733"	"2021-03-17 14:42:55.888970"	73	2.83459016666667
"S210317"	"Response_Selection"	"RIGHT"	"RIGHT"	436.26660000001	1500.000003	n/a	n/a	n/a	n/a	n/a	n/a	n/a	"2021-03-17 14:42:57.397064"	"2021-03-17 14:42:58.041754"	74	2.83459016666667
"S210317"	"Response_Selection"	"RIGHT"	"RIGHT"	306.911500000012	1300.0000026	n/a	n/a	n/a	n/a	n/a	n/a	n/a	"2021-03-17 14:42:59.350354"	"2021-03-17 14:42:59.864481"	75	2.83459016666667
"S210317"	"Response_Selection"	"LEFT"	"LEFT"	559.888699999988	800.0000016	n/a	n/a	n/a	n/a	n/a	n/a	n/a	"2021-03-17 14:43:00.673177"	"2021-03-17 14:43:01.440667"	76	2.83459016666667
"S210317"	"Response_Selection"	"RIGHT"	"RIGHT"	386.14229999996	550.0000011	n/a	n/a	n/a	n/a	n/a	n/a	n/a	"2021-03-17 14:43:01.998652"	"2021-03-17 14:43:02.592893"	77	2.83459016666667
"S210317"	"Response_Selection"	"RIGHT"	"RIGHT"	311.863500000015	1166.666669	n/a	n/a	n/a	n/a	n/a	n/a	n/a	"2021-03-17 14:43:03.769026"	"2021-03-17 14:43:04.288954"	78	2.83459016666667
"S210317"	"Response_Selection"	"LEFT"	"LEFT"	381.319399999995	1250.0000025	n/a	n/a	n/a	n/a	n/a	n/a	n/a	"2021-03-17 14:43:05.547190"	"2021-03-17 14:43:06.136777"	79	2.83459016666667
"S210317"	"Response_Selection"	"RIGHT"	"RIGHT"	423.223600000028	1016.6666687	n/a	n/a	n/a	n/a	n/a	n/a	n/a	"2021-03-17 14:43:07.161604"	"2021-03-17 14:43:07.793175"	80	2.83459016666667
