"Participant"	"Task"	"Stimulus_Side"	"Response"	"RT"	"ITI"	"Previous_Response"	"Previous_RT"	"Stop_Signal"	"Stop_Signal_RT"	"Conflict"	"Cue_Response"	"Cue_Response_RT"	"Trial_Onset"	"Trial_End"	"Trial_Order"	"Duration"
"S210202"	"Conflict_Resolution"	"RIGHT"	"RIGHT"	1359.80630000006	500.000001	""	n/a	n/a	n/a	"False"	n/a	n/a	"2021-02-02 13:48:59.196641"	"2021-02-02 13:49:00.764387"	1	5.70909488333333
"S210202"	"Conflict_Resolution"	"RIGHT"	"RIGHT"	475.913699999978	1466.6666696	""	n/a	n/a	n/a	"False"	n/a	n/a	"2021-02-02 13:49:02.248637"	"2021-02-02 13:49:02.932767"	2	5.70909488333333
"S210202"	"Conflict_Resolution"	"RIGHT"	"RIGHT"	570.789200000036	1433.3333362	""	n/a	n/a	n/a	"False"	n/a	n/a	"2021-02-02 13:49:04.385349"	"2021-02-02 13:49:05.163337"	3	5.70909488333333
"S210202"	"Conflict_Resolution"	"LEFT"	"LEFT"	578.008199999999	1100.0000022	""	n/a	n/a	n/a	"False"	n/a	n/a	"2021-02-02 13:49:06.282498"	"2021-02-02 13:49:07.067819"	4	5.70909488333333
"S210202"	"Conflict_Resolution"	"RIGHT"	"Time_Max_Exceeded"	1500.06450000001	1466.6666696	""	n/a	n/a	n/a	"True"	n/a	n/a	"2021-02-02 13:49:08.553808"	"2021-02-02 13:49:10.053851"	5	5.70909488333333
"S210202"	"Conflict_Resolution"	"RIGHT"	"Time_Max_Exceeded"	1500.14170000009	1100.0000022	""	n/a	n/a	n/a	"True"	n/a	n/a	"2021-02-02 13:49:11.171812"	"2021-02-02 13:49:12.672785"	6	5.70909488333333
"S210202"	"Conflict_Resolution"	"RIGHT"	"RIGHT"	653.710100000012	683.3333347	"RIGHT"	-452.788	n/a	n/a	"True"	n/a	n/a	"2021-02-02 13:49:13.374973"	"2021-02-02 13:49:14.236173"	7	5.70909488333333
"S210202"	"Conflict_Resolution"	"RIGHT"	"RIGHT"	502.468799999974	1366.6666694	""	n/a	n/a	n/a	"False"	n/a	n/a	"2021-02-02 13:49:15.621528"	"2021-02-02 13:49:16.331010"	8	5.70909488333333
"S210202"	"Conflict_Resolution"	"RIGHT"	"RIGHT"	652.679499999977	850.0000017	""	n/a	n/a	n/a	"True"	n/a	n/a	"2021-02-02 13:49:17.199030"	"2021-02-02 13:49:18.060759"	9	5.70909488333333
"S210202"	"Conflict_Resolution"	"LEFT"	"LEFT"	441.550099999972	1050.0000021	""	n/a	n/a	n/a	"False"	n/a	n/a	"2021-02-02 13:49:19.130385"	"2021-02-02 13:49:19.780696"	10	5.70909488333333
"S210202"	"Conflict_Resolution"	"RIGHT"	"RIGHT"	513.652799999932	900.0000018	""	n/a	n/a	n/a	"False"	n/a	n/a	"2021-02-02 13:49:20.698512"	"2021-02-02 13:49:21.420546"	11	5.70909488333333
"S210202"	"Conflict_Resolution"	"LEFT"	"LEFT"	384.040199999959	916.6666685	""	n/a	n/a	n/a	"False"	n/a	n/a	"2021-02-02 13:49:22.355627"	"2021-02-02 13:49:22.947764"	12	5.70909488333333
"S210202"	"Conflict_Resolution"	"RIGHT"	"RIGHT"	542.277099999978	1183.3333357	""	n/a	n/a	n/a	"True"	n/a	n/a	"2021-02-02 13:49:24.150229"	"2021-02-02 13:49:24.900419"	13	5.70909488333333
"S210202"	"Conflict_Resolution"	"RIGHT"	"RIGHT"	422.937100000013	1133.3333356	""	n/a	n/a	n/a	"False"	n/a	n/a	"2021-02-02 13:49:26.053347"	"2021-02-02 13:49:26.683167"	14	5.70909488333333
"S210202"	"Conflict_Resolution"	"RIGHT"	"RIGHT"	674.602800000002	650.0000013	""	n/a	n/a	n/a	"True"	n/a	n/a	"2021-02-02 13:49:27.353922"	"2021-02-02 13:49:28.236167"	15	5.70909488333333
"S210202"	"Conflict_Resolution"	"LEFT"	"LEFT"	522.713199999998	666.666668	""	n/a	n/a	n/a	"False"	n/a	n/a	"2021-02-02 13:49:28.921673"	"2021-02-02 13:49:29.651136"	16	5.70909488333333
"S210202"	"Conflict_Resolution"	"LEFT"	"LEFT"	421.768499999985	816.6666683	""	n/a	n/a	n/a	"False"	n/a	n/a	"2021-02-02 13:49:30.486096"	"2021-02-02 13:49:31.117959"	17	5.70909488333333
"S210202"	"Conflict_Resolution"	"RIGHT"	"RIGHT"	605.534499999976	983.3333353	""	n/a	n/a	n/a	"True"	n/a	n/a	"2021-02-02 13:49:32.118366"	"2021-02-02 13:49:32.933780"	18	5.70909488333333
"S210202"	"Conflict_Resolution"	"RIGHT"	"RIGHT"	437.018899999998	583.3333345	""	n/a	n/a	n/a	"True"	n/a	n/a	"2021-02-02 13:49:33.534813"	"2021-02-02 13:49:34.180341"	19	5.70909488333333
"S210202"	"Conflict_Resolution"	"LEFT"	"LEFT"	1042.8177	1466.6666696	""	n/a	n/a	n/a	"True"	n/a	n/a	"2021-02-02 13:49:35.665323"	"2021-02-02 13:49:36.915200"	20	5.70909488333333
"S210202"	"Conflict_Resolution"	"LEFT"	"LEFT"	491.393099999982	866.6666684	""	n/a	n/a	n/a	"False"	n/a	n/a	"2021-02-02 13:49:37.800979"	"2021-02-02 13:49:38.499867"	21	5.70909488333333
"S210202"	"Conflict_Resolution"	"LEFT"	"LEFT"	443.77350000002	633.3333346	""	n/a	n/a	n/a	"False"	n/a	n/a	"2021-02-02 13:49:39.152464"	"2021-02-02 13:49:39.803325"	22	5.70909488333333
"S210202"	"Conflict_Resolution"	"LEFT"	"LEFT"	454.661399999964	533.3333344	""	n/a	n/a	n/a	"False"	n/a	n/a	"2021-02-02 13:49:40.357427"	"2021-02-02 13:49:41.020588"	23	5.70909488333333
"S210202"	"Conflict_Resolution"	"LEFT"	"LEFT"	742.197400000009	733.3333348	""	n/a	n/a	n/a	"True"	n/a	n/a	"2021-02-02 13:49:41.773625"	"2021-02-02 13:49:42.724597"	24	5.70909488333333
"S210202"	"Conflict_Resolution"	"RIGHT"	"RIGHT"	629.001199999948	1416.6666695	""	n/a	n/a	n/a	"True"	n/a	n/a	"2021-02-02 13:49:44.159558"	"2021-02-02 13:49:44.995907"	25	5.70909488333333
"S210202"	"Conflict_Resolution"	"LEFT"	"LEFT"	661.51769999999	1200.0000024	""	n/a	n/a	n/a	"True"	n/a	n/a	"2021-02-02 13:49:46.214976"	"2021-02-02 13:49:47.085234"	26	5.70909488333333
"S210202"	"Conflict_Resolution"	"RIGHT"	"RIGHT"	560.870000000023	700.0000014	""	n/a	n/a	n/a	"True"	n/a	n/a	"2021-02-02 13:49:47.802859"	"2021-02-02 13:49:48.572719"	27	5.70909488333333
"S210202"	"Conflict_Resolution"	"RIGHT"	"RIGHT"	440.009000000032	1100.0000022	""	n/a	n/a	n/a	"False"	n/a	n/a	"2021-02-02 13:49:49.692508"	"2021-02-02 13:49:50.340739"	28	5.70909488333333
"S210202"	"Conflict_Resolution"	"LEFT"	"LEFT"	475.887400000033	1016.6666687	""	n/a	n/a	n/a	"False"	n/a	n/a	"2021-02-02 13:49:51.376491"	"2021-02-02 13:49:52.060670"	29	5.70909488333333
"S210202"	"Conflict_Resolution"	"LEFT"	"LEFT"	675.127800000041	633.3333346	""	n/a	n/a	n/a	"True"	n/a	n/a	"2021-02-02 13:49:52.713085"	"2021-02-02 13:49:53.597350"	30	5.70909488333333
"S210202"	"Conflict_Resolution"	"RIGHT"	"RIGHT"	501.460500000007	1383.3333361	""	n/a	n/a	n/a	"False"	n/a	n/a	"2021-02-02 13:49:54.998324"	"2021-02-02 13:49:55.708784"	31	5.70909488333333
"S210202"	"Conflict_Resolution"	"LEFT"	"LEFT"	560.971599999903	683.3333347	""	n/a	n/a	n/a	"False"	n/a	n/a	"2021-02-02 13:49:56.410526"	"2021-02-02 13:49:57.180502"	32	5.70909488333333
"S210202"	"Conflict_Resolution"	"LEFT"	"LEFT"	596.264799999972	1400.0000028	""	n/a	n/a	n/a	"True"	n/a	n/a	"2021-02-02 13:49:58.600193"	"2021-02-02 13:49:59.404301"	33	5.70909488333333
"S210202"	"Conflict_Resolution"	"LEFT"	"LEFT"	451.232399999981	1000.000002	""	n/a	n/a	n/a	"False"	n/a	n/a	"2021-02-02 13:50:00.424326"	"2021-02-02 13:50:01.083202"	34	5.70909488333333
"S210202"	"Conflict_Resolution"	"LEFT"	"LEFT"	391.113399999995	950.0000019	""	n/a	n/a	n/a	"False"	n/a	n/a	"2021-02-02 13:50:02.052676"	"2021-02-02 13:50:02.651311"	35	5.70909488333333
"S210202"	"Conflict_Resolution"	"LEFT"	"LEFT"	423.372100000051	1366.6666694	""	n/a	n/a	n/a	"False"	n/a	n/a	"2021-02-02 13:50:04.036752"	"2021-02-02 13:50:04.668084"	36	5.70909488333333
"S210202"	"Conflict_Resolution"	"LEFT"	"LEFT"	403.809200000069	1266.6666692	""	n/a	n/a	n/a	"False"	n/a	n/a	"2021-02-02 13:50:05.951768"	"2021-02-02 13:50:06.564757"	37	5.70909488333333
"S210202"	"Conflict_Resolution"	"RIGHT"	"RIGHT"	526.538999999957	550.0000011	""	n/a	n/a	n/a	"False"	n/a	n/a	"2021-02-02 13:50:07.133239"	"2021-02-02 13:50:07.867992"	38	5.70909488333333
"S210202"	"Conflict_Resolution"	"LEFT"	"LEFT"	677.997699999992	1366.6666694	""	n/a	n/a	n/a	"True"	n/a	n/a	"2021-02-02 13:50:09.254216"	"2021-02-02 13:50:10.140050"	39	5.70909488333333
"S210202"	"Conflict_Resolution"	"LEFT"	"LEFT"	845.649800000047	766.6666682	""	n/a	n/a	n/a	"False"	n/a	n/a	"2021-02-02 13:50:10.925983"	"2021-02-02 13:50:11.980607"	40	5.70909488333333
"S210202"	"Conflict_Resolution"	"LEFT"	"LEFT"	550.603499999966	1150.0000023	""	n/a	n/a	n/a	"True"	n/a	n/a	"2021-02-02 13:50:13.149694"	"2021-02-02 13:50:13.908519"	41	5.70909488333333
"S210202"	"Conflict_Resolution"	"RIGHT"	"RIGHT"	474.572100000046	1083.3333355	""	n/a	n/a	n/a	"False"	n/a	n/a	"2021-02-02 13:50:15.009104"	"2021-02-02 13:50:15.691691"	42	5.70909488333333
"S210202"	"Conflict_Resolution"	"RIGHT"	"RIGHT"	496.382699999913	533.3333344	""	n/a	n/a	n/a	"False"	n/a	n/a	"2021-02-02 13:50:16.243864"	"2021-02-02 13:50:16.947662"	43	5.70909488333333
"S210202"	"Conflict_Resolution"	"RIGHT"	"RIGHT"	775.15249999999	550.0000011	""	n/a	n/a	n/a	"True"	n/a	n/a	"2021-02-02 13:50:17.517226"	"2021-02-02 13:50:18.498888"	44	5.70909488333333
"S210202"	"Conflict_Resolution"	"RIGHT"	"RIGHT"	381.454200000007	1183.3333357	""	n/a	n/a	n/a	"False"	n/a	n/a	"2021-02-02 13:50:19.702892"	"2021-02-02 13:50:20.292305"	45	5.70909488333333
"S210202"	"Conflict_Resolution"	"RIGHT"	"RIGHT"	630.782500000009	1333.333336	""	n/a	n/a	n/a	"False"	n/a	n/a	"2021-02-02 13:50:21.645569"	"2021-02-02 13:50:22.484840"	46	5.70909488333333
"S210202"	"Conflict_Resolution"	"RIGHT"	"RIGHT"	350.868099999957	1150.0000023	""	n/a	n/a	n/a	"False"	n/a	n/a	"2021-02-02 13:50:23.653131"	"2021-02-02 13:50:24.212227"	47	5.70909488333333
"S210202"	"Conflict_Resolution"	"LEFT"	"LEFT"	420.422099999996	966.6666686	""	n/a	n/a	n/a	"False"	n/a	n/a	"2021-02-02 13:50:25.199376"	"2021-02-02 13:50:25.828660"	48	5.70909488333333
"S210202"	"Conflict_Resolution"	"RIGHT"	"RIGHT"	419.59380000003	1416.6666695	""	n/a	n/a	n/a	"False"	n/a	n/a	"2021-02-02 13:50:27.264479"	"2021-02-02 13:50:27.891932"	49	5.70909488333333
"S210202"	"Conflict_Resolution"	"LEFT"	"LEFT"	593.579800000043	866.6666684	""	n/a	n/a	n/a	"True"	n/a	n/a	"2021-02-02 13:50:28.778533"	"2021-02-02 13:50:29.579127"	50	5.70909488333333
"S210202"	"Conflict_Resolution"	"LEFT"	"LEFT"	762.027599999897	716.6666681	""	n/a	n/a	n/a	"False"	n/a	n/a	"2021-02-02 13:50:30.313689"	"2021-02-02 13:50:31.284539"	51	5.70909488333333
"S210202"	"Conflict_Resolution"	"LEFT"	"LEFT"	401.892699999962	1466.6666696	""	n/a	n/a	n/a	"False"	n/a	n/a	"2021-02-02 13:50:32.771169"	"2021-02-02 13:50:33.380624"	52	5.70909488333333
"S210202"	"Conflict_Resolution"	"RIGHT"	"RIGHT"	831.111699999951	733.3333348	""	n/a	n/a	n/a	"True"	n/a	n/a	"2021-02-02 13:50:34.132625"	"2021-02-02 13:50:35.170931"	53	5.70909488333333
"S210202"	"Conflict_Resolution"	"LEFT"	"LEFT"	707.235299999979	1116.6666689	""	n/a	n/a	n/a	"True"	n/a	n/a	"2021-02-02 13:50:36.305495"	"2021-02-02 13:50:37.220018"	54	5.70909488333333
"S210202"	"Conflict_Resolution"	"RIGHT"	"RIGHT"	408.491700000013	750.0000015	""	n/a	n/a	n/a	"False"	n/a	n/a	"2021-02-02 13:50:37.987033"	"2021-02-02 13:50:38.602990"	55	5.70909488333333
"S210202"	"Conflict_Resolution"	"RIGHT"	"RIGHT"	577.304000000026	950.0000019	""	n/a	n/a	n/a	"False"	n/a	n/a	"2021-02-02 13:50:39.570634"	"2021-02-02 13:50:40.355432"	56	5.70909488333333
"S210202"	"Conflict_Resolution"	"LEFT"	"LEFT"	722.615499999961	1250.0000025	""	n/a	n/a	n/a	"True"	n/a	n/a	"2021-02-02 13:50:41.625376"	"2021-02-02 13:50:42.555049"	57	5.70909488333333
"S210202"	"Conflict_Resolution"	"LEFT"	"LEFT"	661.266399999931	816.6666683	""	n/a	n/a	n/a	"True"	n/a	n/a	"2021-02-02 13:50:43.390937"	"2021-02-02 13:50:44.260549"	58	5.70909488333333
"S210202"	"Conflict_Resolution"	"RIGHT"	"RIGHT"	450.290600000017	633.3333346	""	n/a	n/a	n/a	"False"	n/a	n/a	"2021-02-02 13:50:44.913382"	"2021-02-02 13:50:45.571963"	59	5.70909488333333
"S210202"	"Conflict_Resolution"	"RIGHT"	"RIGHT"	784.852999999998	1266.6666692	""	n/a	n/a	n/a	"True"	n/a	n/a	"2021-02-02 13:50:46.858627"	"2021-02-02 13:50:47.851960"	60	5.70909488333333
"S210202"	"Conflict_Resolution"	"LEFT"	"LEFT"	410.75699999999	1450.0000029	""	n/a	n/a	n/a	"False"	n/a	n/a	"2021-02-02 13:50:49.320752"	"2021-02-02 13:50:49.940629"	61	5.70909488333333
"S210202"	"Conflict_Resolution"	"LEFT"	"LEFT"	446.957300000008	566.6666678	""	n/a	n/a	n/a	"False"	n/a	n/a	"2021-02-02 13:50:50.525137"	"2021-02-02 13:50:51.180061"	62	5.70909488333333
"S210202"	"Conflict_Resolution"	"RIGHT"	"RIGHT"	604.726300000038	600.0000012	""	n/a	n/a	n/a	"True"	n/a	n/a	"2021-02-02 13:50:51.799747"	"2021-02-02 13:50:52.612281"	63	5.70909488333333
"S210202"	"Conflict_Resolution"	"RIGHT"	"RIGHT"	663.814400000092	933.3333352	""	n/a	n/a	n/a	"True"	n/a	n/a	"2021-02-02 13:50:53.564253"	"2021-02-02 13:50:54.436841"	64	5.70909488333333
"S210202"	"Conflict_Resolution"	"RIGHT"	"RIGHT"	461.913600000003	800.0000016	""	n/a	n/a	n/a	"False"	n/a	n/a	"2021-02-02 13:50:55.253830"	"2021-02-02 13:50:55.924299"	65	5.70909488333333
"S210202"	"Conflict_Resolution"	"LEFT"	"LEFT"	411.734599999932	616.6666679	""	n/a	n/a	n/a	"False"	n/a	n/a	"2021-02-02 13:50:56.559903"	"2021-02-02 13:50:57.179229"	66	5.70909488333333
"S210202"	"Conflict_Resolution"	"LEFT"	"LEFT"	632.70030000001	1300.0000026	""	n/a	n/a	n/a	"True"	n/a	n/a	"2021-02-02 13:50:58.499597"	"2021-02-02 13:50:59.339351"	67	5.70909488333333
"S210202"	"Conflict_Resolution"	"RIGHT"	"RIGHT"	596.136099999967	1033.3333354	""	n/a	n/a	n/a	"True"	n/a	n/a	"2021-02-02 13:51:00.392215"	"2021-02-02 13:51:01.194942"	68	5.70909488333333
"S210202"	"Conflict_Resolution"	"LEFT"	"LEFT"	522.297900000012	1316.6666693	""	n/a	n/a	n/a	"False"	n/a	n/a	"2021-02-02 13:51:02.529963"	"2021-02-02 13:51:03.259149"	69	5.70909488333333
"S210202"	"Conflict_Resolution"	"RIGHT"	"RIGHT"	456.719000000021	733.3333348	""	n/a	n/a	n/a	"False"	n/a	n/a	"2021-02-02 13:51:04.010864"	"2021-02-02 13:51:04.675269"	70	5.70909488333333
"S210202"	"Conflict_Resolution"	"LEFT"	"LEFT"	635.270099999957	1500.000003	""	n/a	n/a	n/a	"True"	n/a	n/a	"2021-02-02 13:51:06.192836"	"2021-02-02 13:51:07.035014"	71	5.70909488333333
"S210202"	"Conflict_Resolution"	"RIGHT"	"RIGHT"	621.21819999993	1366.6666694	""	n/a	n/a	n/a	"True"	n/a	n/a	"2021-02-02 13:51:08.423313"	"2021-02-02 13:51:09.251886"	72	5.70909488333333
"S210202"	"Conflict_Resolution"	"RIGHT"	"RIGHT"	497.662699999978	683.3333347	""	n/a	n/a	n/a	"False"	n/a	n/a	"2021-02-02 13:51:09.954770"	"2021-02-02 13:51:10.658888"	73	5.70909488333333
"S210202"	"Conflict_Resolution"	"LEFT"	"LEFT"	678.829800000017	966.6666686	""	n/a	n/a	n/a	"True"	n/a	n/a	"2021-02-02 13:51:11.644870"	"2021-02-02 13:51:12.531672"	74	5.70909488333333
"S210202"	"Conflict_Resolution"	"RIGHT"	"RIGHT"	491.431599999942	1050.0000021	""	n/a	n/a	n/a	"False"	n/a	n/a	"2021-02-02 13:51:13.600859"	"2021-02-02 13:51:14.299297"	75	5.70909488333333
"S210202"	"Conflict_Resolution"	"RIGHT"	"RIGHT"	452.019700000051	883.3333351	""	n/a	n/a	n/a	"False"	n/a	n/a	"2021-02-02 13:51:15.200636"	"2021-02-02 13:51:15.860172"	76	5.70909488333333
"S210202"	"Conflict_Resolution"	"LEFT"	"LEFT"	482.425999999919	1250.0000025	""	n/a	n/a	n/a	"False"	n/a	n/a	"2021-02-02 13:51:17.129653"	"2021-02-02 13:51:17.818943"	77	5.70909488333333
"S210202"	"Conflict_Resolution"	"LEFT"	"LEFT"	637.137700000039	1016.6666687	""	n/a	n/a	n/a	"True"	n/a	n/a	"2021-02-02 13:51:18.854366"	"2021-02-02 13:51:19.700727"	78	5.70909488333333
"S210202"	"Conflict_Resolution"	"RIGHT"	"RIGHT"	914.274200000023	650.0000013	""	n/a	n/a	n/a	"False"	n/a	n/a	"2021-02-02 13:51:20.370012"	"2021-02-02 13:51:21.492017"	79	5.70909488333333
"S210202"	"Conflict_Resolution"	"RIGHT"	"LEFT"	488.111900000035	533.3333344	""	n/a	n/a	n/a	"True"	n/a	n/a	"2021-02-02 13:51:22.043588"	"2021-02-02 13:51:22.739683"	80	5.70909488333333
"S210202"	"Conflict_Resolution"	"RIGHT"	"RIGHT"	672.847199999978	900.0000018	""	n/a	n/a	n/a	"True"	n/a	n/a	"2021-02-02 13:51:23.658406"	"2021-02-02 13:51:24.540555"	81	5.70909488333333
"S210202"	"Conflict_Resolution"	"LEFT"	"LEFT"	409.944399999972	900.0000018	""	n/a	n/a	n/a	"False"	n/a	n/a	"2021-02-02 13:51:25.457665"	"2021-02-02 13:51:26.075111"	82	5.70909488333333
"S210202"	"Conflict_Resolution"	"RIGHT"	"RIGHT"	480.528400000026	933.3333352	""	n/a	n/a	n/a	"False"	n/a	n/a	"2021-02-02 13:51:27.027145"	"2021-02-02 13:51:27.716628"	83	5.70909488333333
"S210202"	"Conflict_Resolution"	"RIGHT"	"RIGHT"	435.526600000003	600.0000012	""	n/a	n/a	n/a	"False"	n/a	n/a	"2021-02-02 13:51:28.336133"	"2021-02-02 13:51:28.980070"	84	5.70909488333333
"S210202"	"Conflict_Resolution"	"LEFT"	"LEFT"	506.897299999991	616.6666679	""	n/a	n/a	n/a	"True"	n/a	n/a	"2021-02-02 13:51:29.617497"	"2021-02-02 13:51:30.332571"	85	5.70909488333333
"S210202"	"Conflict_Resolution"	"RIGHT"	"RIGHT"	586.894899999947	633.3333346	""	n/a	n/a	n/a	"True"	n/a	n/a	"2021-02-02 13:51:30.984839"	"2021-02-02 13:51:31.779640"	86	5.70909488333333
"S210202"	"Conflict_Resolution"	"RIGHT"	"RIGHT"	613.14619999996	800.0000016	""	n/a	n/a	n/a	"True"	n/a	n/a	"2021-02-02 13:51:32.599034"	"2021-02-02 13:51:33.420736"	87	5.70909488333333
"S210202"	"Conflict_Resolution"	"LEFT"	"LEFT"	578.225599999996	1450.0000029	""	n/a	n/a	n/a	"True"	n/a	n/a	"2021-02-02 13:51:34.890098"	"2021-02-02 13:51:35.676238"	88	5.70909488333333
"S210202"	"Conflict_Resolution"	"LEFT"	"LEFT"	449.162500000057	1066.6666688	""	n/a	n/a	n/a	"False"	n/a	n/a	"2021-02-02 13:51:36.763215"	"2021-02-02 13:51:37.420626"	89	5.70909488333333
"S210202"	"Conflict_Resolution"	"RIGHT"	"RIGHT"	488.83340000009	1283.3333359	""	n/a	n/a	n/a	"False"	n/a	n/a	"2021-02-02 13:51:38.723514"	"2021-02-02 13:51:39.420615"	90	5.70909488333333
"S210202"	"Conflict_Resolution"	"RIGHT"	"RIGHT"	640.495900000019	883.3333351	""	n/a	n/a	n/a	"True"	n/a	n/a	"2021-02-02 13:51:40.323865"	"2021-02-02 13:51:41.172085"	91	5.70909488333333
"S210202"	"Conflict_Resolution"	"RIGHT"	"RIGHT"	524.898199999939	1216.6666691	""	n/a	n/a	n/a	"True"	n/a	n/a	"2021-02-02 13:51:42.406964"	"2021-02-02 13:51:43.139368"	92	5.70909488333333
"S210202"	"Conflict_Resolution"	"RIGHT"	"RIGHT"	494.155699999965	1216.6666691	""	n/a	n/a	n/a	"False"	n/a	n/a	"2021-02-02 13:51:44.373353"	"2021-02-02 13:51:45.075138"	93	5.70909488333333
"S210202"	"Conflict_Resolution"	"RIGHT"	"RIGHT"	458.385899999939	1483.3333363	""	n/a	n/a	n/a	"True"	n/a	n/a	"2021-02-02 13:51:46.577242"	"2021-02-02 13:51:47.243971"	94	5.70909488333333
"S210202"	"Conflict_Resolution"	"LEFT"	"LEFT"	654.006699999968	1166.666669	""	n/a	n/a	n/a	"False"	n/a	n/a	"2021-02-02 13:51:48.430083"	"2021-02-02 13:51:49.291295"	95	5.70909488333333
"S210202"	"Conflict_Resolution"	"LEFT"	"LEFT"	790.958799999999	566.6666678	""	n/a	n/a	n/a	"True"	n/a	n/a	"2021-02-02 13:51:49.876814"	"2021-02-02 13:51:50.874933"	96	5.70909488333333
"S210202"	"Conflict_Resolution"	"LEFT"	"LEFT"	408.492500000079	1116.6666689	""	n/a	n/a	n/a	"False"	n/a	n/a	"2021-02-02 13:51:52.011451"	"2021-02-02 13:51:52.628321"	97	5.70909488333333
"S210202"	"Conflict_Resolution"	"RIGHT"	"RIGHT"	640.621399999986	1150.0000023	""	n/a	n/a	n/a	"True"	n/a	n/a	"2021-02-02 13:51:53.795381"	"2021-02-02 13:51:54.644698"	98	5.70909488333333
"S210202"	"Conflict_Resolution"	"RIGHT"	"RIGHT"	674.247900000069	1083.3333355	""	n/a	n/a	n/a	"True"	n/a	n/a	"2021-02-02 13:51:55.745656"	"2021-02-02 13:51:56.626927"	99	5.70909488333333
"S210202"	"Conflict_Resolution"	"LEFT"	"LEFT"	795.773800000006	683.3333347	""	n/a	n/a	n/a	"True"	n/a	n/a	"2021-02-02 13:51:57.328052"	"2021-02-02 13:51:58.332015"	100	5.70909488333333
"S210202"	"Conflict_Resolution"	"RIGHT"	"RIGHT"	787.71590000008	1433.3333362	""	n/a	n/a	n/a	"True"	n/a	n/a	"2021-02-02 13:51:59.784499"	"2021-02-02 13:52:00.778942"	101	5.70909488333333
"S210202"	"Conflict_Resolution"	"LEFT"	"LEFT"	920.093099999917	950.0000019	""	n/a	n/a	n/a	"True"	n/a	n/a	"2021-02-02 13:52:01.747893"	"2021-02-02 13:52:02.876494"	102	5.70909488333333
"S210202"	"Conflict_Resolution"	"RIGHT"	"RIGHT"	592.125799999963	1483.3333363	""	n/a	n/a	n/a	"False"	n/a	n/a	"2021-02-02 13:52:04.379791"	"2021-02-02 13:52:05.179383"	103	5.70909488333333
"S210202"	"Conflict_Resolution"	"LEFT"	"LEFT"	467.996799999923	1200.0000024	""	n/a	n/a	n/a	"False"	n/a	n/a	"2021-02-02 13:52:06.400310"	"2021-02-02 13:52:07.075043"	104	5.70909488333333
"S210202"	"Conflict_Resolution"	"LEFT"	"LEFT"	562.243899999999	583.3333345	""	n/a	n/a	n/a	"False"	n/a	n/a	"2021-02-02 13:52:07.681526"	"2021-02-02 13:52:08.452688"	105	5.70909488333333
"S210202"	"Conflict_Resolution"	"LEFT"	"LEFT"	423.765200000048	1300.0000026	""	n/a	n/a	n/a	"False"	n/a	n/a	"2021-02-02 13:52:09.772528"	"2021-02-02 13:52:10.403845"	106	5.70909488333333
"S210202"	"Conflict_Resolution"	"RIGHT"	"RIGHT"	955.654600000003	1050.0000021	""	n/a	n/a	n/a	"True"	n/a	n/a	"2021-02-02 13:52:11.472799"	"2021-02-02 13:52:12.635980"	107	5.70909488333333
"S210202"	"Conflict_Resolution"	"LEFT"	"LEFT"	798.490399999991	1350.0000027	""	n/a	n/a	n/a	"False"	n/a	n/a	"2021-02-02 13:52:14.005256"	"2021-02-02 13:52:15.011851"	108	5.70909488333333
"S210202"	"Conflict_Resolution"	"RIGHT"	"RIGHT"	525.027499999965	1000.000002	""	n/a	n/a	n/a	"True"	n/a	n/a	"2021-02-02 13:52:16.030850"	"2021-02-02 13:52:16.764506"	109	5.70909488333333
"S210202"	"Conflict_Resolution"	"LEFT"	"LEFT"	415.283799999997	733.3333348	""	n/a	n/a	n/a	"False"	n/a	n/a	"2021-02-02 13:52:17.516477"	"2021-02-02 13:52:18.140652"	110	5.70909488333333
"S210202"	"Conflict_Resolution"	"RIGHT"	"RIGHT"	387.173399999938	833.333335	""	n/a	n/a	n/a	"False"	n/a	n/a	"2021-02-02 13:52:18.993043"	"2021-02-02 13:52:19.588826"	111	5.70909488333333
"S210202"	"Conflict_Resolution"	"RIGHT"	"RIGHT"	640.000699999973	500.000001	""	n/a	n/a	n/a	"True"	n/a	n/a	"2021-02-02 13:52:20.107740"	"2021-02-02 13:52:20.956763"	112	5.70909488333333
"S210202"	"Conflict_Resolution"	"RIGHT"	"RIGHT"	570.523800000046	1233.3333358	""	n/a	n/a	n/a	"True"	n/a	n/a	"2021-02-02 13:52:22.209565"	"2021-02-02 13:52:22.986874"	113	5.70909488333333
"S210202"	"Conflict_Resolution"	"LEFT"	"LEFT"	609.762199999977	1316.6666693	""	n/a	n/a	n/a	"True"	n/a	n/a	"2021-02-02 13:52:24.322182"	"2021-02-02 13:52:25.139268"	114	5.70909488333333
"S210202"	"Conflict_Resolution"	"LEFT"	"LEFT"	585.048999999913	916.6666685	""	n/a	n/a	n/a	"True"	n/a	n/a	"2021-02-02 13:52:26.075295"	"2021-02-02 13:52:26.867177"	115	5.70909488333333
"S210202"	"Conflict_Resolution"	"RIGHT"	"RIGHT"	519.467599999984	750.0000015	""	n/a	n/a	n/a	"True"	n/a	n/a	"2021-02-02 13:52:27.636154"	"2021-02-02 13:52:28.363654"	116	5.70909488333333
"S210202"	"Conflict_Resolution"	"RIGHT"	"RIGHT"	601.0086	1283.3333359	""	n/a	n/a	n/a	"True"	n/a	n/a	"2021-02-02 13:52:29.666570"	"2021-02-02 13:52:30.476039"	117	5.70909488333333
"S210202"	"Conflict_Resolution"	"RIGHT"	"RIGHT"	445.945099999904	1000.000002	""	n/a	n/a	n/a	"False"	n/a	n/a	"2021-02-02 13:52:31.494469"	"2021-02-02 13:52:32.147447"	118	5.70909488333333
"S210202"	"Conflict_Resolution"	"LEFT"	"LEFT"	696.049900000048	533.3333344	""	n/a	n/a	n/a	"True"	n/a	n/a	"2021-02-02 13:52:32.700094"	"2021-02-02 13:52:33.604741"	119	5.70909488333333
"S210202"	"Conflict_Resolution"	"LEFT"	"LEFT"	586.647400000061	1050.0000021	""	n/a	n/a	n/a	"True"	n/a	n/a	"2021-02-02 13:52:34.673206"	"2021-02-02 13:52:35.467674"	120	5.70909488333333
"S210202"	"Conflict_Resolution"	"LEFT"	"LEFT"	429.917700000033	783.3333349	""	n/a	n/a	n/a	"False"	n/a	n/a	"2021-02-02 13:52:36.269701"	"2021-02-02 13:52:36.908422"	121	5.70909488333333
"S210202"	"Conflict_Resolution"	"LEFT"	"LEFT"	374.20730000008	1150.0000023	""	n/a	n/a	n/a	"False"	n/a	n/a	"2021-02-02 13:52:38.077278"	"2021-02-02 13:52:38.659034"	122	5.70909488333333
"S210202"	"Conflict_Resolution"	"RIGHT"	"RIGHT"	507.951300000059	850.0000017	""	n/a	n/a	n/a	"False"	n/a	n/a	"2021-02-02 13:52:39.527661"	"2021-02-02 13:52:40.243209"	123	5.70909488333333
"S210202"	"Conflict_Resolution"	"RIGHT"	"RIGHT"	572.907700000087	1383.3333361	""	n/a	n/a	n/a	"True"	n/a	n/a	"2021-02-02 13:52:41.647069"	"2021-02-02 13:52:42.427123"	124	5.70909488333333
"S210202"	"Conflict_Resolution"	"LEFT"	"LEFT"	643.316200000072	1066.6666688	""	n/a	n/a	n/a	"True"	n/a	n/a	"2021-02-02 13:52:43.512783"	"2021-02-02 13:52:44.364524"	125	5.70909488333333
"S210202"	"Conflict_Resolution"	"RIGHT"	"RIGHT"	814.950700000054	1333.333336	""	n/a	n/a	n/a	"True"	n/a	n/a	"2021-02-02 13:52:45.716616"	"2021-02-02 13:52:46.740281"	126	5.70909488333333
"S210202"	"Conflict_Resolution"	"RIGHT"	"RIGHT"	500.456200000144	983.3333353	""	n/a	n/a	n/a	"False"	n/a	n/a	"2021-02-02 13:52:47.743608"	"2021-02-02 13:52:48.451519"	127	5.70909488333333
"S210202"	"Conflict_Resolution"	"LEFT"	"LEFT"	631.741299999931	716.6666681	""	n/a	n/a	n/a	"True"	n/a	n/a	"2021-02-02 13:52:49.188355"	"2021-02-02 13:52:50.027362"	128	5.70909488333333
"S210202"	"Conflict_Resolution"	"LEFT"	"LEFT"	1095.40579999998	1350.0000027	""	n/a	n/a	n/a	"True"	n/a	n/a	"2021-02-02 13:52:51.396313"	"2021-02-02 13:52:52.699296"	129	5.70909488333333
"S210202"	"Conflict_Resolution"	"LEFT"	"LEFT"	598.122200000034	1166.666669	""	n/a	n/a	n/a	"True"	n/a	n/a	"2021-02-02 13:52:53.885727"	"2021-02-02 13:52:54.691709"	130	5.70909488333333
"S210202"	"Conflict_Resolution"	"LEFT"	"LEFT"	620.869100000164	1000.000002	""	n/a	n/a	n/a	"True"	n/a	n/a	"2021-02-02 13:52:55.710642"	"2021-02-02 13:52:56.539541"	131	5.70909488333333
"S210202"	"Conflict_Resolution"	"LEFT"	"LEFT"	520.727900000111	516.6666677	""	n/a	n/a	n/a	"False"	n/a	n/a	"2021-02-02 13:52:57.075614"	"2021-02-02 13:52:57.804698"	132	5.70909488333333
"S210202"	"Conflict_Resolution"	"RIGHT"	"RIGHT"	427.085199999965	1233.3333358	""	n/a	n/a	n/a	"False"	n/a	n/a	"2021-02-02 13:52:59.056392"	"2021-02-02 13:52:59.691795"	133	5.70909488333333
"S210202"	"Conflict_Resolution"	"LEFT"	"LEFT"	639.658999999938	516.6666677	""	n/a	n/a	n/a	"True"	n/a	n/a	"2021-02-02 13:53:00.228587"	"2021-02-02 13:53:01.075450"	134	5.70909488333333
"S210202"	"Conflict_Resolution"	"LEFT"	"LEFT"	468.464499999982	1216.6666691	""	n/a	n/a	n/a	"False"	n/a	n/a	"2021-02-02 13:53:02.311611"	"2021-02-02 13:53:02.987867"	135	5.70909488333333
"S210202"	"Conflict_Resolution"	"RIGHT"	"RIGHT"	591.641799999934	1316.6666693	""	n/a	n/a	n/a	"True"	n/a	n/a	"2021-02-02 13:53:04.324572"	"2021-02-02 13:53:05.124073"	136	5.70909488333333
"S210202"	"Conflict_Resolution"	"LEFT"	"LEFT"	634.261900000183	900.0000018	""	n/a	n/a	n/a	"True"	n/a	n/a	"2021-02-02 13:53:06.041691"	"2021-02-02 13:53:06.883416"	137	5.70909488333333
"S210202"	"Conflict_Resolution"	"RIGHT"	"RIGHT"	894.43469999992	583.3333345	""	n/a	n/a	n/a	"False"	n/a	n/a	"2021-02-02 13:53:07.485838"	"2021-02-02 13:53:08.586978"	138	5.70909488333333
"S210202"	"Conflict_Resolution"	"LEFT"	"LEFT"	511.923699999898	1400.0000028	""	n/a	n/a	n/a	"False"	n/a	n/a	"2021-02-02 13:53:10.004973"	"2021-02-02 13:53:10.724563"	139	5.70909488333333
"S210202"	"Conflict_Resolution"	"RIGHT"	"RIGHT"	894.175199999836	950.0000019	""	n/a	n/a	n/a	"True"	n/a	n/a	"2021-02-02 13:53:11.694172"	"2021-02-02 13:53:12.795847"	140	5.70909488333333
"S210202"	"Conflict_Resolution"	"RIGHT"	"RIGHT"	805.301899999904	783.3333349	""	n/a	n/a	n/a	"True"	n/a	n/a	"2021-02-02 13:53:13.598787"	"2021-02-02 13:53:14.611725"	141	5.70909488333333
"S210202"	"Conflict_Resolution"	"RIGHT"	"RIGHT"	544.980299999906	700.0000014	""	n/a	n/a	n/a	"False"	n/a	n/a	"2021-02-02 13:53:15.330807"	"2021-02-02 13:53:16.084479"	142	5.70909488333333
"S210202"	"Conflict_Resolution"	"RIGHT"	"RIGHT"	538.21999999991	1033.3333354	""	n/a	n/a	n/a	"False"	n/a	n/a	"2021-02-02 13:53:17.137328"	"2021-02-02 13:53:17.884444"	143	5.70909488333333
"S210202"	"Conflict_Resolution"	"LEFT"	"LEFT"	682.462199999918	850.0000017	""	n/a	n/a	n/a	"False"	n/a	n/a	"2021-02-02 13:53:18.753225"	"2021-02-02 13:53:19.644319"	144	5.70909488333333
"S210202"	"Conflict_Resolution"	"LEFT"	"LEFT"	645.349699999997	1416.6666695	""	n/a	n/a	n/a	"True"	n/a	n/a	"2021-02-02 13:53:21.078319"	"2021-02-02 13:53:21.931151"	145	5.70909488333333
"S210202"	"Conflict_Resolution"	"RIGHT"	"RIGHT"	609.399400000029	1316.6666693	""	n/a	n/a	n/a	"False"	n/a	n/a	"2021-02-02 13:53:23.266225"	"2021-02-02 13:53:24.083092"	146	5.70909488333333
"S210202"	"Conflict_Resolution"	"RIGHT"	"RIGHT"	511.662899999919	1266.6666692	""	n/a	n/a	n/a	"False"	n/a	n/a	"2021-02-02 13:53:25.372419"	"2021-02-02 13:53:26.092853"	147	5.70909488333333
"S210202"	"Conflict_Resolution"	"LEFT"	"LEFT"	592.011499999899	1500.000003	""	n/a	n/a	n/a	"False"	n/a	n/a	"2021-02-02 13:53:27.611893"	"2021-02-02 13:53:28.412635"	148	5.70909488333333
"S210202"	"Conflict_Resolution"	"RIGHT"	"RIGHT"	745.300799999995	833.333335	""	n/a	n/a	n/a	"True"	n/a	n/a	"2021-02-02 13:53:29.266874"	"2021-02-02 13:53:30.220829"	149	5.70909488333333
"S210202"	"Conflict_Resolution"	"LEFT"	"LEFT"	780.467699999917	783.3333349	""	n/a	n/a	n/a	"True"	n/a	n/a	"2021-02-02 13:53:31.023455"	"2021-02-02 13:53:32.011713"	150	5.70909488333333
"S210202"	"Conflict_Resolution"	"LEFT"	"LEFT"	620.340499999884	1416.6666695	""	n/a	n/a	n/a	"False"	n/a	n/a	"2021-02-02 13:53:33.447109"	"2021-02-02 13:53:34.275342"	151	5.70909488333333
"S210202"	"Conflict_Resolution"	"LEFT"	"LEFT"	728.934299999992	1100.0000022	""	n/a	n/a	n/a	"True"	n/a	n/a	"2021-02-02 13:53:35.394476"	"2021-02-02 13:53:36.330968"	152	5.70909488333333
"S210202"	"Conflict_Resolution"	"RIGHT"	"RIGHT"	736.819800000148	1133.3333356	""	n/a	n/a	n/a	"True"	n/a	n/a	"2021-02-02 13:53:37.482705"	"2021-02-02 13:53:38.427874"	153	5.70909488333333
"S210202"	"Conflict_Resolution"	"LEFT"	"LEFT"	727.900399999953	766.6666682	""	n/a	n/a	n/a	"True"	n/a	n/a	"2021-02-02 13:53:39.211632"	"2021-02-02 13:53:40.147025"	154	5.70909488333333
"S210202"	"Conflict_Resolution"	"LEFT"	"LEFT"	619.614400000046	1266.6666692	""	n/a	n/a	n/a	"True"	n/a	n/a	"2021-02-02 13:53:41.431776"	"2021-02-02 13:53:42.260708"	155	5.70909488333333
"S210202"	"Conflict_Resolution"	"LEFT"	"LEFT"	665.366100000028	666.666668	""	n/a	n/a	n/a	"True"	n/a	n/a	"2021-02-02 13:53:42.947228"	"2021-02-02 13:53:43.819332"	156	5.70909488333333
"S210202"	"Conflict_Resolution"	"LEFT"	"LEFT"	644.298999999819	850.0000017	""	n/a	n/a	n/a	"True"	n/a	n/a	"2021-02-02 13:53:44.687396"	"2021-02-02 13:53:45.540688"	157	5.70909488333333
"S210202"	"Conflict_Resolution"	"LEFT"	"LEFT"	596.791100000019	583.3333345	""	n/a	n/a	n/a	"True"	n/a	n/a	"2021-02-02 13:53:46.142712"	"2021-02-02 13:53:46.947063"	158	5.70909488333333
"S210202"	"Conflict_Resolution"	"RIGHT"	"RIGHT"	509.528000000046	783.3333349	""	n/a	n/a	n/a	"False"	n/a	n/a	"2021-02-02 13:53:47.750105"	"2021-02-02 13:53:48.467785"	159	5.70909488333333
"S210202"	"Conflict_Resolution"	"LEFT"	"RIGHT"	860.30239999991	1216.6666691	""	n/a	n/a	n/a	"True"	n/a	n/a	"2021-02-02 13:53:49.703236"	"2021-02-02 13:53:50.771215"	160	5.70909488333333
"S210202"	"Processing_Speed"	"RIGHT"	"Time_Max_Exceeded"	1500.0713	633.3333346	""	n/a	n/a	n/a	n/a	n/a	n/a	"2021-02-02 13:38:03.564257"	"2021-02-02 13:38:05.088649"	1	1.99723995
"S210202"	"Processing_Speed"	"RIGHT"	"DOWN"	545.478900000006	850.0000017	""	n/a	n/a	n/a	n/a	n/a	n/a	"2021-02-02 13:38:05.947791"	"2021-02-02 13:38:06.701470"	2	1.99723995
"S210202"	"Processing_Speed"	"LEFT"	"DOWN"	372.922799999998	1050.0000021	""	n/a	n/a	n/a	n/a	n/a	n/a	"2021-02-02 13:38:07.760063"	"2021-02-02 13:38:08.341740"	3	1.99723995
"S210202"	"Processing_Speed"	"RIGHT"	"DOWN"	300.294999999977	666.666668	""	n/a	n/a	n/a	n/a	n/a	n/a	"2021-02-02 13:38:09.016568"	"2021-02-02 13:38:09.524082"	4	1.99723995
"S210202"	"Processing_Speed"	"RIGHT"	"DOWN"	438.149199999998	1050.0000021	""	n/a	n/a	n/a	n/a	n/a	n/a	"2021-02-02 13:38:10.582782"	"2021-02-02 13:38:11.228799"	5	1.99723995
"S210202"	"Processing_Speed"	"RIGHT"	"DOWN"	248.097700000017	1183.3333357	""	n/a	n/a	n/a	n/a	n/a	n/a	"2021-02-02 13:38:12.420500"	"2021-02-02 13:38:12.876200"	6	1.99723995
"S210202"	"Processing_Speed"	"LEFT"	"DOWN"	241.865099999984	1150.0000023	""	n/a	n/a	n/a	n/a	n/a	n/a	"2021-02-02 13:38:14.035248"	"2021-02-02 13:38:14.484217"	7	1.99723995
"S210202"	"Processing_Speed"	"LEFT"	"DOWN"	246.6881	850.0000017	""	n/a	n/a	n/a	n/a	n/a	n/a	"2021-02-02 13:38:15.342325"	"2021-02-02 13:38:15.797591"	8	1.99723995
"S210202"	"Processing_Speed"	"LEFT"	"DOWN"	225.683500000002	1333.333336	""	n/a	n/a	n/a	n/a	n/a	n/a	"2021-02-02 13:38:17.139377"	"2021-02-02 13:38:17.572414"	9	1.99723995
"S210202"	"Processing_Speed"	"RIGHT"	"DOWN"	247.192799999993	1016.6666687	""	n/a	n/a	n/a	n/a	n/a	n/a	"2021-02-02 13:38:18.598001"	"2021-02-02 13:38:19.051866"	10	1.99723995
"S210202"	"Processing_Speed"	"LEFT"	"DOWN"	284.280099999989	700.0000014	""	n/a	n/a	n/a	n/a	n/a	n/a	"2021-02-02 13:38:19.760598"	"2021-02-02 13:38:20.252663"	11	1.99723995
"S210202"	"Processing_Speed"	"RIGHT"	"DOWN"	539.917800000012	1083.3333355	"DOWN"	-55.884	n/a	n/a	n/a	n/a	n/a	"2021-02-02 13:38:21.345112"	"2021-02-02 13:38:22.092147"	12	1.99723995
"S210202"	"Processing_Speed"	"RIGHT"	"DOWN"	316.493299999991	700.0000014	""	n/a	n/a	n/a	n/a	n/a	n/a	"2021-02-02 13:38:22.800257"	"2021-02-02 13:38:23.324046"	13	1.99723995
"S210202"	"Processing_Speed"	"RIGHT"	"DOWN"	307.171699999998	1333.333336	""	n/a	n/a	n/a	n/a	n/a	n/a	"2021-02-02 13:38:24.666266"	"2021-02-02 13:38:25.180854"	14	1.99723995
"S210202"	"Processing_Speed"	"LEFT"	"DOWN"	308.533299999993	1466.6666696	""	n/a	n/a	n/a	n/a	n/a	n/a	"2021-02-02 13:38:26.656583"	"2021-02-02 13:38:27.172705"	15	1.99723995
"S210202"	"Processing_Speed"	"RIGHT"	"DOWN"	699.767799999989	1500.000003	""	n/a	n/a	n/a	n/a	n/a	n/a	"2021-02-02 13:38:28.681414"	"2021-02-02 13:38:29.589551"	16	1.99723995
"S210202"	"Processing_Speed"	"LEFT"	"DOWN"	439.173899999986	983.3333353	""	n/a	n/a	n/a	n/a	n/a	n/a	"2021-02-02 13:38:30.581930"	"2021-02-02 13:38:31.228031"	17	1.99723995
"S210202"	"Processing_Speed"	"RIGHT"	"DOWN"	262.985500000013	1433.3333362	""	n/a	n/a	n/a	n/a	n/a	n/a	"2021-02-02 13:38:32.670264"	"2021-02-02 13:38:33.140833"	18	1.99723995
"S210202"	"Processing_Speed"	"RIGHT"	"DOWN"	583.545799999996	1400.0000028	""	n/a	n/a	n/a	n/a	n/a	n/a	"2021-02-02 13:38:34.548825"	"2021-02-02 13:38:35.340661"	19	1.99723995
"S210202"	"Processing_Speed"	"LEFT"	"DOWN"	286.991700000016	1016.6666687	""	n/a	n/a	n/a	n/a	n/a	n/a	"2021-02-02 13:38:36.365924"	"2021-02-02 13:38:36.860565"	20	1.99723995
"S210202"	"Processing_Speed"	"LEFT"	"DOWN"	334.512799999999	783.3333349	""	n/a	n/a	n/a	n/a	n/a	n/a	"2021-02-02 13:38:37.654480"	"2021-02-02 13:38:38.197855"	21	1.99723995
"S210202"	"Processing_Speed"	"LEFT"	"DOWN"	265.7782	916.6666685	""	n/a	n/a	n/a	n/a	n/a	n/a	"2021-02-02 13:38:39.122979"	"2021-02-02 13:38:39.596792"	22	1.99723995
"S210202"	"Processing_Speed"	"RIGHT"	"DOWN"	299.987700000003	883.3333351	""	n/a	n/a	n/a	n/a	n/a	n/a	"2021-02-02 13:38:40.488877"	"2021-02-02 13:38:40.996837"	23	1.99723995
"S210202"	"Processing_Speed"	"LEFT"	"DOWN"	251.771300000001	1500.000003	""	n/a	n/a	n/a	n/a	n/a	n/a	"2021-02-02 13:38:42.504864"	"2021-02-02 13:38:42.964089"	24	1.99723995
"S210202"	"Processing_Speed"	"LEFT"	"DOWN"	276.128699999987	1083.3333355	""	n/a	n/a	n/a	n/a	n/a	n/a	"2021-02-02 13:38:44.056336"	"2021-02-02 13:38:44.540916"	25	1.99723995
"S210202"	"Processing_Speed"	"LEFT"	"DOWN"	262.876199999994	1366.6666694	""	n/a	n/a	n/a	n/a	n/a	n/a	"2021-02-02 13:38:45.917866"	"2021-02-02 13:38:46.388729"	26	1.99723995
"S210202"	"Processing_Speed"	"RIGHT"	"DOWN"	300.766400000015	1466.6666696	""	n/a	n/a	n/a	n/a	n/a	n/a	"2021-02-02 13:38:47.863737"	"2021-02-02 13:38:48.373844"	27	1.99723995
"S210202"	"Processing_Speed"	"RIGHT"	"DOWN"	402.554899999984	916.6666685	""	n/a	n/a	n/a	n/a	n/a	n/a	"2021-02-02 13:38:49.297940"	"2021-02-02 13:38:49.908189"	28	1.99723995
"S210202"	"Processing_Speed"	"LEFT"	"DOWN"	264.341700000017	600.0000012	""	n/a	n/a	n/a	n/a	n/a	n/a	"2021-02-02 13:38:50.516383"	"2021-02-02 13:38:50.988877"	29	1.99723995
"S210202"	"Processing_Speed"	"LEFT"	"DOWN"	280.183800000003	950.0000019	""	n/a	n/a	n/a	n/a	n/a	n/a	"2021-02-02 13:38:51.948989"	"2021-02-02 13:38:52.436520"	30	1.99723995
"S210202"	"Processing_Speed"	"RIGHT"	"DOWN"	241.41849999998	1366.6666694	""	n/a	n/a	n/a	n/a	n/a	n/a	"2021-02-02 13:38:53.811713"	"2021-02-02 13:38:54.260092"	31	1.99723995
"S210202"	"Processing_Speed"	"RIGHT"	"DOWN"	267.016699999999	533.3333344	""	n/a	n/a	n/a	n/a	n/a	n/a	"2021-02-02 13:38:54.801673"	"2021-02-02 13:38:55.277690"	32	1.99723995
"S210202"	"Processing_Speed"	"RIGHT"	"DOWN"	265.618100000012	1116.6666689	""	n/a	n/a	n/a	n/a	n/a	n/a	"2021-02-02 13:38:56.403443"	"2021-02-02 13:38:56.876178"	33	1.99723995
"S210202"	"Processing_Speed"	"LEFT"	"DOWN"	255.860899999988	1400.0000028	""	n/a	n/a	n/a	n/a	n/a	n/a	"2021-02-02 13:38:58.285198"	"2021-02-02 13:38:58.748451"	34	1.99723995
"S210202"	"Processing_Speed"	"LEFT"	"DOWN"	228.6565	1433.3333362	""	n/a	n/a	n/a	n/a	n/a	n/a	"2021-02-02 13:39:00.192579"	"2021-02-02 13:39:00.629410"	35	1.99723995
"S210202"	"Processing_Speed"	"RIGHT"	"DOWN"	350.599799999998	983.3333353	""	n/a	n/a	n/a	n/a	n/a	n/a	"2021-02-02 13:39:01.621961"	"2021-02-02 13:39:02.181510"	36	1.99723995
"S210202"	"Processing_Speed"	"LEFT"	"DOWN"	219.956599999989	1266.6666692	""	n/a	n/a	n/a	n/a	n/a	n/a	"2021-02-02 13:39:03.456882"	"2021-02-02 13:39:03.884704"	37	1.99723995
"S210202"	"Processing_Speed"	"RIGHT"	"DOWN"	266.493300000008	733.3333348	""	n/a	n/a	n/a	n/a	n/a	n/a	"2021-02-02 13:39:04.626839"	"2021-02-02 13:39:05.100087"	38	1.99723995
"S210202"	"Processing_Speed"	"LEFT"	"DOWN"	227.260300000012	533.3333344	""	n/a	n/a	n/a	n/a	n/a	n/a	"2021-02-02 13:39:05.641669"	"2021-02-02 13:39:06.077599"	39	1.99723995
"S210202"	"Processing_Speed"	"LEFT"	"DOWN"	256.203900000003	566.6666678	""	n/a	n/a	n/a	n/a	n/a	n/a	"2021-02-02 13:39:06.652157"	"2021-02-02 13:39:07.115910"	40	1.99723995
"S210202"	"Processing_Speed"	"RIGHT"	"DOWN"	218.636199999992	950.0000019	""	n/a	n/a	n/a	n/a	n/a	n/a	"2021-02-02 13:39:08.074425"	"2021-02-02 13:39:08.500449"	41	1.99723995
"S210202"	"Processing_Speed"	"RIGHT"	"DOWN"	301.269300000001	1266.6666692	""	n/a	n/a	n/a	n/a	n/a	n/a	"2021-02-02 13:39:09.775852"	"2021-02-02 13:39:10.285809"	42	1.99723995
"S210202"	"Processing_Speed"	"RIGHT"	"DOWN"	238.576399999999	816.6666683	""	n/a	n/a	n/a	n/a	n/a	n/a	"2021-02-02 13:39:11.110689"	"2021-02-02 13:39:11.557434"	43	1.99723995
"S210202"	"Processing_Speed"	"RIGHT"	"DOWN"	331.084299999986	1300.0000026	""	n/a	n/a	n/a	n/a	n/a	n/a	"2021-02-02 13:39:12.865516"	"2021-02-02 13:39:13.404642"	44	1.99723995
"S210202"	"Processing_Speed"	"RIGHT"	"DOWN"	264.404200000001	783.3333349	""	n/a	n/a	n/a	n/a	n/a	n/a	"2021-02-02 13:39:14.196634"	"2021-02-02 13:39:14.669369"	45	1.99723995
"S210202"	"Processing_Speed"	"LEFT"	"DOWN"	258.853299999998	1300.0000026	""	n/a	n/a	n/a	n/a	n/a	n/a	"2021-02-02 13:39:15.977496"	"2021-02-02 13:39:16.444247"	46	1.99723995
"S210202"	"Processing_Speed"	"LEFT"	"DOWN"	17.4208999999905	1216.6666691	""	n/a	n/a	n/a	n/a	n/a	n/a	"2021-02-02 13:39:17.668974"	"2021-02-02 13:39:17.895369"	47	1.99723995
"S210202"	"Processing_Speed"	"LEFT"	"DOWN"	335.967799999992	733.3333348	""	n/a	n/a	n/a	n/a	n/a	n/a	"2021-02-02 13:39:18.637068"	"2021-02-02 13:39:19.182829"	48	1.99723995
"S210202"	"Processing_Speed"	"LEFT"	"DOWN"	289.833899999991	883.3333351	""	n/a	n/a	n/a	n/a	n/a	n/a	"2021-02-02 13:39:20.074490"	"2021-02-02 13:39:20.572724"	49	1.99723995
"S210202"	"Processing_Speed"	"RIGHT"	"DOWN"	278.327399999995	1216.6666691	""	n/a	n/a	n/a	n/a	n/a	n/a	"2021-02-02 13:39:21.798532"	"2021-02-02 13:39:22.284269"	50	1.99723995
"S210202"	"Processing_Speed"	"LEFT"	"DOWN"	267.175299999991	1116.6666689	""	n/a	n/a	n/a	n/a	n/a	n/a	"2021-02-02 13:39:23.409851"	"2021-02-02 13:39:23.886437"	51	1.99723995
"S210202"	"Processing_Speed"	"RIGHT"	"DOWN"	279.168699999985	566.6666678	""	n/a	n/a	n/a	n/a	n/a	n/a	"2021-02-02 13:39:24.462060"	"2021-02-02 13:39:24.947978"	52	1.99723995
"S210202"	"Processing_Speed"	"LEFT"	"DOWN"	255.94319999999	816.6666683	""	n/a	n/a	n/a	n/a	n/a	n/a	"2021-02-02 13:39:25.772941"	"2021-02-02 13:39:26.237683"	53	1.99723995
"S210202"	"Processing_Speed"	"LEFT"	"DOWN"	283.4249	666.666668	""	n/a	n/a	n/a	n/a	n/a	n/a	"2021-02-02 13:39:26.913515"	"2021-02-02 13:39:27.404837"	54	1.99723995
"S210202"	"Processing_Speed"	"RIGHT"	"DOWN"	299.627200000003	500.000001	""	n/a	n/a	n/a	n/a	n/a	n/a	"2021-02-02 13:39:27.913518"	"2021-02-02 13:39:28.420133"	55	1.99723995
"S210202"	"Processing_Speed"	"RIGHT"	"DOWN"	248.273600000005	600.0000012	""	n/a	n/a	n/a	n/a	n/a	n/a	"2021-02-02 13:39:29.028110"	"2021-02-02 13:39:29.484071"	56	1.99723995
"S210202"	"Processing_Speed"	"RIGHT"	"DOWN"	234.997899999996	1150.0000023	""	n/a	n/a	n/a	n/a	n/a	n/a	"2021-02-02 13:39:30.642220"	"2021-02-02 13:39:31.084950"	57	1.99723995
"S210202"	"Processing_Speed"	"LEFT"	"DOWN"	275.320399999998	500.000001	""	n/a	n/a	n/a	n/a	n/a	n/a	"2021-02-02 13:39:31.593655"	"2021-02-02 13:39:32.076906"	58	1.99723995
"S210202"	"Processing_Speed"	"LEFT"	"DOWN"	302.021800000006	633.3333346	""	n/a	n/a	n/a	n/a	n/a	n/a	"2021-02-02 13:39:32.718786"	"2021-02-02 13:39:33.229463"	59	1.99723995
"S210202"	"Processing_Speed"	"LEFT"	"DOWN"	279.797800000011	1183.3333357	""	n/a	n/a	n/a	n/a	n/a	n/a	"2021-02-02 13:39:34.420776"	"2021-02-02 13:39:34.909832"	60	1.99723995
"S210202"	"Response_Inhibition"	"LEFT"	"LEFT"	407.184700000016	1233.3333358	n/a	n/a	n/a	n/a	n/a	n/a	n/a	"2021-02-02 13:42:48.757601"	"2021-02-02 13:42:49.372235"	1	5.8345422
"S210202"	"Response_Inhibition"	"LEFT"	"LEFT"	433.075700000018	1150.0000023	n/a	n/a	n/a	n/a	n/a	n/a	n/a	"2021-02-02 13:42:50.531562"	"2021-02-02 13:42:51.172367"	2	5.8345422
"S210202"	"Response_Inhibition"	"LEFT"	"LEFT"	353.146999999979	700.0000014	n/a	n/a	n/a	n/a	n/a	n/a	n/a	"2021-02-02 13:42:51.883084"	"2021-02-02 13:42:52.450384"	3	5.8345422
"S210202"	"Response_Inhibition"	"RIGHT"	"RIGHT"	361.57006730001	900.0000018	n/a	n/a	n/a	n/a	n/a	n/a	n/a	"2021-02-02 13:42:53.360037"	"2021-02-02 13:42:53.932006"	4	5.8345422
"S210202"	"Response_Inhibition"	"RIGHT"	"Time_Max_Exceeded"	1500.0584	1400.0000028	n/a	n/a	n/a	n/a	n/a	n/a	n/a	"2021-02-02 13:42:55.340222"	"2021-02-02 13:42:56.840117"	5	5.8345422
"S210202"	"Response_Inhibition"	"RIGHT"	"RIGHT"	496.713999999997	1466.6666696	n/a	n/a	n/a	n/a	n/a	n/a	n/a	"2021-02-02 13:42:58.316049"	"2021-02-02 13:42:59.019925"	6	5.8345422
"S210202"	"Response_Inhibition"	"LEFT"	"LEFT"	487.321300000019	1216.6666691	n/a	n/a	n/a	n/a	n/a	n/a	n/a	"2021-02-02 13:43:00.245310"	"2021-02-02 13:43:00.939957"	7	5.8345422
"S210202"	"Response_Inhibition"	"RIGHT"	"RIGHT"	399.495000000002	1216.6666691	n/a	n/a	n/a	n/a	n/a	n/a	n/a	"2021-02-02 13:43:02.165312"	"2021-02-02 13:43:02.772656"	8	5.8345422
"S210202"	"Response_Inhibition"	"RIGHT"	"RIGHT"	353.425299999969	1133.3333356	n/a	n/a	n/a	n/a	n/a	n/a	n/a	"2021-02-02 13:43:03.915678"	"2021-02-02 13:43:04.476523"	9	5.8345422
"S210202"	"Response_Inhibition"	"LEFT"	"LEFT"	395.000800000048	1316.6666693	n/a	n/a	n/a	n/a	n/a	n/a	n/a	"2021-02-02 13:43:05.801761"	"2021-02-02 13:43:06.404116"	10	5.8345422
"S210202"	"Response_Inhibition"	"RIGHT"	"RIGHT"	413.742066999972	583.3333345	n/a	n/a	n/a	n/a	n/a	n/a	n/a	"2021-02-02 13:43:06.995581"	"2021-02-02 13:43:07.621412"	11	5.8345422
"S210202"	"Response_Inhibition"	"RIGHT"	"RIGHT"	392.474766900006	1250.0000025	n/a	n/a	n/a	n/a	n/a	n/a	n/a	"2021-02-02 13:43:08.880828"	"2021-02-02 13:43:09.484251"	12	5.8345422
"S210202"	"Response_Inhibition"	"LEFT"	"LEFT"	584.202800000014	800.0000016	n/a	n/a	n/a	n/a	n/a	n/a	n/a	"2021-02-02 13:43:10.292672"	"2021-02-02 13:43:11.084953"	13	5.8345422
"S210202"	"Response_Inhibition"	"LEFT"	"LEFT"	498.428799999999	1116.6666689	n/a	n/a	n/a	n/a	n/a	n/a	n/a	"2021-02-02 13:43:12.210045"	"2021-02-02 13:43:12.917126"	14	5.8345422
"S210202"	"Response_Inhibition"	"RIGHT"	"RIGHT"	534.883400000012	600.0000012	n/a	n/a	n/a	n/a	n/a	n/a	n/a	"2021-02-02 13:43:13.525546"	"2021-02-02 13:43:14.269137"	15	5.8345422
"S210202"	"Response_Inhibition"	"RIGHT"	"RIGHT"	544.258599999978	1366.6666694	n/a	n/a	n/a	n/a	n/a	n/a	n/a	"2021-02-02 13:43:15.644655"	"2021-02-02 13:43:16.396295"	16	5.8345422
"S210202"	"Response_Inhibition"	"RIGHT"	"RIGHT"	427.495899999997	1500.000003	n/a	n/a	n/a	n/a	n/a	n/a	n/a	"2021-02-02 13:43:17.905414"	"2021-02-02 13:43:18.539926"	17	5.8345422
"S210202"	"Response_Inhibition"	"RIGHT"	"RIGHT"	585.172999999998	1150.0000023	n/a	n/a	n/a	n/a	n/a	n/a	n/a	"2021-02-02 13:43:19.699306"	"2021-02-02 13:43:20.492447"	18	5.8345422
"S210202"	"Response_Inhibition"	"LEFT"	"Time_Max_Exceeded"	1500.04856700001	1483.3333363	n/a	n/a	n/a	n/a	n/a	n/a	n/a	"2021-02-02 13:43:21.984554"	"2021-02-02 13:43:23.487661"	19	5.8345422
"S210202"	"Response_Inhibition"	"LEFT"	"LEFT"	592.934500000013	633.3333346	n/a	n/a	n/a	n/a	n/a	n/a	n/a	"2021-02-02 13:43:24.131828"	"2021-02-02 13:43:24.932563"	20	5.8345422
"S210202"	"Response_Inhibition"	"RIGHT"	"RIGHT"	1063.98899999999	1383.3333361	n/a	n/a	n/a	n/a	n/a	n/a	n/a	"2021-02-02 13:43:26.324158"	"2021-02-02 13:43:27.596356"	21	5.8345422
"S210202"	"Response_Inhibition"	"RIGHT"	"RIGHT"	678.55830000002	583.3333345	n/a	n/a	n/a	n/a	n/a	n/a	n/a	"2021-02-02 13:43:28.190440"	"2021-02-02 13:43:29.076070"	22	5.8345422
"S210202"	"Response_Inhibition"	"RIGHT"	"RIGHT"	479.552899999987	816.6666683	n/a	n/a	n/a	n/a	n/a	n/a	n/a	"2021-02-02 13:43:29.901042"	"2021-02-02 13:43:30.588154"	23	5.8345422
"S210202"	"Response_Inhibition"	"RIGHT"	"RIGHT"	516.702399999986	1466.6666696	n/a	n/a	n/a	n/a	n/a	n/a	n/a	"2021-02-02 13:43:32.064073"	"2021-02-02 13:43:32.788721"	24	5.8345422
"S210202"	"Response_Inhibition"	"LEFT"	"Time_Max_Exceeded"	1500.05756680001	866.6666684	n/a	n/a	n/a	n/a	n/a	n/a	n/a	"2021-02-02 13:43:33.663839"	"2021-02-02 13:43:35.167466"	25	5.8345422
"S210202"	"Response_Inhibition"	"LEFT"	"Time_Max_Exceeded"	1500.05996689997	1166.666669	n/a	n/a	n/a	n/a	n/a	n/a	n/a	"2021-02-02 13:43:36.343463"	"2021-02-02 13:43:37.846566"	26	5.8345422
"S210202"	"Response_Inhibition"	"RIGHT"	"RIGHT"	558.874199999991	1366.6666694	n/a	n/a	n/a	n/a	n/a	n/a	n/a	"2021-02-02 13:43:39.221526"	"2021-02-02 13:43:39.988470"	27	5.8345422
"S210202"	"Response_Inhibition"	"RIGHT"	"RIGHT"	643.562499999973	900.0000018	n/a	n/a	n/a	n/a	n/a	n/a	n/a	"2021-02-02 13:43:40.897113"	"2021-02-02 13:43:41.747932"	28	5.8345422
"S210202"	"Response_Inhibition"	"RIGHT"	"RIGHT"	378.772400000003	733.3333348	n/a	n/a	n/a	n/a	n/a	n/a	n/a	"2021-02-02 13:43:42.489995"	"2021-02-02 13:43:43.075987"	29	5.8345422
"S210202"	"Response_Inhibition"	"RIGHT"	"RIGHT"	426.045699999975	1150.0000023	n/a	n/a	n/a	n/a	n/a	n/a	n/a	"2021-02-02 13:43:44.235010"	"2021-02-02 13:43:44.868822"	30	5.8345422
"S210202"	"Response_Inhibition"	"RIGHT"	"RIGHT"	384.241400000008	966.6666686	n/a	n/a	n/a	n/a	n/a	n/a	n/a	"2021-02-02 13:43:45.844344"	"2021-02-02 13:43:46.436033"	31	5.8345422
"S210202"	"Response_Inhibition"	"LEFT"	"LEFT"	570.005100000003	750.0000015	n/a	n/a	n/a	n/a	n/a	n/a	n/a	"2021-02-02 13:43:47.194941"	"2021-02-02 13:43:47.972579"	32	5.8345422
"S210202"	"Response_Inhibition"	"RIGHT"	"Time_Max_Exceeded"	1500.0515334	1350.0000027	n/a	n/a	n/a	n/a	n/a	n/a	n/a	"2021-02-02 13:43:49.330810"	"2021-02-02 13:43:50.834483"	33	5.8345422
"S210202"	"Response_Inhibition"	"RIGHT"	"Time_Max_Exceeded"	1500.04756720004	783.3333349	n/a	n/a	n/a	n/a	n/a	n/a	n/a	"2021-02-02 13:43:51.627075"	"2021-02-02 13:43:53.130474"	34	5.8345422
"S210202"	"Response_Inhibition"	"LEFT"	"Time_Max_Exceeded"	1500.05183369998	1100.0000022	n/a	n/a	n/a	n/a	n/a	n/a	n/a	"2021-02-02 13:43:54.239887"	"2021-02-02 13:43:55.743087"	35	5.8345422
"S210202"	"Response_Inhibition"	"RIGHT"	"RIGHT"	801.282999999955	666.666668	n/a	n/a	n/a	n/a	n/a	n/a	n/a	"2021-02-02 13:43:56.419492"	"2021-02-02 13:43:57.428808"	36	5.8345422
"S210202"	"Response_Inhibition"	"RIGHT"	"RIGHT"	529.445699999997	950.0000019	n/a	n/a	n/a	n/a	n/a	n/a	n/a	"2021-02-02 13:43:58.386802"	"2021-02-02 13:43:59.124316"	37	5.8345422
"S210202"	"Response_Inhibition"	"RIGHT"	"Time_Max_Exceeded"	1500.05740059999	983.3333353	n/a	n/a	n/a	n/a	n/a	n/a	n/a	"2021-02-02 13:44:00.115776"	"2021-02-02 13:44:01.620416"	38	5.8345422
"S210202"	"Response_Inhibition"	"LEFT"	"Time_Max_Exceeded"	1500.07463339997	950.0000019	n/a	n/a	n/a	n/a	n/a	n/a	n/a	"2021-02-02 13:44:02.579300"	"2021-02-02 13:44:04.082731"	39	5.8345422
"S210202"	"Response_Inhibition"	"RIGHT"	"RIGHT"	540.119499999946	916.6666685	n/a	n/a	n/a	n/a	n/a	n/a	n/a	"2021-02-02 13:44:05.008529"	"2021-02-02 13:44:05.756192"	40	5.8345422
"S210202"	"Response_Inhibition"	"RIGHT"	"Time_Max_Exceeded"	1500.04843380006	1166.666669	n/a	n/a	n/a	n/a	n/a	n/a	n/a	"2021-02-02 13:44:06.932307"	"2021-02-02 13:44:08.435182"	41	5.8345422
"S210202"	"Response_Inhibition"	"RIGHT"	"Time_Max_Exceeded"	1500.05016699997	1033.3333354	n/a	n/a	n/a	n/a	n/a	n/a	n/a	"2021-02-02 13:44:09.477962"	"2021-02-02 13:44:10.981178"	42	5.8345422
"S210202"	"Response_Inhibition"	"RIGHT"	"Time_Max_Exceeded"	1500.08666670002	550.0000011	n/a	n/a	n/a	n/a	n/a	n/a	n/a	"2021-02-02 13:44:11.541906"	"2021-02-02 13:44:13.046053"	43	5.8345422
"S210202"	"Response_Inhibition"	"LEFT"	"LEFT"	629.763400000002	1366.6666694	n/a	n/a	n/a	n/a	n/a	n/a	n/a	"2021-02-02 13:44:14.422367"	"2021-02-02 13:44:15.259997"	44	5.8345422
"S210202"	"Response_Inhibition"	"RIGHT"	"RIGHT"	615.758300000039	1000.000002	n/a	n/a	n/a	n/a	n/a	n/a	n/a	"2021-02-02 13:44:16.268964"	"2021-02-02 13:44:17.092830"	45	5.8345422
"S210202"	"Response_Inhibition"	"RIGHT"	"RIGHT"	683.669000000009	1483.3333363	n/a	n/a	n/a	n/a	n/a	n/a	n/a	"2021-02-02 13:44:18.585036"	"2021-02-02 13:44:19.475992"	46	5.8345422
"S210202"	"Response_Inhibition"	"LEFT"	"LEFT"	498.207700600012	666.666668	n/a	n/a	n/a	n/a	n/a	n/a	n/a	"2021-02-02 13:44:20.150740"	"2021-02-02 13:44:20.860490"	47	5.8345422
"S210202"	"Response_Inhibition"	"RIGHT"	"RIGHT"	893.207599999982	1050.0000021	n/a	n/a	n/a	n/a	n/a	n/a	n/a	"2021-02-02 13:44:21.918772"	"2021-02-02 13:44:23.021349"	48	5.8345422
"S210202"	"Response_Inhibition"	"RIGHT"	"Time_Max_Exceeded"	1500.05450020001	1183.3333357	n/a	n/a	n/a	n/a	n/a	n/a	n/a	"2021-02-02 13:44:24.213743"	"2021-02-02 13:44:25.716935"	49	5.8345422
"S210202"	"Response_Inhibition"	"RIGHT"	"RIGHT"	896.291000000019	766.6666682	n/a	n/a	n/a	n/a	n/a	n/a	n/a	"2021-02-02 13:44:26.492565"	"2021-02-02 13:44:27.596396"	50	5.8345422
"S210202"	"Response_Inhibition"	"RIGHT"	"RIGHT"	634.254300000066	683.3333347	n/a	n/a	n/a	n/a	n/a	n/a	n/a	"2021-02-02 13:44:28.289620"	"2021-02-02 13:44:29.132119"	51	5.8345422
"S210202"	"Response_Inhibition"	"RIGHT"	"Time_Max_Exceeded"	1500.05550010008	1316.6666693	n/a	n/a	n/a	n/a	n/a	n/a	n/a	"2021-02-02 13:44:30.457065"	"2021-02-02 13:44:31.960103"	52	5.8345422
"S210202"	"Response_Inhibition"	"RIGHT"	"Time_Max_Exceeded"	1500.05873380004	1266.6666692	n/a	n/a	n/a	n/a	n/a	n/a	n/a	"2021-02-02 13:44:33.235937"	"2021-02-02 13:44:34.739638"	53	5.8345422
"S210202"	"Response_Inhibition"	"LEFT"	"LEFT"	558.312500000056	833.333335	n/a	n/a	n/a	n/a	n/a	n/a	n/a	"2021-02-02 13:44:35.582394"	"2021-02-02 13:44:36.348453"	54	5.8345422
"S210202"	"Response_Inhibition"	"LEFT"	"LEFT"	752.047000000061	1183.3333357	n/a	n/a	n/a	n/a	n/a	n/a	n/a	"2021-02-02 13:44:37.540577"	"2021-02-02 13:44:38.499287"	55	5.8345422
"S210202"	"Response_Inhibition"	"LEFT"	"LEFT"	591.694699999948	616.6666679	n/a	n/a	n/a	n/a	n/a	n/a	n/a	"2021-02-02 13:44:39.124810"	"2021-02-02 13:44:39.923876"	56	5.8345422
"S210202"	"Response_Inhibition"	"RIGHT"	"RIGHT"	512.373799999978	1200.0000024	n/a	n/a	n/a	n/a	n/a	n/a	n/a	"2021-02-02 13:44:41.132321"	"2021-02-02 13:44:41.852483"	57	5.8345422
"S210202"	"Response_Inhibition"	"RIGHT"	"Time_Max_Exceeded"	1500.11780040007	650.0000013	n/a	n/a	n/a	n/a	n/a	n/a	n/a	"2021-02-02 13:44:42.510809"	"2021-02-02 13:44:44.014046"	58	5.8345422
"S210202"	"Response_Inhibition"	"LEFT"	"LEFT"	482.574699999986	1466.6666696	n/a	n/a	n/a	n/a	n/a	n/a	n/a	"2021-02-02 13:44:45.489818"	"2021-02-02 13:44:46.179971"	59	5.8345422
"S210202"	"Response_Inhibition"	"LEFT"	"LEFT"	572.329100000047	1083.3333355	n/a	n/a	n/a	n/a	n/a	n/a	n/a	"2021-02-02 13:44:47.271557"	"2021-02-02 13:44:48.052516"	60	5.8345422
"S210202"	"Response_Inhibition"	"RIGHT"	"RIGHT"	670.634600000085	616.6666679	n/a	n/a	n/a	n/a	n/a	n/a	n/a	"2021-02-02 13:44:48.677999"	"2021-02-02 13:44:49.555161"	61	5.8345422
"S210202"	"Response_Inhibition"	"LEFT"	"LEFT"	597.185100000047	683.3333347	n/a	n/a	n/a	n/a	n/a	n/a	n/a	"2021-02-02 13:44:50.247372"	"2021-02-02 13:44:51.053483"	62	5.8345422
"S210202"	"Response_Inhibition"	"LEFT"	"LEFT"	423.901800499953	1216.6666691	n/a	n/a	n/a	n/a	n/a	n/a	n/a	"2021-02-02 13:44:52.280882"	"2021-02-02 13:44:52.916435"	63	5.8345422
"S210202"	"Response_Inhibition"	"RIGHT"	"RIGHT"	598.47620000005	1233.3333358	n/a	n/a	n/a	n/a	n/a	n/a	n/a	"2021-02-02 13:44:54.157986"	"2021-02-02 13:44:54.963981"	64	5.8345422
"S210202"	"Response_Inhibition"	"LEFT"	"LEFT"	621.769100000051	1266.6666692	n/a	n/a	n/a	n/a	n/a	n/a	n/a	"2021-02-02 13:44:56.238841"	"2021-02-02 13:44:57.067914"	65	5.8345422
"S210202"	"Response_Inhibition"	"RIGHT"	"Time_Max_Exceeded"	1500.05813359993	1450.0000029	n/a	n/a	n/a	n/a	n/a	n/a	n/a	"2021-02-02 13:44:58.526448"	"2021-02-02 13:45:00.030063"	66	5.8345422
"S210202"	"Response_Inhibition"	"LEFT"	"Time_Max_Exceeded"	1500.09300059992	1050.0000021	n/a	n/a	n/a	n/a	n/a	n/a	n/a	"2021-02-02 13:45:01.087924"	"2021-02-02 13:45:02.592099"	67	5.8345422
"S210202"	"Response_Inhibition"	"LEFT"	"LEFT"	737.379000000033	850.0000017	n/a	n/a	n/a	n/a	n/a	n/a	n/a	"2021-02-02 13:45:03.451186"	"2021-02-02 13:45:04.396576"	68	5.8345422
"S210202"	"Response_Inhibition"	"LEFT"	"Time_Max_Exceeded"	1500.08103349997	533.3333344	n/a	n/a	n/a	n/a	n/a	n/a	n/a	"2021-02-02 13:45:04.938288"	"2021-02-02 13:45:06.441520"	69	5.8345422
"S210202"	"Response_Inhibition"	"LEFT"	"Time_Max_Exceeded"	1500.05170029999	1383.3333361	n/a	n/a	n/a	n/a	n/a	n/a	n/a	"2021-02-02 13:45:07.833956"	"2021-02-02 13:45:09.336649"	70	5.8345422
"S210202"	"Response_Inhibition"	"RIGHT"	"Time_Max_Exceeded"	1500.07340050002	1016.6666687	n/a	n/a	n/a	n/a	n/a	n/a	n/a	"2021-02-02 13:45:10.362576"	"2021-02-02 13:45:11.866312"	71	5.8345422
"S210202"	"Response_Inhibition"	"LEFT"	"LEFT"	845.066200000019	516.6666677	n/a	n/a	n/a	n/a	n/a	n/a	n/a	"2021-02-02 13:45:12.390996"	"2021-02-02 13:45:13.445594"	72	5.8345422
"S210202"	"Response_Inhibition"	"LEFT"	"Time_Max_Exceeded"	1500.0536336	900.0000018	n/a	n/a	n/a	n/a	n/a	n/a	n/a	"2021-02-02 13:45:14.354002"	"2021-02-02 13:45:15.857094"	73	5.8345422
"S210202"	"Response_Inhibition"	"RIGHT"	"RIGHT"	682.096100000081	950.0000019	n/a	n/a	n/a	n/a	n/a	n/a	n/a	"2021-02-02 13:45:16.818276"	"2021-02-02 13:45:17.709093"	74	5.8345422
"S210202"	"Response_Inhibition"	"LEFT"	"Time_Max_Exceeded"	1500.05260040007	1333.333336	n/a	n/a	n/a	n/a	n/a	n/a	n/a	"2021-02-02 13:45:19.053523"	"2021-02-02 13:45:20.557263"	75	5.8345422
"S210202"	"Response_Inhibition"	"LEFT"	"LEFT"	1128.78919999991	550.0000011	n/a	n/a	n/a	n/a	n/a	n/a	n/a	"2021-02-02 13:45:21.115470"	"2021-02-02 13:45:22.452446"	76	5.8345422
"S210202"	"Response_Inhibition"	"RIGHT"	"RIGHT"	726.388900000074	1416.6666695	n/a	n/a	n/a	n/a	n/a	n/a	n/a	"2021-02-02 13:45:23.878230"	"2021-02-02 13:45:24.812620"	77	5.8345422
"S210202"	"Response_Inhibition"	"LEFT"	"Time_Max_Exceeded"	1500.06080000003	1350.0000027	n/a	n/a	n/a	n/a	n/a	n/a	n/a	"2021-02-02 13:45:26.171607"	"2021-02-02 13:45:27.671274"	78	5.8345422
"S210202"	"Response_Inhibition"	"LEFT"	"Time_Max_Exceeded"	1500.1926667001	1000.000002	n/a	n/a	n/a	n/a	n/a	n/a	n/a	"2021-02-02 13:45:28.680732"	"2021-02-02 13:45:30.184065"	79	5.8345422
"S210202"	"Response_Inhibition"	"RIGHT"	"RIGHT"	639.084499999967	700.0000014	n/a	n/a	n/a	n/a	n/a	n/a	n/a	"2021-02-02 13:45:30.893137"	"2021-02-02 13:45:31.740833"	80	5.8345422
"S210202"	"Response_Inhibition"	"RIGHT"	"RIGHT"	649.256300000047	1316.6666693	n/a	n/a	n/a	n/a	n/a	n/a	n/a	"2021-02-02 13:45:33.066875"	"2021-02-02 13:45:33.924144"	81	5.8345422
"S210202"	"Response_Inhibition"	"LEFT"	"Time_Max_Exceeded"	1500.05513369998	766.6666682	n/a	n/a	n/a	n/a	n/a	n/a	n/a	"2021-02-02 13:45:34.699655"	"2021-02-02 13:45:36.202429"	82	5.8345422
"S210202"	"Response_Inhibition"	"RIGHT"	"RIGHT"	523.249800000031	1333.333336	n/a	n/a	n/a	n/a	n/a	n/a	n/a	"2021-02-02 13:45:37.544843"	"2021-02-02 13:45:38.276425"	83	5.8345422
"S210202"	"Response_Inhibition"	"RIGHT"	"Time_Max_Exceeded"	1500.05850040009	516.6666677	n/a	n/a	n/a	n/a	n/a	n/a	n/a	"2021-02-02 13:45:38.801206"	"2021-02-02 13:45:40.305331"	84	5.8345422
"S210202"	"Response_Inhibition"	"LEFT"	"LEFT"	609.786199999917	1400.0000028	n/a	n/a	n/a	n/a	n/a	n/a	n/a	"2021-02-02 13:45:41.714697"	"2021-02-02 13:45:42.531019"	85	5.8345422
"S210202"	"Response_Inhibition"	"LEFT"	"Time_Max_Exceeded"	1500.0537673	500.000001	n/a	n/a	n/a	n/a	n/a	n/a	n/a	"2021-02-02 13:45:43.039464"	"2021-02-02 13:45:44.542947"	86	5.8345422
"S210202"	"Response_Inhibition"	"RIGHT"	"Time_Max_Exceeded"	1500.0701335999	833.333335	n/a	n/a	n/a	n/a	n/a	n/a	n/a	"2021-02-02 13:45:45.386200"	"2021-02-02 13:45:46.889491"	87	5.8345422
"S210202"	"Response_Inhibition"	"RIGHT"	"RIGHT"	742.444100000057	1300.0000026	n/a	n/a	n/a	n/a	n/a	n/a	n/a	"2021-02-02 13:45:48.198151"	"2021-02-02 13:45:49.148293"	88	5.8345422
"S210202"	"Response_Inhibition"	"RIGHT"	"Time_Max_Exceeded"	1500.05060009994	716.6666681	n/a	n/a	n/a	n/a	n/a	n/a	n/a	"2021-02-02 13:45:49.874968"	"2021-02-02 13:45:51.377502"	89	5.8345422
"S210202"	"Response_Inhibition"	"RIGHT"	"RIGHT"	703.495800000042	1050.0000021	n/a	n/a	n/a	n/a	n/a	n/a	n/a	"2021-02-02 13:45:52.436687"	"2021-02-02 13:45:53.348378"	90	5.8345422
"S210202"	"Response_Inhibition"	"LEFT"	"LEFT"	480.548699999986	783.3333349	n/a	n/a	n/a	n/a	n/a	n/a	n/a	"2021-02-02 13:45:54.139948"	"2021-02-02 13:45:54.829873"	91	5.8345422
"S210202"	"Response_Inhibition"	"RIGHT"	"RIGHT"	425.625600000103	1083.3333355	n/a	n/a	n/a	n/a	n/a	n/a	n/a	"2021-02-02 13:45:55.922538"	"2021-02-02 13:45:56.556059"	92	5.8345422
"S210202"	"Response_Inhibition"	"LEFT"	"LEFT"	305.245799999966	966.6666686	n/a	n/a	n/a	n/a	n/a	n/a	n/a	"2021-02-02 13:45:57.531345"	"2021-02-02 13:45:58.044179"	93	5.8345422
"S210202"	"Response_Inhibition"	"RIGHT"	"RIGHT"	368.173567099959	1116.6666689	n/a	n/a	n/a	n/a	n/a	n/a	n/a	"2021-02-02 13:45:59.169029"	"2021-02-02 13:45:59.748735"	94	5.8345422
"S210202"	"Response_Inhibition"	"LEFT"	"LEFT"	603.32029999995	1316.6666693	n/a	n/a	n/a	n/a	n/a	n/a	n/a	"2021-02-02 13:46:01.074376"	"2021-02-02 13:46:01.885531"	95	5.8345422
"S210202"	"Response_Inhibition"	"LEFT"	"LEFT"	627.675299999964	1466.6666696	n/a	n/a	n/a	n/a	n/a	n/a	n/a	"2021-02-02 13:46:03.361154"	"2021-02-02 13:46:04.196276"	96	5.8345422
"S210202"	"Response_Inhibition"	"LEFT"	"LEFT"	576.227300000028	983.3333353	n/a	n/a	n/a	n/a	n/a	n/a	n/a	"2021-02-02 13:46:05.188286"	"2021-02-02 13:46:05.971009"	97	5.8345422
"S210202"	"Response_Inhibition"	"RIGHT"	"Time_Max_Exceeded"	1500.05166689998	1416.6666695	n/a	n/a	n/a	n/a	n/a	n/a	n/a	"2021-02-02 13:46:07.396604"	"2021-02-02 13:46:08.899709"	98	5.8345422
"S210202"	"Response_Inhibition"	"LEFT"	"LEFT"	573.684599999979	850.0000017	n/a	n/a	n/a	n/a	n/a	n/a	n/a	"2021-02-02 13:46:09.759013"	"2021-02-02 13:46:10.540496"	99	5.8345422
"S210202"	"Response_Inhibition"	"LEFT"	"LEFT"	697.71789999993	733.3333348	n/a	n/a	n/a	n/a	n/a	n/a	n/a	"2021-02-02 13:46:11.282587"	"2021-02-02 13:46:12.187149"	100	5.8345422
"S210202"	"Response_Inhibition"	"LEFT"	"LEFT"	529.18980000004	1200.0000024	n/a	n/a	n/a	n/a	n/a	n/a	n/a	"2021-02-02 13:46:13.395323"	"2021-02-02 13:46:14.131945"	101	5.8345422
"S210202"	"Response_Inhibition"	"LEFT"	"LEFT"	437.700999999947	1050.0000021	n/a	n/a	n/a	n/a	n/a	n/a	n/a	"2021-02-02 13:46:15.190768"	"2021-02-02 13:46:15.836041"	102	5.8345422
"S210202"	"Response_Inhibition"	"RIGHT"	"RIGHT"	764.03520000008	1100.0000022	n/a	n/a	n/a	n/a	n/a	n/a	n/a	"2021-02-02 13:46:16.944471"	"2021-02-02 13:46:17.916423"	103	5.8345422
"S210202"	"Response_Inhibition"	"LEFT"	"Time_Max_Exceeded"	1500.05333350005	1366.6666694	n/a	n/a	n/a	n/a	n/a	n/a	n/a	"2021-02-02 13:46:19.291089"	"2021-02-02 13:46:20.794951"	104	5.8345422
"S210202"	"Response_Inhibition"	"RIGHT"	"RIGHT"	592.299400000002	800.0000016	n/a	n/a	n/a	n/a	n/a	n/a	n/a	"2021-02-02 13:46:21.603520"	"2021-02-02 13:46:22.404396"	105	5.8345422
"S210202"	"Response_Inhibition"	"LEFT"	"LEFT"	460.810200000083	1266.6666692	n/a	n/a	n/a	n/a	n/a	n/a	n/a	"2021-02-02 13:46:23.679279"	"2021-02-02 13:46:24.348469"	106	5.8345422
"S210202"	"Response_Inhibition"	"LEFT"	"LEFT"	502.445999999964	1016.6666687	n/a	n/a	n/a	n/a	n/a	n/a	n/a	"2021-02-02 13:46:25.373991"	"2021-02-02 13:46:26.084562"	107	5.8345422
"S210202"	"Response_Inhibition"	"LEFT"	"LEFT"	598.028499999941	633.3333346	n/a	n/a	n/a	n/a	n/a	n/a	n/a	"2021-02-02 13:46:26.725960"	"2021-02-02 13:46:27.532408"	108	5.8345422
"S210202"	"Response_Inhibition"	"LEFT"	"LEFT"	393.882899999994	733.3333348	n/a	n/a	n/a	n/a	n/a	n/a	n/a	"2021-02-02 13:46:28.274424"	"2021-02-02 13:46:28.876487"	109	5.8345422
"S210202"	"Response_Inhibition"	"LEFT"	"LEFT"	594.839500000035	916.6666685	n/a	n/a	n/a	n/a	n/a	n/a	n/a	"2021-02-02 13:46:29.801215"	"2021-02-02 13:46:30.605431"	110	5.8345422
"S210202"	"Response_Inhibition"	"LEFT"	"LEFT"	409.59840000005	1100.0000022	n/a	n/a	n/a	n/a	n/a	n/a	n/a	"2021-02-02 13:46:31.714711"	"2021-02-02 13:46:32.332054"	111	5.8345422
"S210202"	"Response_Inhibition"	"LEFT"	"LEFT"	605.65489999999	1450.0000029	n/a	n/a	n/a	n/a	n/a	n/a	n/a	"2021-02-02 13:46:33.790783"	"2021-02-02 13:46:34.604511"	112	5.8345422
"S210202"	"Response_Inhibition"	"LEFT"	"LEFT"	573.969499999976	1033.3333354	n/a	n/a	n/a	n/a	n/a	n/a	n/a	"2021-02-02 13:46:35.646136"	"2021-02-02 13:46:36.428529"	113	5.8345422
"S210202"	"Response_Inhibition"	"RIGHT"	"RIGHT"	649.813999999992	733.3333348	n/a	n/a	n/a	n/a	n/a	n/a	n/a	"2021-02-02 13:46:37.170583"	"2021-02-02 13:46:38.028800"	114	5.8345422
"S210202"	"Response_Inhibition"	"RIGHT"	"RIGHT"	523.218900000074	1100.0000022	n/a	n/a	n/a	n/a	n/a	n/a	n/a	"2021-02-02 13:46:39.137109"	"2021-02-02 13:46:39.867919"	115	5.8345422
"S210202"	"Response_Inhibition"	"LEFT"	"LEFT"	411.897300000078	1500.000003	n/a	n/a	n/a	n/a	n/a	n/a	n/a	"2021-02-02 13:46:41.376089"	"2021-02-02 13:46:41.996472"	116	5.8345422
"S210202"	"Response_Inhibition"	"LEFT"	"LEFT"	466.337899999985	933.3333352	n/a	n/a	n/a	n/a	n/a	n/a	n/a	"2021-02-02 13:46:42.938089"	"2021-02-02 13:46:43.612493"	117	5.8345422
"S210202"	"Response_Inhibition"	"RIGHT"	"RIGHT"	475.403400000005	1283.3333359	n/a	n/a	n/a	n/a	n/a	n/a	n/a	"2021-02-02 13:46:44.904875"	"2021-02-02 13:46:45.588551"	118	5.8345422
"S210202"	"Response_Inhibition"	"RIGHT"	"RIGHT"	463.816700000052	783.3333349	n/a	n/a	n/a	n/a	n/a	n/a	n/a	"2021-02-02 13:46:46.380512"	"2021-02-02 13:46:47.051995"	119	5.8345422
"S210202"	"Response_Inhibition"	"RIGHT"	"RIGHT"	421.123400200033	750.0000015	n/a	n/a	n/a	n/a	n/a	n/a	n/a	"2021-02-02 13:46:47.811442"	"2021-02-02 13:46:48.443871"	120	5.8345422
"S210202"	"Response_Inhibition"	"LEFT"	"Time_Max_Exceeded"	1500.05556720002	566.6666678	n/a	n/a	n/a	n/a	n/a	n/a	n/a	"2021-02-02 13:46:49.018874"	"2021-02-02 13:46:50.521856"	121	5.8345422
"S210202"	"Response_Inhibition"	"LEFT"	"LEFT"	514.038299999925	583.3333345	n/a	n/a	n/a	n/a	n/a	n/a	n/a	"2021-02-02 13:46:51.114444"	"2021-02-02 13:46:51.836728"	122	5.8345422
"S210202"	"Response_Inhibition"	"LEFT"	"LEFT"	573.773933899897	716.6666681	n/a	n/a	n/a	n/a	n/a	n/a	n/a	"2021-02-02 13:46:52.563073"	"2021-02-02 13:46:53.348744"	123	5.8345422
"S210202"	"Response_Inhibition"	"RIGHT"	"RIGHT"	835.634500000083	883.3333351	n/a	n/a	n/a	n/a	n/a	n/a	n/a	"2021-02-02 13:46:54.240489"	"2021-02-02 13:46:55.284823"	124	5.8345422
"S210202"	"Response_Inhibition"	"RIGHT"	"RIGHT"	541.672199999994	633.3333346	n/a	n/a	n/a	n/a	n/a	n/a	n/a	"2021-02-02 13:46:55.926611"	"2021-02-02 13:46:56.675116"	125	5.8345422
"S210202"	"Response_Inhibition"	"LEFT"	"Time_Max_Exceeded"	1500.05180009998	1000.000002	n/a	n/a	n/a	n/a	n/a	n/a	n/a	"2021-02-02 13:46:57.683962"	"2021-02-02 13:46:59.186999"	126	5.8345422
"S210202"	"Response_Inhibition"	"LEFT"	"Time_Max_Exceeded"	1500.05703349992	1133.3333356	n/a	n/a	n/a	n/a	n/a	n/a	n/a	"2021-02-02 13:47:00.329996"	"2021-02-02 13:47:01.832897"	127	5.8345422
"S210202"	"Response_Inhibition"	"LEFT"	"Time_Max_Exceeded"	1500.05096679994	650.0000013	n/a	n/a	n/a	n/a	n/a	n/a	n/a	"2021-02-02 13:47:02.493688"	"2021-02-02 13:47:03.996993"	128	5.8345422
"S210202"	"Response_Inhibition"	"LEFT"	"LEFT"	645.691400000032	600.0000012	n/a	n/a	n/a	n/a	n/a	n/a	n/a	"2021-02-02 13:47:04.606330"	"2021-02-02 13:47:05.460676"	129	5.8345422
"S210202"	"Response_Inhibition"	"LEFT"	"LEFT"	539.698699999917	1283.3333359	n/a	n/a	n/a	n/a	n/a	n/a	n/a	"2021-02-02 13:47:06.752819"	"2021-02-02 13:47:07.500533"	130	5.8345422
"S210202"	"Response_Inhibition"	"LEFT"	"LEFT"	498.838399999954	683.3333347	n/a	n/a	n/a	n/a	n/a	n/a	n/a	"2021-02-02 13:47:08.193117"	"2021-02-02 13:47:08.899695"	131	5.8345422
"S210202"	"Response_Inhibition"	"LEFT"	"LEFT"	428.991399999973	883.3333351	n/a	n/a	n/a	n/a	n/a	n/a	n/a	"2021-02-02 13:47:09.791399"	"2021-02-02 13:47:10.427568"	132	5.8345422
"S210202"	"Response_Inhibition"	"RIGHT"	"RIGHT"	646.908699999926	1433.3333362	n/a	n/a	n/a	n/a	n/a	n/a	n/a	"2021-02-02 13:47:11.868894"	"2021-02-02 13:47:12.723027"	133	5.8345422
"S210202"	"Response_Inhibition"	"RIGHT"	"RIGHT"	515.739199999985	533.3333344	n/a	n/a	n/a	n/a	n/a	n/a	n/a	"2021-02-02 13:47:13.264392"	"2021-02-02 13:47:13.988718"	134	5.8345422
"S210202"	"Response_Inhibition"	"RIGHT"	"RIGHT"	532.692500000053	1266.6666692	n/a	n/a	n/a	n/a	n/a	n/a	n/a	"2021-02-02 13:47:15.263432"	"2021-02-02 13:47:16.004544"	135	5.8345422
"S210202"	"Response_Inhibition"	"LEFT"	"RIGHT"	741.436700000008	1066.6666688	n/a	n/a	n/a	n/a	n/a	n/a	n/a	"2021-02-02 13:47:17.079261"	"2021-02-02 13:47:18.028254"	136	5.8345422
"S210202"	"Response_Inhibition"	"RIGHT"	"RIGHT"	1356.80300000001	866.6666684	n/a	n/a	n/a	n/a	n/a	n/a	n/a	"2021-02-02 13:47:18.903167"	"2021-02-02 13:47:20.468593"	137	5.8345422
"S210202"	"Response_Inhibition"	"LEFT"	"LEFT"	513.458200000059	533.3333344	n/a	n/a	n/a	n/a	n/a	n/a	n/a	"2021-02-02 13:47:21.010339"	"2021-02-02 13:47:21.732407"	138	5.8345422
"S210202"	"Response_Inhibition"	"LEFT"	"Time_Max_Exceeded"	1500.05330030001	1250.0000025	n/a	n/a	n/a	n/a	n/a	n/a	n/a	"2021-02-02 13:47:22.990678"	"2021-02-02 13:47:24.494474"	139	5.8345422
"S210202"	"Response_Inhibition"	"LEFT"	"LEFT"	575.055499999962	950.0000019	n/a	n/a	n/a	n/a	n/a	n/a	n/a	"2021-02-02 13:47:25.453337"	"2021-02-02 13:47:26.236136"	140	5.8345422
"S210202"	"Response_Inhibition"	"RIGHT"	"Time_Max_Exceeded"	1500.04886719994	933.3333352	n/a	n/a	n/a	n/a	n/a	n/a	n/a	"2021-02-02 13:47:27.179193"	"2021-02-02 13:47:28.682097"	141	5.8345422
"S210202"	"Response_Inhibition"	"LEFT"	"LEFT"	620.457099999953	900.0000018	n/a	n/a	n/a	n/a	n/a	n/a	n/a	"2021-02-02 13:47:29.591649"	"2021-02-02 13:47:30.420448"	142	5.8345422
"S210202"	"Response_Inhibition"	"RIGHT"	"RIGHT"	651.325199999974	500.000001	n/a	n/a	n/a	n/a	n/a	n/a	n/a	"2021-02-02 13:47:30.929136"	"2021-02-02 13:47:31.787953"	143	5.8345422
"S210202"	"Response_Inhibition"	"LEFT"	"LEFT"	567.089699999997	1416.6666695	n/a	n/a	n/a	n/a	n/a	n/a	n/a	"2021-02-02 13:47:33.213662"	"2021-02-02 13:47:33.987170"	144	5.8345422
"S210202"	"Response_Inhibition"	"RIGHT"	"Time_Max_Exceeded"	1500.0589667001	850.0000017	n/a	n/a	n/a	n/a	n/a	n/a	n/a	"2021-02-02 13:47:34.845247"	"2021-02-02 13:47:36.349309"	145	5.8345422
"S210202"	"Response_Inhibition"	"LEFT"	"LEFT"	612.141899999983	1433.3333362	n/a	n/a	n/a	n/a	n/a	n/a	n/a	"2021-02-02 13:47:37.792020"	"2021-02-02 13:47:38.612362"	146	5.8345422
"S210202"	"Response_Inhibition"	"LEFT"	"LEFT"	777.248500000042	1150.0000023	n/a	n/a	n/a	n/a	n/a	n/a	n/a	"2021-02-02 13:47:39.771515"	"2021-02-02 13:47:40.757550"	147	5.8345422
"S210202"	"Response_Inhibition"	"LEFT"	"Time_Max_Exceeded"	1500.05423389993	816.6666683	n/a	n/a	n/a	n/a	n/a	n/a	n/a	"2021-02-02 13:47:41.582576"	"2021-02-02 13:47:43.085565"	148	5.8345422
"S210202"	"Response_Inhibition"	"RIGHT"	"RIGHT"	618.141399999899	683.3333347	n/a	n/a	n/a	n/a	n/a	n/a	n/a	"2021-02-02 13:47:43.777624"	"2021-02-02 13:47:44.604676"	149	5.8345422
"S210202"	"Response_Inhibition"	"LEFT"	"Time_Max_Exceeded"	1500.08300050002	783.3333349	n/a	n/a	n/a	n/a	n/a	n/a	n/a	"2021-02-02 13:47:45.397635"	"2021-02-02 13:47:46.901245"	150	5.8345422
"S210202"	"Response_Inhibition"	"RIGHT"	"RIGHT"	790.118000000007	1000.000002	n/a	n/a	n/a	n/a	n/a	n/a	n/a	"2021-02-02 13:47:47.910062"	"2021-02-02 13:47:48.907305"	151	5.8345422
"S210202"	"Response_Inhibition"	"LEFT"	"Time_Max_Exceeded"	1500.06569999994	1416.6666695	n/a	n/a	n/a	n/a	n/a	n/a	n/a	"2021-02-02 13:47:50.332234"	"2021-02-02 13:47:51.832312"	152	5.8345422
"S210202"	"Response_Inhibition"	"RIGHT"	"RIGHT"	648.862600000029	850.0000017	n/a	n/a	n/a	n/a	n/a	n/a	n/a	"2021-02-02 13:47:52.691590"	"2021-02-02 13:47:53.546945"	153	5.8345422
"S210202"	"Response_Inhibition"	"RIGHT"	"RIGHT"	715.842699999939	533.3333344	n/a	n/a	n/a	n/a	n/a	n/a	n/a	"2021-02-02 13:47:54.088574"	"2021-02-02 13:47:55.012034"	154	5.8345422
"S210202"	"Response_Inhibition"	"RIGHT"	"RIGHT"	583.430799999974	1216.6666691	n/a	n/a	n/a	n/a	n/a	n/a	n/a	"2021-02-02 13:47:56.237140"	"2021-02-02 13:47:57.028234"	155	5.8345422
"S210202"	"Response_Inhibition"	"RIGHT"	"RIGHT"	688.886599999933	566.6666678	n/a	n/a	n/a	n/a	n/a	n/a	n/a	"2021-02-02 13:47:57.603771"	"2021-02-02 13:47:58.500618"	156	5.8345422
"S210202"	"Response_Inhibition"	"RIGHT"	"Time_Max_Exceeded"	1500.04796680006	633.3333346	n/a	n/a	n/a	n/a	n/a	n/a	n/a	"2021-02-02 13:47:59.142130"	"2021-02-02 13:48:00.645323"	157	5.8345422
"S210202"	"Response_Inhibition"	"LEFT"	"Time_Max_Exceeded"	1500.04983379992	1300.0000026	n/a	n/a	n/a	n/a	n/a	n/a	n/a	"2021-02-02 13:48:01.955240"	"2021-02-02 13:48:03.457989"	158	5.8345422
"S210202"	"Response_Inhibition"	"RIGHT"	"Time_Max_Exceeded"	1500.06043369998	1066.6666688	n/a	n/a	n/a	n/a	n/a	n/a	n/a	"2021-02-02 13:48:04.534571"	"2021-02-02 13:48:06.037536"	159	5.8345422
"S210202"	"Response_Inhibition"	"LEFT"	"Time_Max_Exceeded"	1500.05456709998	583.3333345	n/a	n/a	n/a	n/a	n/a	n/a	n/a	"2021-02-02 13:48:06.629965"	"2021-02-02 13:48:08.133086"	160	5.8345422
"S210202"	"Response_Selection"	"LEFT"	"LEFT"	348.400400000003	1250.0000025	n/a	n/a	n/a	n/a	n/a	n/a	n/a	"2021-02-02 13:40:15.608160"	"2021-02-02 13:40:16.164754"	1	2.68618136666667
"S210202"	"Response_Selection"	"LEFT"	"LEFT"	299.553199999991	1500.000003	n/a	n/a	n/a	n/a	n/a	n/a	n/a	"2021-02-02 13:40:17.673473"	"2021-02-02 13:40:18.180690"	2	2.68618136666667
"S210202"	"Response_Selection"	"LEFT"	"LEFT"	296.260300000029	1166.666669	n/a	n/a	n/a	n/a	n/a	n/a	n/a	"2021-02-02 13:40:19.356066"	"2021-02-02 13:40:19.860715"	3	2.68618136666667
"S210202"	"Response_Selection"	"LEFT"	"LEFT"	360.079299999995	600.0000012	n/a	n/a	n/a	n/a	n/a	n/a	n/a	"2021-02-02 13:40:20.469665"	"2021-02-02 13:40:21.037446"	4	2.68618136666667
"S210202"	"Response_Selection"	"LEFT"	"LEFT"	324.122299999999	866.6666684	n/a	n/a	n/a	n/a	n/a	n/a	n/a	"2021-02-02 13:40:21.912138"	"2021-02-02 13:40:22.444747"	5	2.68618136666667
"S210202"	"Response_Selection"	"LEFT"	"LEFT"	349.587900000017	650.0000013	n/a	n/a	n/a	n/a	n/a	n/a	n/a	"2021-02-02 13:40:23.102795"	"2021-02-02 13:40:23.660634"	6	2.68618136666667
"S210202"	"Response_Selection"	"RIGHT"	"RIGHT"	248.984699999994	966.6666686	n/a	n/a	n/a	n/a	n/a	n/a	n/a	"2021-02-02 13:40:24.635827"	"2021-02-02 13:40:25.093616"	7	2.68618136666667
"S210202"	"Response_Selection"	"RIGHT"	"RIGHT"	262.179600000024	800.0000016	n/a	n/a	n/a	n/a	n/a	n/a	n/a	"2021-02-02 13:40:25.902517"	"2021-02-02 13:40:26.372062"	8	2.68618136666667
"S210202"	"Response_Selection"	"RIGHT"	"RIGHT"	239.614300000028	1016.6666687	n/a	n/a	n/a	n/a	n/a	n/a	n/a	"2021-02-02 13:40:27.397003"	"2021-02-02 13:40:27.847952"	9	2.68618136666667
"S210202"	"Response_Selection"	"LEFT"	"LEFT"	293.697800000018	966.6666686	n/a	n/a	n/a	n/a	n/a	n/a	n/a	"2021-02-02 13:40:28.823389"	"2021-02-02 13:40:29.324052"	10	2.68618136666667
"S210202"	"Response_Selection"	"RIGHT"	"RIGHT"	237.479199999996	1450.0000029	n/a	n/a	n/a	n/a	n/a	n/a	n/a	"2021-02-02 13:40:30.783565"	"2021-02-02 13:40:31.229776"	11	2.68618136666667
"S210202"	"Response_Selection"	"LEFT"	"LEFT"	269.664599999999	1016.6666687	n/a	n/a	n/a	n/a	n/a	n/a	n/a	"2021-02-02 13:40:32.255252"	"2021-02-02 13:40:32.732024"	12	2.68618136666667
"S210202"	"Response_Selection"	"LEFT"	"LEFT"	307.114000000013	1316.6666693	n/a	n/a	n/a	n/a	n/a	n/a	n/a	"2021-02-02 13:40:34.057663"	"2021-02-02 13:40:34.573682"	13	2.68618136666667
"S210202"	"Response_Selection"	"RIGHT"	"RIGHT"	230.590599999971	1200.0000024	n/a	n/a	n/a	n/a	n/a	n/a	n/a	"2021-02-02 13:40:35.781659"	"2021-02-02 13:40:36.221483"	14	2.68618136666667
"S210202"	"Response_Selection"	"LEFT"	"LEFT"	290.727199999992	1300.0000026	n/a	n/a	n/a	n/a	n/a	n/a	n/a	"2021-02-02 13:40:37.530185"	"2021-02-02 13:40:38.028488"	15	2.68618136666667
"S210202"	"Response_Selection"	"RIGHT"	"RIGHT"	331.848399999956	500.000001	n/a	n/a	n/a	n/a	n/a	n/a	n/a	"2021-02-02 13:40:38.536946"	"2021-02-02 13:40:39.076719"	16	2.68618136666667
"S210202"	"Response_Selection"	"LEFT"	"LEFT"	280.865600000027	1366.6666694	n/a	n/a	n/a	n/a	n/a	n/a	n/a	"2021-02-02 13:40:40.452542"	"2021-02-02 13:40:40.940497"	17	2.68618136666667
"S210202"	"Response_Selection"	"LEFT"	"LEFT"	311.601000000053	583.3333345	n/a	n/a	n/a	n/a	n/a	n/a	n/a	"2021-02-02 13:40:41.533504"	"2021-02-02 13:40:42.053109"	18	2.68618136666667
"S210202"	"Response_Selection"	"RIGHT"	"RIGHT"	273.084799999992	750.0000015	n/a	n/a	n/a	n/a	n/a	n/a	n/a	"2021-02-02 13:40:42.811199"	"2021-02-02 13:40:43.292261"	19	2.68618136666667
"S210202"	"Response_Selection"	"RIGHT"	"RIGHT"	286.077900000009	833.333335	n/a	n/a	n/a	n/a	n/a	n/a	n/a	"2021-02-02 13:40:44.134610"	"2021-02-02 13:40:44.628170"	20	2.68618136666667
"S210202"	"Response_Selection"	"RIGHT"	"RIGHT"	301.176600000019	650.0000013	n/a	n/a	n/a	n/a	n/a	n/a	n/a	"2021-02-02 13:40:45.287487"	"2021-02-02 13:40:45.796125"	21	2.68618136666667
"S210202"	"Response_Selection"	"RIGHT"	"RIGHT"	323.78970000002	1083.3333355	n/a	n/a	n/a	n/a	n/a	n/a	n/a	"2021-02-02 13:40:46.889107"	"2021-02-02 13:40:47.419994"	22	2.68618136666667
"S210202"	"Response_Selection"	"LEFT"	"LEFT"	301.438099999984	1066.6666688	n/a	n/a	n/a	n/a	n/a	n/a	n/a	"2021-02-02 13:40:48.494912"	"2021-02-02 13:40:49.004652"	23	2.68618136666667
"S210202"	"Response_Selection"	"RIGHT"	"RIGHT"	494.619199999988	600.0000012	n/a	n/a	n/a	n/a	n/a	n/a	n/a	"2021-02-02 13:40:49.613783"	"2021-02-02 13:40:50.317324"	24	2.68618136666667
"S210202"	"Response_Selection"	"RIGHT"	"RIGHT"	311.088899999959	1166.666669	n/a	n/a	n/a	n/a	n/a	n/a	n/a	"2021-02-02 13:40:51.493300"	"2021-02-02 13:40:52.012287"	25	2.68618136666667
"S210202"	"Response_Selection"	"LEFT"	"LEFT"	370.536799999968	533.3333344	n/a	n/a	n/a	n/a	n/a	n/a	n/a	"2021-02-02 13:40:52.554006"	"2021-02-02 13:40:53.133450"	26	2.68618136666667
"S210202"	"Response_Selection"	"LEFT"	"LEFT"	301.21059999999	1033.3333354	n/a	n/a	n/a	n/a	n/a	n/a	n/a	"2021-02-02 13:40:54.175545"	"2021-02-02 13:40:54.683888"	27	2.68618136666667
"S210202"	"Response_Selection"	"LEFT"	"LEFT"	522.481600000049	1133.3333356	n/a	n/a	n/a	n/a	n/a	n/a	n/a	"2021-02-02 13:40:55.825952"	"2021-02-02 13:40:56.556264"	28	2.68618136666667
"S210202"	"Response_Selection"	"LEFT"	"LEFT"	364.04170000003	500.000001	n/a	n/a	n/a	n/a	n/a	n/a	n/a	"2021-02-02 13:40:57.064950"	"2021-02-02 13:40:57.636737"	29	2.68618136666667
"S210202"	"Response_Selection"	"RIGHT"	"RIGHT"	339.082899999994	1500.000003	n/a	n/a	n/a	n/a	n/a	n/a	n/a	"2021-02-02 13:40:59.145773"	"2021-02-02 13:40:59.692322"	30	2.68618136666667
"S210202"	"Response_Selection"	"LEFT"	"RIGHT"	277.993800000047	1216.6666691	n/a	n/a	n/a	n/a	n/a	n/a	n/a	"2021-02-02 13:41:00.918246"	"2021-02-02 13:41:01.404704"	31	2.68618136666667
"S210202"	"Response_Selection"	"LEFT"	"LEFT"	335.105800000008	1400.0000028	n/a	n/a	n/a	n/a	n/a	n/a	n/a	"2021-02-02 13:41:02.813410"	"2021-02-02 13:41:03.357412"	32	2.68618136666667
"S210202"	"Response_Selection"	"RIGHT"	"RIGHT"	663.035600000001	1400.0000028	n/a	n/a	n/a	n/a	n/a	n/a	n/a	"2021-02-02 13:41:04.765435"	"2021-02-02 13:41:05.636592"	33	2.68618136666667
"S210202"	"Response_Selection"	"RIGHT"	"RIGHT"	317.714299999977	1466.6666696	n/a	n/a	n/a	n/a	n/a	n/a	n/a	"2021-02-02 13:41:07.112237"	"2021-02-02 13:41:07.637640"	34	2.68618136666667
"S210202"	"Response_Selection"	"RIGHT"	"RIGHT"	441.05669999999	733.3333348	n/a	n/a	n/a	n/a	n/a	n/a	n/a	"2021-02-02 13:41:08.380100"	"2021-02-02 13:41:09.029431"	35	2.68618136666667
"S210202"	"Response_Selection"	"LEFT"	"LEFT"	341.455800000006	633.3333346	n/a	n/a	n/a	n/a	n/a	n/a	n/a	"2021-02-02 13:41:09.670958"	"2021-02-02 13:41:10.220488"	36	2.68618136666667
"S210202"	"Response_Selection"	"LEFT"	"LEFT"	327.562	1200.0000024	n/a	n/a	n/a	n/a	n/a	n/a	n/a	"2021-02-02 13:41:11.428788"	"2021-02-02 13:41:11.964920"	37	2.68618136666667
"S210202"	"Response_Selection"	"LEFT"	"LEFT"	409.876999999994	733.3333348	n/a	n/a	n/a	n/a	n/a	n/a	n/a	"2021-02-02 13:41:12.706890"	"2021-02-02 13:41:13.324268"	38	2.68618136666667
"S210202"	"Response_Selection"	"LEFT"	"LEFT"	326.403500000026	833.333335	n/a	n/a	n/a	n/a	n/a	n/a	n/a	"2021-02-02 13:41:14.166104"	"2021-02-02 13:41:14.700767"	39	2.68618136666667
"S210202"	"Response_Selection"	"LEFT"	"LEFT"	322.696300000018	700.0000014	n/a	n/a	n/a	n/a	n/a	n/a	n/a	"2021-02-02 13:41:15.410377"	"2021-02-02 13:41:15.943914"	40	2.68618136666667
"S210202"	"Response_Selection"	"RIGHT"	"RIGHT"	294.062699999984	933.3333352	n/a	n/a	n/a	n/a	n/a	n/a	n/a	"2021-02-02 13:41:16.886938"	"2021-02-02 13:41:17.390589"	41	2.68618136666667
"S210202"	"Response_Selection"	"RIGHT"	"RIGHT"	353.428500000007	700.0000014	n/a	n/a	n/a	n/a	n/a	n/a	n/a	"2021-02-02 13:41:18.099136"	"2021-02-02 13:41:18.660142"	42	2.68618136666667
"S210202"	"Response_Selection"	"LEFT"	"LEFT"	305.741599999976	1350.0000027	n/a	n/a	n/a	n/a	n/a	n/a	n/a	"2021-02-02 13:41:20.018722"	"2021-02-02 13:41:20.532414"	43	2.68618136666667
"S210202"	"Response_Selection"	"LEFT"	"LEFT"	357.836499999962	800.0000016	n/a	n/a	n/a	n/a	n/a	n/a	n/a	"2021-02-02 13:41:21.342405"	"2021-02-02 13:41:21.908432"	44	2.68618136666667
"S210202"	"Response_Selection"	"RIGHT"	"RIGHT"	268.244899999956	883.3333351	n/a	n/a	n/a	n/a	n/a	n/a	n/a	"2021-02-02 13:41:22.800599"	"2021-02-02 13:41:23.276097"	45	2.68618136666667
"S210202"	"Response_Selection"	"LEFT"	"LEFT"	280.25550000001	783.3333349	n/a	n/a	n/a	n/a	n/a	n/a	n/a	"2021-02-02 13:41:24.068519"	"2021-02-02 13:41:24.556797"	46	2.68618136666667
"S210202"	"Response_Selection"	"RIGHT"	"RIGHT"	352.199600000006	783.3333349	n/a	n/a	n/a	n/a	n/a	n/a	n/a	"2021-02-02 13:41:25.348782"	"2021-02-02 13:41:25.909316"	47	2.68618136666667
"S210202"	"Response_Selection"	"LEFT"	"LEFT"	297.197299999993	933.3333352	n/a	n/a	n/a	n/a	n/a	n/a	n/a	"2021-02-02 13:41:26.851394"	"2021-02-02 13:41:27.356986"	48	2.68618136666667
"S210202"	"Response_Selection"	"RIGHT"	"RIGHT"	272.621000000015	550.0000011	n/a	n/a	n/a	n/a	n/a	n/a	n/a	"2021-02-02 13:41:27.916542"	"2021-02-02 13:41:28.396088"	49	2.68618136666667
"S210202"	"Response_Selection"	"RIGHT"	"RIGHT"	322.20749999999	1350.0000027	n/a	n/a	n/a	n/a	n/a	n/a	n/a	"2021-02-02 13:41:29.754280"	"2021-02-02 13:41:30.284600"	50	2.68618136666667
"S210202"	"Response_Selection"	"LEFT"	"LEFT"	412.708100000032	1466.6666696	n/a	n/a	n/a	n/a	n/a	n/a	n/a	"2021-02-02 13:41:31.759443"	"2021-02-02 13:41:32.380521"	51	2.68618136666667
"S210202"	"Response_Selection"	"RIGHT"	"LEFT"	293.906099999958	1416.6666695	n/a	n/a	n/a	n/a	n/a	n/a	n/a	"2021-02-02 13:41:33.806721"	"2021-02-02 13:41:34.308070"	52	2.68618136666667
"S210202"	"Response_Selection"	"LEFT"	"LEFT"	373.766500000045	1450.0000029	n/a	n/a	n/a	n/a	n/a	n/a	n/a	"2021-02-02 13:41:35.766816"	"2021-02-02 13:41:36.349833"	53	2.68618136666667
"S210202"	"Response_Selection"	"LEFT"	"LEFT"	337.757799999963	916.6666685	n/a	n/a	n/a	n/a	n/a	n/a	n/a	"2021-02-02 13:41:37.275003"	"2021-02-02 13:41:37.820593"	54	2.68618136666667
"S210202"	"Response_Selection"	"RIGHT"	"RIGHT"	336.456399999975	583.3333345	n/a	n/a	n/a	n/a	n/a	n/a	n/a	"2021-02-02 13:41:38.412307"	"2021-02-02 13:41:38.956041"	55	2.68618136666667
"S210202"	"Response_Selection"	"RIGHT"	"RIGHT"	298.480299999994	1366.6666694	n/a	n/a	n/a	n/a	n/a	n/a	n/a	"2021-02-02 13:41:40.331548"	"2021-02-02 13:41:40.837819"	56	2.68618136666667
"S210202"	"Response_Selection"	"RIGHT"	"RIGHT"	292.216699999983	1250.0000025	n/a	n/a	n/a	n/a	n/a	n/a	n/a	"2021-02-02 13:41:42.096286"	"2021-02-02 13:41:42.595901"	57	2.68618136666667
"S210202"	"Response_Selection"	"LEFT"	"LEFT"	346.385199999986	1116.6666689	n/a	n/a	n/a	n/a	n/a	n/a	n/a	"2021-02-02 13:41:43.722173"	"2021-02-02 13:41:44.276161"	58	2.68618136666667
"S210202"	"Response_Selection"	"LEFT"	"LEFT"	341.51449999996	1266.6666692	n/a	n/a	n/a	n/a	n/a	n/a	n/a	"2021-02-02 13:41:45.551334"	"2021-02-02 13:41:46.100000"	59	2.68618136666667
"S210202"	"Response_Selection"	"RIGHT"	"RIGHT"	270.333600000015	1216.6666691	n/a	n/a	n/a	n/a	n/a	n/a	n/a	"2021-02-02 13:41:47.325813"	"2021-02-02 13:41:47.804550"	60	2.68618136666667
"S210202"	"Response_Selection"	"RIGHT"	"RIGHT"	301.32679999997	1266.6666692	n/a	n/a	n/a	n/a	n/a	n/a	n/a	"2021-02-02 13:41:49.079419"	"2021-02-02 13:41:49.588664"	61	2.68618136666667
"S210202"	"Response_Selection"	"RIGHT"	"RIGHT"	354.327299999966	533.3333344	n/a	n/a	n/a	n/a	n/a	n/a	n/a	"2021-02-02 13:41:50.130499"	"2021-02-02 13:41:50.691997"	62	2.68618136666667
"S210202"	"Response_Selection"	"LEFT"	"LEFT"	321.669900000018	750.0000015	n/a	n/a	n/a	n/a	n/a	n/a	n/a	"2021-02-02 13:41:51.451137"	"2021-02-02 13:41:51.980261"	63	2.68618136666667
"S210202"	"Response_Selection"	"RIGHT"	"RIGHT"	374.636500000008	633.3333346	n/a	n/a	n/a	n/a	n/a	n/a	n/a	"2021-02-02 13:41:52.622049"	"2021-02-02 13:41:53.204631"	64	2.68618136666667
"S210202"	"Response_Selection"	"RIGHT"	"RIGHT"	386.947500000019	1316.6666693	n/a	n/a	n/a	n/a	n/a	n/a	n/a	"2021-02-02 13:41:54.529633"	"2021-02-02 13:41:55.123953"	65	2.68618136666667
"S210202"	"Response_Selection"	"RIGHT"	"RIGHT"	323.161400000004	1133.3333356	n/a	n/a	n/a	n/a	n/a	n/a	n/a	"2021-02-02 13:41:56.265867"	"2021-02-02 13:41:56.795865"	66	2.68618136666667
"S210202"	"Response_Selection"	"RIGHT"	"RIGHT"	299.553199999991	1116.6666689	n/a	n/a	n/a	n/a	n/a	n/a	n/a	"2021-02-02 13:41:57.921140"	"2021-02-02 13:41:58.427865"	67	2.68618136666667
"S210202"	"Response_Selection"	"RIGHT"	"RIGHT"	291.67799999999	916.6666685	n/a	n/a	n/a	n/a	n/a	n/a	n/a	"2021-02-02 13:41:59.352936"	"2021-02-02 13:41:59.852229"	68	2.68618136666667
"S210202"	"Response_Selection"	"LEFT"	"LEFT"	300.867400000016	1083.3333355	n/a	n/a	n/a	n/a	n/a	n/a	n/a	"2021-02-02 13:42:00.943937"	"2021-02-02 13:42:01.452970"	69	2.68618136666667
"S210202"	"Response_Selection"	"LEFT"	"LEFT"	379.028699999992	683.3333347	n/a	n/a	n/a	n/a	n/a	n/a	n/a	"2021-02-02 13:42:02.145154"	"2021-02-02 13:42:02.732735"	70	2.68618136666667
"S210202"	"Response_Selection"	"RIGHT"	"RIGHT"	267.663900000002	1300.0000026	n/a	n/a	n/a	n/a	n/a	n/a	n/a	"2021-02-02 13:42:04.040821"	"2021-02-02 13:42:04.517077"	71	2.68618136666667
"S210202"	"Response_Selection"	"RIGHT"	"RIGHT"	322.641200000021	683.3333347	n/a	n/a	n/a	n/a	n/a	n/a	n/a	"2021-02-02 13:42:05.210224"	"2021-02-02 13:42:05.741683"	72	2.68618136666667
"S210202"	"Response_Selection"	"LEFT"	"LEFT"	386.498000000017	883.3333351	n/a	n/a	n/a	n/a	n/a	n/a	n/a	"2021-02-02 13:42:06.633940"	"2021-02-02 13:42:07.228852"	73	2.68618136666667
"S210202"	"Response_Selection"	"RIGHT"	"RIGHT"	268.477700000005	866.6666684	n/a	n/a	n/a	n/a	n/a	n/a	n/a	"2021-02-02 13:42:08.104325"	"2021-02-02 13:42:08.580005"	74	2.68618136666667
"S210202"	"Response_Selection"	"RIGHT"	"RIGHT"	283.573400000023	1066.6666688	n/a	n/a	n/a	n/a	n/a	n/a	n/a	"2021-02-02 13:42:09.656865"	"2021-02-02 13:42:10.149110"	75	2.68618136666667
"S210202"	"Response_Selection"	"RIGHT"	"RIGHT"	325.795800000037	1033.3333354	n/a	n/a	n/a	n/a	n/a	n/a	n/a	"2021-02-02 13:42:11.190662"	"2021-02-02 13:42:11.724280"	76	2.68618136666667
"S210202"	"Response_Selection"	"LEFT"	"LEFT"	496.590899999944	983.3333353	n/a	n/a	n/a	n/a	n/a	n/a	n/a	"2021-02-02 13:42:12.716296"	"2021-02-02 13:42:13.420086"	77	2.68618136666667
"S210202"	"Response_Selection"	"RIGHT"	"RIGHT"	272.220899999979	983.3333353	n/a	n/a	n/a	n/a	n/a	n/a	n/a	"2021-02-02 13:42:14.412655"	"2021-02-02 13:42:14.892692"	78	2.68618136666667
"S210202"	"Response_Selection"	"LEFT"	"LEFT"	334.255699999972	1416.6666695	n/a	n/a	n/a	n/a	n/a	n/a	n/a	"2021-02-02 13:42:16.318406"	"2021-02-02 13:42:16.860116"	79	2.68618136666667
"S210202"	"Response_Selection"	"LEFT"	"LEFT"	362.068099999988	550.0000011	n/a	n/a	n/a	n/a	n/a	n/a	n/a	"2021-02-02 13:42:17.418623"	"2021-02-02 13:42:17.989742"	80	2.68618136666667
