index	Trial_Type	Participant_ID	Trial_Probability	Question_Position_Prediction_Correct	Question_Position_Prediction_Agent	Question_Position_Comparison_Self	Question_Position_Comparison_Irrelevant	Trial_Stake	Trial_Stake_Jitter	Trial_Type_Jitter	Trial_Result_Jitter	Balance_Update_Jitter	Question_Comparison_Condition	Question_Comparison_Type	Question_Comparison_Question	Question_Comparison_Label	Question_Comparison_Item	Question_Comparison_Proportion_Yes	Question_Factual_Condition	Question_Factual_Item	Question_Factual_Question	Question_Factual_Label	Question_Factual_Proportion_DontKnow	Question_Factual_Type	Answer_Prediction_Agent	Answer_Prediction_Agent_RT	Answer_Prediction_Correct	Answer_Prediction_Correct_RT	Answer_Self	Answer_Self_RT	Answer_Irrelevant	Answer_Irrelevant_RT	Trial_Balance	Trial_Balance_Effect	Trial_Condition	Trial_ProbableSide	Prediction_Choice	Prediction_Result	Prediction_RT	Trial_Order	Trial_Datetime
58	Self	S200311	0.5	2	1	1	2	0.8	1066.6666688	1500.000003	2350.0000047	1783.3333369	Minor	Wrong_doings	30	You have switched off appliances when not in use	C1_20	1.0	Hard	I1_24	37	The Earth is round	0.0	Yes	RIGHT	707.3386999999798	LEFT	449.25470000004	RIGHT	1640.6638999999927	RIGHT	768.117200000006	9.2	0.8	Probable_Lie	LEFT	RIGHT	1	1067.351799999983	0	2020-03-11 13:33:48.144285
109	Computer	S200311	0.5	2	1	2	1	0.4	1150.0000023	1000.000002	2500.000005	2500.000005	Minor	Good_deeds	46	You have made someone cry	C1_24	0.05	Hard	I2_34	11	Afghan Hound is the first cloned cat	0.833333333333333	Yes	LEFT	431.34759999998096	LEFT	247.96010000000024	LEFT	1136.302499999999	LEFT	2725.716299999988	9.2	0.4	Probable_Lie	RIGHT	RIGHT	3	883.8459711433222	1	2020-03-11 13:34:13.287326
25	Self	S200311	0.6666666666666666	2	1	1	2	0.7	1000.000002	1433.3333362	1933.3333372	1650.0000033	Major	Wrong_doings	42	You have provided shelter for stray animals	C1_42	0.95	Hard	I1_11	53	Singapore is a country	0.764705882352941	No	RIGHT	355.97649999999703	RIGHT	121.18099999997868	RIGHT	1640.6001999999944	RIGHT	711.8848000000071	9.9	0.7	Probable_Truth	LEFT	LEFT	2	824.7465000000034	2	2020-03-11 13:34:35.527047
89	Self	S200311	0.8333333333333334	2	1	1	2	0.1	1150.0000023	1066.6666688	2066.6666708	1500.000003	Minor	Wrong_doings	35	You have been restricting your electricity consumption	C2_13	0.95	Hard	I1_15	9	Nanyang Technological University is in Australia	0.0	Yes	RIGHT	381.72529999997096	RIGHT	496.3831999999684	RIGHT	1973.2534000000328	LEFT	1295.3217999999538	9.999999999999998	0.1	Probable_Truth	RIGHT	RIGHT	4	573.0604999999969	3	2020-03-11 13:34:58.607046
47	Self	S200311	0.8333333333333334	2	1	2	1	0.1	1150.0000023	1433.3333362	1500.000003	2216.6666711000003	Minor	Wrong_doings	28	You have drunk alcohol when you were underage	C1_28	0.65	Hard	I2_54	33	The current century is 21st	0.0	No	RIGHT	342.0841000000223	RIGHT	135.73320000000422	LEFT	1270.2450999999542	RIGHT	1631.2105000000088	10.099999999999998	0.1	Probable_Truth	RIGHT	RIGHT	3	507.25629999999455	4	2020-03-11 13:35:21.366376
69	Self	S200311	0.6666666666666666	1	2	2	1	0.4	1500.000003	1000.000002	1933.3333372	1500.000003	Minor	Good_deeds	27	You have returned your trays in food courts	C2_59	1.0	Easy	I2_45	45	Nomophobia is the fear of being without a phone or computer	0.888888888888889	Yes	RIGHT	272.0853999999804	LEFT	629.1009999999915	RIGHT	1142.486100000042	LEFT	3004.3479000000843	9.699999999999998	0.4	Probable_Lie	RIGHT	RIGHT	2	1095.628300000044	5	2020-03-11 13:35:46.014769
136	Computer	S200311	0.8333333333333334	2	1	1	2	0.2	1150.0000023	1000.000002	2350.0000047	2216.6666711000003	Minor	Wrong_doings	58	You have been donating all your excess food to a food bank	C2_39	0.55	Hard	I1_54	51	The Amazon forest covers an area of 1 billion acres	0.777777777777778	No	LEFT	590.8845999999812	LEFT	232.1105000000898	RIGHT	1753.2072000000198	RIGHT	1824.0741999999275	9.699999999999998	0.2	Probable_Lie	RIGHT	LEFT	2	620.4458183765869	6	2020-03-11 13:36:10.320465
133	Computer	S200311	0.8333333333333334	1	2	2	1	0.4	1216.6666691	1433.3333362	2350.0000047	1933.3333372	Major	Wrong_doings	11	You have cheated on a national exam	C1_7	0.0	Hard	I2_21	39	Africa is the continent with the least rainfall	0.722222222222222	Yes	LEFT	280.2295999999842	LEFT	486.66720000005625	LEFT	1174.5103000000654	RIGHT	3596.148899999889	9.699999999999998	0.4	Probable_Lie	RIGHT	RIGHT	1	900.1064707768007	7	2020-03-11 13:36:36.262887
76	Self	S200311	0.6666666666666666	2	1	2	1	0.2	1283.3333359	1500.000003	1650.0000033	2066.6666708	Major	Wrong_doings	12	You have held the door open for a stranger	C1_35	0.0	Hard	I1_48	48	Hot chocolate was created by the Mayan culture	0.0555555555555556	Yes	RIGHT	278.37699999997767	RIGHT	352.16190000005554	RIGHT	1223.237099999892	LEFT	1614.0832999999477	9.899999999999997	0.2	Probable_Truth	LEFT	LEFT	1	811.3936000000876	8	2020-03-11 13:36:59.614517
36	Self	S200311	0.8333333333333334	1	2	2	1	0.8	1283.3333359	1433.3333362	1933.3333372	2350.0000047	Minor	Wrong_doings	7	You have cheated on a test	C1_46	1.0	Hard	I1_44	41	It takes 500 days to travel from Earth to Mars	0.0555555555555556	Yes	RIGHT	271.4673999998922	RIGHT	379.8038999999562	LEFT	992.2037000000046	LEFT	1651.0787000000846	10.699999999999998	0.8	Probable_Truth	LEFT	LEFT	1	531.9094000000177	9	2020-03-11 13:37:23.014959
41	Self	S200311	0.8333333333333334	2	1	1	2	0.8	1500.000003	1350.0000027	1783.3333369	1650.0000033	Minor	Good_deeds	39	You have taken part in burglary	C1_8	0.0	Easy	I2_58	58	The Earth turns the closest to the sun in May	0.722222222222222	Yes	RIGHT	311.6519000000153	RIGHT	312.94470000000274	LEFT	1056.1442000000625	RIGHT	2959.084100000041	11.499999999999998	0.8	Probable_Lie	LEFT	LEFT	3	547.3036999999294	10	2020-03-11 13:37:47.063447
6	Self	S200311	0.5	1	2	2	1	0.2	1433.3333362	1433.3333362	2500.000005	2216.6666711000003	Minor	Wrong_doings	30	You have bribed someone to improve a grade	C1_59	0.5	Easy	I2_26	19	It is snowing outside now	0.611111111111111	Yes	RIGHT	464.4920000000639	LEFT	566.5564000000813	LEFT	1135.2792000000136	LEFT	1552.5495000000546	11.3	0.2	Probable_Lie	RIGHT	LEFT	6	1447.7403000000777	11	2020-03-11 13:38:12.382982
67	Self	S200311	0.6666666666666666	1	2	1	2	0.6	1150.0000023	1216.6666691	1783.3333369	2500.000005	Major	Wrong_doings	20	You have lost everything just to help others	C1_48	0.05	Easy	I2_3	1	Mozambique is the world's poorest country	0.833333333333333	No	RIGHT	408.5030999999617	RIGHT	450.1745999999685	RIGHT	2188.843999999904	LEFT	2400.2106000000367	11.9	0.6	Probable_Truth	LEFT	LEFT	2	671.6817999999876	12	2020-03-11 13:38:37.726734
79	Self	S200311	0.6666666666666666	2	1	2	1	0.8	1150.0000023	1216.6666691	2216.6666711000003	2350.0000047	Minor	Good_deeds	45	You have claimed doing things that you never did	C1_45	0.05	Hard	I1_21	6	Last day of the year is 30th December	0.888888888888889	No	RIGHT	400.3685000000132	RIGHT	232.6027999999951	LEFT	1967.6388999999967	LEFT	2298.3324000000493	12.7	0.8	Probable_Truth	RIGHT	RIGHT	5	667.3964999999953	13	2020-03-11 13:39:02.799155
140	Computer	S200311	0.8333333333333334	2	1	2	1	0.7	1216.6666691	1150.0000023	1500.000003	2500.000005	Major	Wrong_doings	53	You have shown your appreciation to your teachers	C2_19	1.0	Hard	I1_58	28	North Korea is more developed than South Korea	0.0	Yes	LEFT	541.0279000000173	RIGHT	320.9531000001107	RIGHT	1158.6105999999745	LEFT	1659.460099999933	12.7	0.7	Probable_Truth	LEFT	LEFT	1	502.3842727947365	14	2020-03-11 13:39:25.920468
73	Self	S200311	0.6666666666666666	2	1	1	2	0.7	1433.3333362	1350.0000027	1933.3333372	1500.000003	Minor	Wrong_doings	24	You have been physically hurt to protect others	C2_37	1.0	Easy	I1_40	40	Pyramid of Giza is 468 feet tall	0.0	No	RIGHT	361.855300000002	RIGHT	224.0381999999954	LEFT	1117.901800000027	RIGHT	2086.996699999986	13.4	0.7	Probable_Truth	LEFT	LEFT	2	809.3792000000803	15	2020-03-11 13:39:49.311093
107	Computer	S200311	0.5	2	1	1	2	0.5	1000.000002	1066.6666688	1933.3333372	1650.0000033	Major	Good_deeds	24	You have kept your promises	C2_10	0.05	Easy	I2_11	5	It is night time now	0.944444444444444	Yes	LEFT	603.5289000000148	RIGHT	281.9991999999729	RIGHT	958.115399999997	LEFT	870.7229000000325	13.4	0.5	Probable_Truth	RIGHT	RIGHT	6	875.8357664784023	16	2020-03-11 13:40:11.110679
75	Self	S200311	0.6666666666666666	2	1	1	2	0.5	1216.6666691	1433.3333362	1783.3333369	2500.000005	Major	Good_deeds	34	You have used heroin	C2_17	0.45	Hard	I1_6	18	The Franco-Prussian War occurred in the 19th century	0.666666666666667	Yes	RIGHT	336.817300000007	RIGHT	215.36830000002283	LEFT	991.3850000000366	LEFT	2063.0894999999327	13.9	0.5	Probable_Truth	LEFT	LEFT	2	590.1707000000442	17	2020-03-11 13:40:34.814798
102	Computer	S200311	0.5	1	2	2	1	0.1	1066.6666688	1283.3333359	2066.6666708	2066.6666708	Minor	Wrong_doings	30	You have bribed someone to improve a grade	C1_59	0.5	Easy	I2_26	19	It is snowing outside now	0.611111111111111	Yes	LEFT	295.6669000000147	RIGHT	497.0717999999579	LEFT	880.4060999999592	LEFT	860.1887999999462	13.9	0.1	Probable_Truth	RIGHT	RIGHT	4	672.1610316010526	18	2020-03-11 13:40:57.070538
35	Self	S200311	0.8333333333333334	1	2	1	2	0.3	1000.000002	1150.0000023	2500.000005	2216.6666711000003	Minor	Wrong_doings	52	You have started an NGO using your savings	C2_11	0.65	Easy	I1_41	41	Singapore is a poor country	0.888888888888889	No	RIGHT	423.9210999999159	RIGHT	453.25080000009166	LEFT	2353.0060000000503	LEFT	1519.812800000068	14.2	0.3	Probable_Lie	LEFT	LEFT	2	794.8212000000012	19	2020-03-11 13:41:22.054762
84	Self	S200311	0.8333333333333334	1	2	2	1	0.3	1150.0000023	1500.000003	1500.000003	2216.6666711000003	Major	Wrong_doings	23	You have downloaded pirated movies	C2_54	0.0	Hard	I2_25	25	Acoustic Kitty refers to cat with implants	0.944444444444444	No	RIGHT	320.31319999998686	LEFT	1166.2966000000097	LEFT	1567.754100000002	LEFT	2192.9033999999774	13.9	0.3	Probable_Lie	RIGHT	RIGHT	1	884.620699999914	20	2020-03-11 13:41:47.127463
44	Self	S200311	0.8333333333333334	2	1	2	1	0.5	1066.6666688	1000.000002	1933.3333372	1933.3333372	Major	Wrong_doings	53	You have shown your appreciation to your teachers	C2_19	1.0	Hard	I1_58	28	North Korea is more developed than South Korea	0.0	Yes	RIGHT	1002.2589000000152	LEFT	311.6039000000228	RIGHT	959.4109999999318	LEFT	1437.2386000000006	13.4	0.5	Probable_Lie	LEFT	LEFT	6	682.8179000000318	21	2020-03-11 13:42:10.031749
43	Self	S200311	0.8333333333333334	2	1	1	2	0.7	1350.0000027	1216.6666691	2500.000005	1783.3333369	Minor	Good_deeds	40	You have deceived a loved one	C2_3	0.0	Hard	I1_25	25	It sometimes snows in Singapore	0.944444444444444	No	RIGHT	518.3103000000528	RIGHT	470.4494000000068	LEFT	1034.7127	LEFT	1071.3089000000764	14.099999999999998	0.7	Probable_Truth	LEFT	LEFT	1	737.0835000000397	22	2020-03-11 13:42:33.286208
121	Computer	S200311	0.6666666666666666	2	1	1	2	0.4	1500.000003	1433.3333362	1933.3333372	1650.0000033	Major	Wrong_doings	42	You have provided shelter for stray animals	C1_42	0.95	Hard	I1_11	53	Singapore is a country	0.764705882352941	No	LEFT	330.0441000000092	LEFT	255.35009999998687	RIGHT	1536.0734999999297	RIGHT	809.2306999999437	14.099999999999998	0.4	Probable_Lie	RIGHT	RIGHT	2	799.2226718816545	23	2020-03-11 13:42:56.103239
10	Self	S200311	0.5	2	1	1	2	0.2	1500.000003	1433.3333362	2350.0000047	1933.3333372	Minor	Good_deeds	5	You have bought cigarettes for a minor	C2_45	0.95	Hard	I2_5	2	Some owl species hunt fish	0.0	Yes	RIGHT	451.95369999999	LEFT	224.092799999994	LEFT	1363.5733999999502	LEFT	1784.248599999955	13.9	0.2	Probable_Lie	LEFT	LEFT	6	883.2292000000734	24	2020-03-11 13:43:20.597878
138	Computer	S200311	0.8333333333333334	2	1	1	2	0.4	1350.0000027	1066.6666688	2500.000005	2066.6666708	Major	Good_deeds	8	You have taken responsibility for your actions	C2_58	0.0	Easy	I2_51	54	Cleopatra was born in Greece	0.0555555555555556	No	LEFT	959.5484999999826	RIGHT	401.16329999989375	RIGHT	1004.328399999963	LEFT	1720.37499999999	13.9	0.4	Probable_Truth	LEFT	LEFT	1	811.0215273075728	25	2020-03-11 13:43:45.054989
108	Computer	S200311	0.5	2	1	2	1	0.1	1433.3333362	1150.0000023	1783.3333369	2066.6666708	Major	Wrong_doings	51	You have used a fake name online	C1_43	0.0	Hard	I1_60	34	Malay is one of the races in Singapore	0.0	No	LEFT	419.2477000000281	LEFT	199.92739999997863	LEFT	1103.5528999999542	RIGHT	1261.722299999974	13.9	0.1	Probable_Lie	RIGHT	RIGHT	1	888.120238494872	26	2020-03-11 13:44:07.926566
90	Self	S200311	0.8333333333333334	2	1	1	2	0.4	1066.6666688	1216.6666691	2216.6666711000003	2350.0000047	Minor	Wrong_doings	28	You have assisted in a crime	C2_28	0.0	Easy	I2_35	42	Fibers in oranges can be used to make fabric	0.944444444444444	No	RIGHT	725.6313000000318	LEFT	361.0289000000648	LEFT	996.664199999941	LEFT	1864.31830000015	13.499999999999998	0.4	Probable_Lie	RIGHT	RIGHT	1	779.6278000000711	27	2020-03-11 13:44:32.078087
39	Self	S200311	0.8333333333333334	1	2	2	1	0.5	1350.0000027	1066.6666688	1650.0000033	1783.3333369	Minor	Good_deeds	3	You have engaged in arson	C2_23	0.65	Hard	I2_41	17	Arabi is the oldest surviving breed of horse	0.0	Yes	RIGHT	264.5336999999017	RIGHT	334.4767999999476	LEFT	1350.6523000000925	LEFT	2155.805200000032	13.999999999999998	0.5	Probable_Truth	LEFT	LEFT	1	683.5839999998825	28	2020-03-11 13:44:55.287038
1	Self	S200311	0.5	1	2	1	2	0.4	1283.3333359	1150.0000023	2066.6666708	2500.000005	Major	Wrong_doings	42	You have taken part in violent demonstration	C1_15	0.55	Easy	I2_60	46	It takes 112 years to build the Pisa Tower	0.666666666666667	No	RIGHT	105.58070000001862	RIGHT	326.0364000000209	LEFT	1083.989800000154	RIGHT	1678.0891999999312	14.4	0.4	Probable_Truth	LEFT	RIGHT	6	1398.4442999999374	29	2020-03-11 13:45:19.453825
62	Self	S200311	0.5	2	1	2	1	0.2	1350.0000027	1150.0000023	2500.000005	1933.3333372	Minor	Wrong_doings	56	You have given directions to a lost tourist	C2_43	0.7	Easy	I2_42	27	There is typically 0.6 grams of mercury in glass thermometer	0.722222222222222	Yes	RIGHT	668.9679000000979	LEFT	455.7528000000275	RIGHT	1880.2911000000224	RIGHT	2557.825599999888	14.2	0.2	Probable_Lie	LEFT	RIGHT	3	1303.0707999998867	30	2020-03-11 13:45:45.821500
105	Computer	S200311	0.5	2	1	1	2	0.2	1500.000003	1433.3333362	2216.6666711000003	1500.000003	Minor	Wrong_doings	26	You have been sued	C2_46	0.0	Easy	I1_2	60	There are 6 million animal species on Earth	0.888888888888889	No	LEFT	600.5918999999267	RIGHT	320.7953000000998	LEFT	1070.8058000000165	RIGHT	1623.4180999999808	14.2	0.2	Probable_Truth	RIGHT	LEFT	2	502.2424123597301	31	2020-03-11 13:46:09.157922
124	Computer	S200311	0.6666666666666666	2	1	2	1	0.1	1350.0000027	1216.6666691	1783.3333369	2350.0000047	Minor	Wrong_doings	1	You have followed instructions	C2_38	0.05	Hard	I2_2	44	Beer is an alcoholic drink	0.0	Yes	LEFT	1177.689300000111	RIGHT	329.12270000019817	RIGHT	783.0596000001151	RIGHT	1155.6017000000338	14.2	0.1	Probable_Truth	LEFT	LEFT	2	774.372121447781	32	2020-03-11 13:46:32.637946
114	Computer	S200311	0.6666666666666666	1	2	1	2	0.4	1216.6666691	1066.6666688	1650.0000033	2500.000005	Minor	Good_deeds	60	You have sheltered others from disasters	C2_60	0.95	Hard	I1_12	57	February has 30 days	1.0	Yes	LEFT	215.7867000000806	LEFT	421.1797000000388	RIGHT	1450.4669000000376	LEFT	1054.5873999999458	14.2	0.4	Probable_Lie	RIGHT	LEFT	3	541.4120760155377	33	2020-03-11 13:46:55.318536
59	Self	S200311	0.5	2	1	1	2	0.7	1500.000003	1283.3333359	2066.6666708	2350.0000047	Major	Wrong_doings	31	You have donated a pay cheque to charity	C2_56	0.9	Easy	I1_37	33	Penguin can fly with their wings	0.0555555555555556	Yes	LEFT	830.5315999998584	LEFT	1542.8911999999857	RIGHT	1947.7129999997944	LEFT	1279.988000000003	14.2	0.7	Probable_Lie	RIGHT	LEFT	5	1319.8586999999409	34	2020-03-11 13:47:22.014844
118	Computer	S200311	0.6666666666666666	1	2	2	1	0.1	1500.000003	1216.6666691	2216.6666711000003	1933.3333372	Major	Good_deeds	11	You have sold illegal drugs	C1_11	0.15	Easy	I1_13	30	Vegetarians can eat vegetable products	0.0	No	LEFT	440.7810000000154	RIGHT	943.4759999999188	LEFT	856.5016000000014	RIGHT	2166.877999999997	14.2	0.1	Probable_Truth	LEFT	LEFT	2	852.6788538113027	35	2020-03-11 13:47:46.701845
15	Self	S200311	0.5	2	1	2	1	0.1	1433.3333362	1500.000003	1933.3333372	1650.0000033	Major	Good_deeds	10	You have rescued others from a catastrophe	C2_26	1.0	Hard	I2_52	52	The hyoid bone is the only jointless bone	0.111111111111111	No	RIGHT	2004.462900000135	LEFT	815.5358999999862	RIGHT	1376.4688999999637	LEFT	2158.748199999991	14.1	0.1	Probable_Lie	LEFT	RIGHT	2	1510.6233999999858	36	2020-03-11 13:48:13.654127
20	Self	S200311	0.6666666666666666	1	2	2	1	0.2	1500.000003	1433.3333362	1500.000003	2350.0000047	Minor	Good_deeds	14	You have engaged in money laundering	C2_36	0.9	Hard	I2_16	12	It is 20th Century now	0.0	Yes	RIGHT	455.261099999916	RIGHT	403.6939000000075	LEFT	1016.4895999998862	LEFT	1467.0416999999816	14.3	0.2	Probable_Truth	RIGHT	RIGHT	6	758.009599999923	37	2020-03-11 13:48:37.111259
131	Computer	S200311	0.8333333333333334	1	2	1	2	0.6	1066.6666688	1283.3333359	1783.3333369	2500.000005	Minor	Wrong_doings	52	You have started an NGO using your savings	C2_11	0.65	Easy	I1_41	41	Singapore is a poor country	0.888888888888889	No	LEFT	249.14880000005724	RIGHT	596.9380999999885	LEFT	1329.7671000000264	RIGHT	1047.7990000001682	14.3	0.6	Probable_Truth	LEFT	LEFT	1	885.0643343722662	38	2020-03-11 13:49:00.422363
92	Self	S200311	0.8333333333333334	2	1	2	1	0.8	1433.3333362	1283.3333359	1500.000003	1783.3333369	Major	Wrong_doings	14	You have held the elevator doors for others	C1_14	0.85	Easy	I1_42	15	Slavery was abolished in Cuba in 1886	0.0	No	RIGHT	420.8639999999377	RIGHT	304.3696000002001	RIGHT	1071.0484000001088	LEFT	2879.311899999948	15.1	0.8	Probable_Truth	RIGHT	RIGHT	3	621.8831999999566	39	2020-03-11 13:49:24.294595
120	Computer	S200311	0.6666666666666666	2	1	1	2	0.8	1000.000002	1283.3333359	2216.6666711000003	2066.6666708	Major	Good_deeds	47	You have made counterfeit money	C2_1	0.05	Hard	I2_44	13	There are 6000 spoken languages in the World	0.888888888888889	Yes	LEFT	622.6317000000563	LEFT	391.1496999999145	LEFT	1431.7645000000994	RIGHT	1326.892399999906	15.1	0.8	Probable_Lie	RIGHT	LEFT	4	501.941488993661	40	2020-03-11 13:49:47.703444
86	Self	S200311	0.8333333333333334	1	2	2	1	0.2	1283.3333359	1283.3333359	1650.0000033	1783.3333369	Major	Wrong_doings	18	You have engaged in drink-driving	C1_4	0.8	Easy	I2_40	14	There are 7 days in a week	0.666666666666667	Yes	RIGHT	240.1915000000372	RIGHT	391.3611000000401	LEFT	1279.8004999999648	RIGHT	1026.6267999998036	15.3	0.2	Probable_Truth	LEFT	LEFT	1	871.737899999971	41	2020-03-11 13:50:10.086044
12	Self	S200311	0.5	2	1	2	1	0.5	1350.0000027	1150.0000023	1650.0000033	2350.0000047	Major	Wrong_doings	51	You have used a fake name online	C1_43	0.0	Hard	I1_60	34	Malay is one of the races in Singapore	0.0	No	RIGHT	975.7048999999824	LEFT	687.2983000000659	LEFT	872.7406999998948	RIGHT	915.8606999999392	14.8	0.5	Probable_Lie	LEFT	LEFT	5	1589.3051000000469	42	2020-03-11 13:50:34.198842
117	Computer	S200311	0.6666666666666666	1	2	2	1	0.7	1150.0000023	1350.0000027	2500.000005	2216.6666711000003	Major	Wrong_doings	6	You have faked an illness	C1_38	1.0	Hard	I2_55	16	Cernan was the second last man to walk on the Moon	0.888888888888889	Yes	LEFT	415.06329999992886	LEFT	803.336599999966	LEFT	1168.6878000000434	LEFT	3151.169899999786	14.8	0.7	Probable_Lie	LEFT	RIGHT	2	826.4374544238394	43	2020-03-11 13:51:00.358628
127	Computer	S200311	0.6666666666666666	2	1	2	1	0.2	1283.3333359	1500.000003	1650.0000033	2500.000005	Major	Good_deeds	58	You have extorted money from anyone	C2_7	0.95	Hard	I1_35	2	French is Singapore's official language	0.0	No	RIGHT	539.3719000001056	RIGHT	753.0126999999993	LEFT	783.1729000001815	LEFT	1229.5051000000967	14.999999999999998	0.2	Probable_Truth	LEFT	RIGHT	6	574.8124258618266	44	2020-03-11 13:51:23.733506
142	Computer	S200311	0.8333333333333334	2	1	2	1	0.3	1283.3333359	1283.3333359	1783.3333369	1500.000003	Major	Wrong_doings	19	You have adopted a zero-waste lifestyle	C1_53	0.05	Easy	I1_28	54	The first Grammy awards was held in 1959	0.0555555555555556	Yes	LEFT	491.1630000001424	LEFT	241.0952999998699	RIGHT	1319.5478000000094	LEFT	3334.365800000114	14.999999999999998	0.3	Probable_Lie	RIGHT	LEFT	3	967.636813987456	45	2020-03-11 13:51:48.502258
106	Computer	S200311	0.5	2	1	1	2	0.3	1216.6666691	1500.000003	2066.6666708	2216.6666711000003	Minor	Good_deeds	5	You have bought cigarettes for a minor	C2_45	0.95	Hard	I2_5	2	Some owl species hunt fish	0.0	Yes	LEFT	268.1442000000516	LEFT	304.6372000001156	LEFT	952.6017000000592	LEFT	1047.900600000048	14.999999999999998	0.3	Probable_Lie	LEFT	LEFT	4	601.9008447123447	46	2020-03-11 13:52:11.245783
141	Computer	S200311	0.8333333333333334	2	1	2	1	0.8	1066.6666688	1216.6666691	1650.0000033	2350.0000047	Major	Good_deeds	3	You have bought cocaine	C1_40	0.95	Easy	I2_33	58	Statute of Liberty is in New York	0.777777777777778	Yes	LEFT	737.6530000001367	RIGHT	287.7599000000828	LEFT	838.4868000000552	RIGHT	1268.0993000001308	14.999999999999998	0.8	Probable_Truth	LEFT	LEFT	1	530.9398799382121	47	2020-03-11 13:52:33.767720
23	Self	S200311	0.6666666666666666	1	2	2	1	0.7	1350.0000027	1066.6666688	2350.0000047	1933.3333372	Minor	Wrong_doings	16	You have started a movement to support a cause	C2_6	0.0	Easy	I1_45	55	The first Olympic Games was held in the 5th century B.C	0.0	No	RIGHT	400.1647000000048	RIGHT	483.5147000001143	RIGHT	1479.4514000000163	LEFT	2811.61330000009	15.699999999999998	0.7	Probable_Truth	LEFT	LEFT	2	838.7092999998913	48	2020-03-11 13:54:08.598607
112	Computer	S200311	0.6666666666666666	1	2	1	2	0.8	1433.3333362	1150.0000023	2350.0000047	2066.6666708	Major	Wrong_doings	38	You have given up your seat in the MRT	C1_16	0.0	Easy	I2_53	53	Airbags in cars are filled with sodium azide	0.0555555555555556	No	LEFT	327.84429999992426	LEFT	856.091699999979	RIGHT	1175.233599999956	LEFT	1896.551099999897	15.699999999999998	0.8	Probable_Lie	LEFT	RIGHT	1	880.3456006090671	49	2020-03-11 13:54:33.310421
137	Computer	S200311	0.8333333333333334	2	1	1	2	0.1	1500.000003	1433.3333362	1933.3333372	1933.3333372	Minor	Good_deeds	39	You have taken part in burglary	C1_8	0.0	Easy	I2_58	58	The Earth turns the closest to the sun in May	0.722222222222222	Yes	LEFT	1042.3015999999734	RIGHT	688.23650000013	LEFT	997.443000000203	RIGHT	1382.3672000000895	15.699999999999998	0.1	Probable_Truth	RIGHT	LEFT	1	850.1658146218473	50	2020-03-11 13:54:57.638189
63	Self	S200311	0.5	2	1	2	1	0.6	1283.3333359	1350.0000027	1500.000003	2216.6666711000003	Minor	Wrong_doings	16	You have illegally stayed in a country	C1_34	0.0	Easy	I2_43	43	Fishes can swim in water	0.0	No	RIGHT	1094.003599999951	LEFT	799.857700000075	LEFT	1248.2794000000013	RIGHT	1257.347700000082	15.099999999999998	0.6	Probable_Lie	RIGHT	RIGHT	2	1318.497200000138	51	2020-03-11 13:55:22.277885
122	Computer	S200311	0.6666666666666666	2	1	1	2	0.5	1433.3333362	1066.6666688	2350.0000047	1783.3333369	Minor	Wrong_doings	7	You have complimented others for good work	C1_58	1.0	Easy	I2_4	10	Polish is 20th most spoken language in the World	1.0	No	LEFT	473.961700000018	LEFT	271.2855000002037	RIGHT	1140.1952999999594	RIGHT	1591.8768999999884	15.099999999999998	0.5	Probable_Lie	RIGHT	LEFT	4	809.0416406452753	52	2020-03-11 13:55:45.773847
0	Self	S200311	0.5	1	2	1	2	0.7	1216.6666691	1500.000003	1783.3333369	2066.6666708	Minor	Good_deeds	47	You have offered a listening ear to a friend	C2_2	0.2	Hard	I2_23	23	The Moon orbits around the Earth	0.0555555555555556	No	RIGHT	79.78819999993902	RIGHT	362.4429000001328	RIGHT	1260.844299999917	RIGHT	1480.2168999999594	15.799999999999995	0.7	Probable_Truth	RIGHT	LEFT	1	1613.570799999934	53	2020-03-11 13:56:09.710770
61	Self	S200311	0.5	2	1	2	1	0.1	1000.000002	1000.000002	1650.0000033	2066.6666708	Major	Good_deeds	20	You have watched a pirated movie	C2_8	0.1	Hard	I1_4	42	A caterpillar has more muscle than a human	1.0	No	RIGHT	791.1173999998482	LEFT	216.79599999993115	LEFT	1166.7371999999432	LEFT	2966.1122999998497	15.699999999999998	0.1	Probable_Lie	RIGHT	RIGHT	3	1092.828999999938	54	2020-03-11 13:56:34.237801
68	Self	S200311	0.6666666666666666	1	2	2	1	0.3	1066.6666688	1066.6666688	2500.000005	2350.0000047	Minor	Wrong_doings	27	You have donated blood every 6 months for many years	C2_31	0.0	Hard	I1_5	5	Most plants emit oxygen in the day	0.0	Yes	RIGHT	336.43050000000585	RIGHT	310.5176000001393	RIGHT	1622.9166000000532	RIGHT	2427.9069000001527	15.999999999999998	0.3	Probable_Truth	RIGHT	RIGHT	3	624.9549999999999	55	2020-03-11 13:56:59.118143
116	Computer	S200311	0.6666666666666666	1	2	2	1	0.5	1000.000002	1000.000002	1933.3333372	1783.3333369	Minor	Good_deeds	14	You have engaged in money laundering	C2_36	0.9	Hard	I2_16	12	It is 20th Century now	0.0	Yes	LEFT	287.6357000000098	RIGHT	859.001299999818	LEFT	974.260200000117	LEFT	1068.1390000002011	15.999999999999998	0.5	Probable_Lie	LEFT	LEFT	4	946.6351380710048	56	2020-03-11 13:57:21.541911
132	Computer	S200311	0.8333333333333334	1	2	2	1	0.2	1350.0000027	1150.0000023	1500.000003	1500.000003	Minor	Wrong_doings	7	You have cheated on a test	C1_46	1.0	Hard	I1_44	41	It takes 500 days to travel from Earth to Mars	0.0555555555555556	Yes	LEFT	335.9706000001097	RIGHT	1124.5157000000745	LEFT	1000.279499999806	LEFT	1470.0921999999537	15.999999999999998	0.2	Probable_Truth	LEFT	LEFT	1	573.2277459615597	57	2020-03-11 13:57:44.109570
2	Self	S200311	0.5	1	2	1	2	0.8	1500.000003	1216.6666691	2216.6666711000003	1650.0000033	Major	Good_deeds	2	You have gossiped about your best friend	C2_30	0.0	Easy	I1_46	22	Cheese is an Asian staple	0.888888888888889	Yes	RIGHT	319.5859999998447	RIGHT	416.289900000038	LEFT	2070.849599999974	LEFT	2015.279899999996	16.799999999999997	0.8	Probable_Truth	RIGHT	LEFT	2	1205.5471999999554	58	2020-03-11 13:58:09.293479
126	Computer	S200311	0.6666666666666666	2	1	2	1	0.3	1216.6666691	1000.000002	2500.000005	1933.3333372	Minor	Good_deeds	13	You have lied to your parents	C2_47	0.0	Easy	I2_13	11	Mexico's National Day is September 16	0.888888888888889	Yes	LEFT	372.4848000001657	LEFT	239.8826000001009	LEFT	999.1782999998122	LEFT	1620.803799999976	16.799999999999997	0.3	Probable_Lie	LEFT	RIGHT	1	896.3505807653114	59	2020-03-11 13:58:32.645651
65	Self	S200311	0.6666666666666666	1	2	1	2	0.5	1000.000002	1500.000003	1650.0000033	1650.0000033	Major	Good_deeds	59	You have coveted things that belong to others	C2_20	0.1	Easy	I2_1	17	There are 9 rings in the Olympic flag	0.0	No	RIGHT	152.37329999990834	RIGHT	411.1883000000489	LEFT	2502.0417000000634	LEFT	1559.235400000034	17.299999999999997	0.5	Probable_Truth	RIGHT	RIGHT	6	821.2925999998788	60	2020-03-11 13:58:56.470023
17	Self	S200311	0.6666666666666666	1	2	1	2	0.5	1000.000002	1283.3333359	1933.3333372	2500.000005	Minor	Good_deeds	36	You have cursed at others	C2_14	0.0	Easy	I2_30	13	Brazil is in South America	0.666666666666667	No	RIGHT	272.47620000002826	RIGHT	363.2972000000336	LEFT	1152.1196000001055	RIGHT	2256.4425000000483	17.799999999999997	0.5	Probable_Truth	RIGHT	RIGHT	4	548.3707999999297	61	2020-03-11 13:59:20.350878
24	Self	S200311	0.6666666666666666	2	1	1	2	0.3	1066.6666688	1350.0000027	2350.0000047	2066.6666708	Major	Good_deeds	47	You have made counterfeit money	C2_1	0.05	Hard	I2_44	13	There are 6000 spoken languages in the World	0.888888888888889	Yes	RIGHT	912.873799999943	LEFT	304.600500000106	LEFT	1070.3551999999945	RIGHT	878.1673999999384	17.499999999999996	0.3	Probable_Lie	RIGHT	RIGHT	2	734.4748000000436	62	2020-03-11 13:59:43.661838
96	Computer	S200311	0.5	1	2	1	2	0.4	1150.0000023	1433.3333362	2350.0000047	1650.0000033	Minor	Good_deeds	47	You have offered a listening ear to a friend	C2_2	0.2	Hard	I2_23	23	The Moon orbits around the Earth	0.0555555555555556	No	LEFT	233.3459000001312	LEFT	1054.561799999874	RIGHT	869.8992999998154	RIGHT	871.7377999998916	17.499999999999996	0.4	Probable_Lie	RIGHT	RIGHT	3	776.867719642888	63	2020-03-11 14:00:06.631288
111	Computer	S200311	0.5	2	1	2	1	0.8	1283.3333359	1283.3333359	1650.0000033	1783.3333369	Major	Good_deeds	10	You have rescued others from a catastrophe	C2_26	1.0	Hard	I2_52	52	The hyoid bone is the only jointless bone	0.111111111111111	No	LEFT	625.2311999999165	RIGHT	344.7994999999082	RIGHT	879.7557000000324	LEFT	1532.2006999999758	17.499999999999996	0.8	Probable_Truth	LEFT	RIGHT	6	981.712770989369	64	2020-03-11 14:00:29.567396
16	Self	S200311	0.6666666666666666	1	2	1	2	0.6	1283.3333359	1216.6666691	2066.6666708	1500.000003	Major	Wrong_doings	38	You have given up your seat in the MRT	C1_16	0.0	Easy	I2_53	53	Airbags in cars are filled with sodium azide	0.0555555555555556	No	RIGHT	696.8274000000747	LEFT	819.7448000000804	RIGHT	1141.2187000000813	LEFT	1336.1227999998846	16.899999999999995	0.6	Probable_Lie	RIGHT	RIGHT	2	699.4208000000981	65	2020-03-11 14:00:52.901498
72	Self	S200311	0.6666666666666666	2	1	1	2	0.4	1500.000003	1066.6666688	2350.0000047	1933.3333372	Minor	Wrong_doings	35	You have pretended to be busy to avoid a social situation	C1_12	0.0	Easy	I2_6	21	Animals are living things	0.0	Yes	RIGHT	953.6547000000156	LEFT	248.1176999999661	LEFT	3013.976800000137	RIGHT	928.6059999999452	16.499999999999996	0.4	Probable_Lie	LEFT	LEFT	5	879.7495999999683	66	2020-03-11 14:01:18.349702
3	Self	S200311	0.5	1	2	1	2	0.6	1350.0000027	1000.000002	1500.000003	1933.3333372	Minor	Good_deeds	15	You have sign up to sponsor a needy child	C2_42	1.0	Easy	I2_22	3	The hardest bone in human body is the jawbone	1.0	No	RIGHT	208.5099999999329	RIGHT	373.7181000001328	RIGHT	2621.075500000188	LEFT	1871.5907999999215	17.099999999999998	0.6	Probable_Truth	RIGHT	RIGHT	5	926.953599999706	67	2020-03-11 14:01:42.709828
66	Self	S200311	0.6666666666666666	1	2	1	2	0.1	1350.0000027	1150.0000023	2216.6666711000003	2216.6666711000003	Minor	Wrong_doings	9	You have told someone's secret to others	C1_9	0.8	Hard	I2_17	38	"Statue of Liberty is 151 feet tall"	0.777777777777778	No	RIGHT	40.87910000043848	RIGHT	1135.7539000000545	LEFT	1355.9348999997385	LEFT	1280.257100000199	17.2	0.1	Probable_Truth	LEFT	LEFT	2	771.8904999996994	68	2020-03-11 14:02:06.805644
113	Computer	S200311	0.6666666666666666	1	2	1	2	0.2	1350.0000027	1283.3333359	2066.6666708	1500.000003	Minor	Good_deeds	36	You have cursed at others	C2_14	0.0	Easy	I2_30	13	Brazil is in South America	0.666666666666667	No	LEFT	152.1455000001879	LEFT	326.5358999997261	LEFT	774.3715999999949	LEFT	1456.2310000001162	17.2	0.2	Probable_Lie	LEFT	RIGHT	2	635.5281142362453	69	2020-03-11 14:02:28.917931
99	Computer	S200311	0.5	1	2	1	2	0.5	1216.6666691	1150.0000023	1783.3333369	2216.6666711000003	Minor	Good_deeds	15	You have sign up to sponsor a needy child	C2_42	1.0	Easy	I2_22	3	The hardest bone in human body is the jawbone	1.0	No	LEFT	120.03310000000056	LEFT	336.31000000013955	RIGHT	1399.212299999817	LEFT	975.939400000243	17.2	0.5	Probable_Lie	LEFT	LEFT	4	823.624965862032	70	2020-03-11 14:02:51.502000
78	Self	S200311	0.6666666666666666	2	1	2	1	0.3	1350.0000027	1283.3333359	2500.000005	1650.0000033	Major	Good_deeds	37	You have helped your parents when asked to	C1_1	0.95	Easy	I2_49	49	Saturn's rings are between 30 and 300 feet thick	0.944444444444444	Yes	RIGHT	554.9507000000631	LEFT	431.540799999766	RIGHT	1295.4028000003746	RIGHT	2001.097100000152	16.9	0.3	Probable_Lie	LEFT	LEFT	5	637.0309000003544	71	2020-03-11 14:03:15.781750
45	Self	S200311	0.8333333333333334	2	1	2	1	0.4	1283.3333359	1066.6666688	2066.6666708	1500.000003	Major	Good_deeds	3	You have bought cocaine	C1_40	0.95	Easy	I2_33	58	Statute of Liberty is in New York	0.777777777777778	Yes	RIGHT	373.82479999996576	RIGHT	360.16319999998814	LEFT	943.3321999999862	RIGHT	1766.7584000000716	17.299999999999997	0.4	Probable_Truth	LEFT	LEFT	1	755.1667999996425	72	2020-03-11 14:03:38.469742
27	Self	S200311	0.6666666666666666	2	1	1	2	0.6	1216.6666691	1216.6666691	1500.000003	1933.3333372	Major	Good_deeds	38	You have volunteered for a disaster-related humanitarian mission	C1_13	0.65	Easy	I1_53	35	A square has 3 corners	0.0	No	RIGHT	973.3451000001878	LEFT	256.5650999999889	RIGHT	1564.893100000063	LEFT	1279.2567999999849	16.699999999999996	0.6	Probable_Lie	LEFT	LEFT	6	1046.9127000001208	73	2020-03-11 14:04:02.029484
83	Self	S200311	0.8333333333333334	1	2	1	2	0.5	1000.000002	1000.000002	1783.3333369	1500.000003	Minor	Good_deeds	33	You have stopped using plastics completely	C2_33	1.0	Easy	I2_56	31	Obama is the USA president now	0.166666666666667	No	RIGHT	79.16579999982787	RIGHT	402.9947999997603	RIGHT	2847.2233000002234	LEFT	1407.984099999794	17.199999999999996	0.5	Probable_Truth	LEFT	LEFT	1	473.2680000001892	74	2020-03-11 14:04:25.095205
55	Self	S200311	0.5	1	2	2	1	0.5	1433.3333362	1283.3333359	2500.000005	2066.6666708	Minor	Good_deeds	25	You have organized a violent protest	C1_19	0.85	Hard	I2_31	28	Algeria is Africa's second largest country	0.833333333333333	Yes	RIGHT	942.4208999998882	RIGHT	421.63280000022496	LEFT	1167.2330999999758	LEFT	2972.998400000052	17.699999999999996	0.5	Probable_Truth	LEFT	RIGHT	5	1978.6583000000064	75	2020-03-11 14:04:52.437027
87	Self	S200311	0.8333333333333334	1	2	2	1	0.7	1500.000003	1350.0000027	1933.3333372	1650.0000033	Major	Wrong_doings	54	You have volunteered every week for many years	C1_49	0.05	Easy	I1_31	56	Septicemia is a lung infection condition	0.722222222222222	Yes	RIGHT	289.07840000010765	RIGHT	356.0840999998618	RIGHT	3055.960099999993	LEFT	1456.5526000001228	18.399999999999995	0.7	Probable_Truth	LEFT	LEFT	1	518.1404999998449	76	2020-03-11 14:05:17.118017
14	Self	S200311	0.5	2	1	2	1	0.8	1283.3333359	1350.0000027	2500.000005	2066.6666708	Major	Wrong_doings	45	You have started a hotline for victims of bully	C1_51	0.85	Easy	I1_50	50	There are 10 continents in the World	0.833333333333333	Yes	RIGHT	365.3271999996832	RIGHT	247.44860000009797	LEFT	2287.768099999994	LEFT	1087.576700000227	19.2	0.8	Probable_Truth	LEFT	RIGHT	6	1996.741099999781	77	2020-03-11 14:05:42.878175
51	Self	S200311	0.5	1	2	1	2	0.4	1216.6666691	1000.000002	2066.6666708	1783.3333369	Major	Wrong_doings	29	You have done something against your values	C1_50	0.1	Hard	I1_1	50	Singapore ranked 8th in World's smallest countries	0.0	Yes	RIGHT	264.3654999997125	LEFT	1020.2275999999983	LEFT	1546.9715000003816	RIGHT	2687.026099999912	18.8	0.4	Probable_Lie	RIGHT	LEFT	4	1070.855599999959	78	2020-03-11 14:06:08.110338
130	Computer	S200311	0.8333333333333334	1	2	1	2	0.3	1000.000002	1500.000003	2066.6666708	2216.6666711000003	Major	Wrong_doings	46	You have a non-judgmental attitude towards everyone	C2_52	0.25	Easy	I2_39	44	Marijuana is legal in Singapore	0.0	No	LEFT	303.8888999999472	RIGHT	667.3469000002115	RIGHT	1752.0708000001832	LEFT	1295.566400000098	18.8	0.3	Probable_Truth	RIGHT	LEFT	1	995.0705258383298	79	2020-03-11 14:06:32.486354
100	Computer	S200311	0.5	1	2	2	1	0.3	1000.000002	1066.6666688	1500.000003	1500.000003	Major	Wrong_doings	40	You have given way to the handicapped	C1_17	0.0	Hard	I1_3	26	Astatine is the rarest element in the Earth's crust	0.111111111111111	No	LEFT	296.017799999845	LEFT	350.85380000009536	RIGHT	1303.4812999999303	LEFT	2158.770799999729	18.8	0.3	Probable_Lie	LEFT	LEFT	6	763.3525100702465	80	2020-03-11 14:06:54.996856
56	Self	S200311	0.5	2	1	1	2	0.4	1150.0000023	1216.6666691	1933.3333372	1650.0000033	Major	Good_deeds	43	You have signed up as a bone marrow donor	C1_31	0.0	Hard	I2_12	12	R. Amundsen discovered the South Pole	0.0	No	RIGHT	938.8917999999647	LEFT	256.02089999983946	RIGHT	1399.6870999999371	LEFT	1125.6537999997818	18.4	0.4	Probable_Lie	LEFT	LEFT	5	2375.9948000001714	81	2020-03-11 14:07:19.622300
71	Self	S200311	0.6666666666666666	1	2	2	1	0.7	1283.3333359	1433.3333362	2350.0000047	1933.3333372	Major	Good_deeds	37	You have participated in a scamming business	C1_27	1.0	Hard	I1_38	47	Feijoa is a type of grape	0.0555555555555556	Yes	RIGHT	241.1536999998134	LEFT	1179.6629000000394	LEFT	1016.3320000001476	LEFT	2029.168000000027	17.7	0.7	Probable_Lie	RIGHT	RIGHT	1	747.3282999999356	82	2020-03-11 14:07:44.406996
19	Self	S200311	0.6666666666666666	1	2	1	2	0.3	1216.6666691	1500.000003	1783.3333369	2066.6666708	Major	Wrong_doings	36	You have queued to enter the MRT train	C1_36	0.85	Hard	I1_57	45	Earth's atmosphere extends up to 10,000km into space	0.833333333333333	Yes	RIGHT	359.8364999998012	RIGHT	330.177399999684	RIGHT	1455.1401999997324	RIGHT	1846.4004999996175	18.0	0.3	Probable_Truth	LEFT	LEFT	2	1705.0512999999228	83	2020-03-11 14:08:09.245104
97	Computer	S200311	0.5	1	2	1	2	0.6	1283.3333359	1216.6666691	2216.6666711000003	2350.0000047	Major	Wrong_doings	42	You have taken part in violent demonstration	C1_15	0.55	Easy	I2_60	46	It takes 112 years to build the Pisa Tower	0.666666666666667	No	LEFT	136.62139999996725	RIGHT	630.5993000000853	LEFT	1490.534900000057	RIGHT	2175.735300000269	18.0	0.6	Probable_Truth	RIGHT	LEFT	3	835.9005423732522	84	2020-03-11 14:08:34.150812
64	Self	S200311	0.6666666666666666	1	2	1	2	0.2	1216.6666691	1283.3333359	1500.000003	1783.3333369	Major	Good_deeds	48	You have thrown your trash into the bin	C2_27	0.7	Easy	I1_8	8	There are 30 hours in a day	0.0555555555555556	No	RIGHT	200.741200000266	RIGHT	515.9129999997276	RIGHT	1762.8389000001334	LEFT	1025.2169000000322	18.2	0.2	Probable_Truth	RIGHT	RIGHT	4	963.3727999998882	85	2020-03-11 14:08:56.974274
77	Self	S200311	0.6666666666666666	2	1	2	1	0.1	1066.6666688	1000.000002	1500.000003	2216.6666711000003	Major	Wrong_doings	17	You have taken months off to volunteer	C2_24	0.55	Hard	I2_8	8	Singapore has four seasons	0.777777777777778	No	RIGHT	597.2233999996206	RIGHT	536.2098999999034	LEFT	1863.911299999927	LEFT	1537.663000000066	18.3	0.1	Probable_Truth	RIGHT	RIGHT	3	788.7295000000449	86	2020-03-11 14:09:20.652991
4	Self	S200311	0.5	1	2	2	1	0.5	1066.6666688	1066.6666688	1650.0000033	1500.000003	Major	Wrong_doings	40	You have given way to the handicapped	C1_17	0.0	Hard	I1_3	26	Astatine is the rarest element in the Earth's crust	0.111111111111111	No	RIGHT	199.66649999969377	RIGHT	294.7703000004367	RIGHT	935.6687000004058	LEFT	1180.7466000000204	18.8	0.5	Probable_Truth	RIGHT	LEFT	2	1864.7636000000605	87	2020-03-11 14:09:42.991315
29	Self	S200311	0.6666666666666666	2	1	2	1	0.1	1433.3333362	1066.6666688	2216.6666711000003	2216.6666711000003	Minor	Wrong_doings	22	You have stolen something	C1_22	0.2	Easy	I1_10	4	There are 20 bones in the human skull	0.0	Yes	RIGHT	1104.590399999779	LEFT	151.35629999986122	LEFT	751.2560000000121	RIGHT	2431.309400000373	18.7	0.1	Probable_Lie	RIGHT	LEFT	6	628.2269000002998	88	2020-03-11 14:10:07.565208
81	Self	S200311	0.8333333333333334	1	2	1	2	0.1	1350.0000027	1216.6666691	2350.0000047	2350.0000047	Major	Good_deeds	39	You have intentionally let others cut in line	C2_18	0.85	Hard	I2_59	59	The human's inner ear is larger than a pencil eraser	0.666666666666667	No	RIGHT	384.4931999997243	LEFT	923.5021999998024	LEFT	2506.861699999717	RIGHT	3590.982000000168	18.6	0.1	Probable_Lie	RIGHT	LEFT	4	1593.235199999981	89	2020-03-11 14:10:36.406154
139	Computer	S200311	0.8333333333333334	2	1	1	2	0.6	1433.3333362	1350.0000027	2216.6666711000003	1783.3333369	Minor	Good_deeds	40	You have deceived a loved one	C2_3	0.0	Hard	I1_25	25	It sometimes snows in Singapore	0.944444444444444	No	LEFT	367.7542000000358	LEFT	159.77320000001782	LEFT	923.1690999999956	LEFT	935.5787999998028	18.6	0.6	Probable_Lie	RIGHT	LEFT	4	514.106435362314	90	2020-03-11 14:10:58.660949
8	Self	S200311	0.5	2	1	1	2	0.7	1066.6666688	1216.6666691	1783.3333369	1783.3333369	Minor	Wrong_doings	43	You have confessed to your mistake	C1_5	0.7	Easy	I1_27	27	The Eiffel Tower is in Paris	0.0	No	RIGHT	1242.9359000002478	LEFT	175.82760000004782	RIGHT	1745.9434000002148	RIGHT	2071.6662999998334	17.9	0.7	Probable_Lie	RIGHT	RIGHT	1	881.9880999999441	91	2020-03-11 14:11:23.205316
54	Self	S200311	0.5	1	2	2	1	0.3	1350.0000027	1350.0000027	2350.0000047	1500.000003	Minor	Wrong_doings	44	You have helped with household chores	C2_57	0.0	Easy	I1_52	1	Today is Sunday	0.777777777777778	No	RIGHT	294.9871000000712	LEFT	1137.682600000062	RIGHT	991.3557999998376	LEFT	1062.2948999998698	17.599999999999998	0.3	Probable_Lie	LEFT	RIGHT	3	998.6041000001932	92	2020-03-11 14:11:46.813508
135	Computer	S200311	0.8333333333333334	1	2	2	1	0.1	1283.3333359	1350.0000027	1933.3333372	1650.0000033	Minor	Good_deeds	3	You have engaged in arson	C2_23	0.65	Hard	I2_41	17	Arabi is the oldest surviving breed of horse	0.0	Yes	LEFT	177.23649999970803	RIGHT	528.6295999999311	LEFT	935.6681000003846	LEFT	1870.9164000001688	17.599999999999998	0.1	Probable_Truth	RIGHT	RIGHT	3	667.9251457101332	93	2020-03-11 14:12:09.782441
52	Self	S200311	0.5	1	2	2	1	0.8	1283.3333359	1433.3333362	1500.000003	2216.6666711000003	Major	Good_deeds	50	You have stopped using products tested on animals	C2_48	0.95	Easy	I2_28	39	Teddy Roosevelt was the youngest US President	0.944444444444444	Yes	RIGHT	751.8005000001722	LEFT	1188.926100000117	RIGHT	1608.1529000002774	LEFT	1864.331199999924	16.799999999999997	0.8	Probable_Lie	LEFT	RIGHT	3	2402.98490000032	94	2020-03-11 14:12:36.605327
110	Computer	S200311	0.5	2	1	2	1	0.6	1350.0000027	1350.0000027	1500.000003	1933.3333372	Major	Wrong_doings	45	You have started a hotline for victims of bully	C1_51	0.85	Easy	I1_50	50	There are 10 continents in the World	0.833333333333333	Yes	RIGHT	695.6359000000703	LEFT	648.5168999997768	LEFT	1847.892100000081	LEFT	834.9380999998175	16.199999999999996	0.6	Probable_Truth	RIGHT	RIGHT	5	974.4048697681176	95	2020-03-11 14:13:00.302304
53	Self	S200311	0.5	1	2	2	1	0.6	1000.000002	1216.6666691	1783.3333369	2500.000005	Minor	Wrong_doings	57	You have eaten something in the MRT train	C2_9	0.9	Hard	I1_29	31	Summer is hotter than winter	0.0	No	RIGHT	456.3645000002907	LEFT	802.5476999996499	LEFT	1078.8933999997423	RIGHT	1413.3667999999489	15.599999999999996	0.6	Probable_Lie	LEFT	RIGHT	2	841.9527000000926	96	2020-03-11 14:13:55.381262
30	Self	S200311	0.6666666666666666	2	1	2	1	0.8	1500.000003	1283.3333359	2066.6666708	2350.0000047	Minor	Good_deeds	13	You have lied to your parents	C2_47	0.0	Easy	I2_13	11	Mexico's National Day is September 16	0.888888888888889	Yes	RIGHT	389.2031999998835	RIGHT	320.7228999999643	LEFT	1120.4741999999897	LEFT	2043.92770000004	16.399999999999995	0.8	Probable_Truth	LEFT	LEFT	1	576.9405000000916	97	2020-03-11 14:14:19.604569
128	Computer	S200311	0.8333333333333334	1	2	1	2	0.8	1433.3333362	1066.6666688	2500.000005	1783.3333369	Major	Good_deeds	23	You have sorted your trash into recycling bin	C1_57	0.85	Easy	I2_36	36	Mageirocophobia is a fear of deathly disease	0.944444444444444	No	LEFT	193.16120000030423	LEFT	664.7726000001057	RIGHT	1577.482200000304	LEFT	1975.605500000256	16.399999999999995	0.8	Probable_Lie	LEFT	LEFT	6	784.0309979464932	98	2020-03-11 14:14:44.149112
49	Self	S200311	0.5	1	2	1	2	0.7	1066.6666688	1066.6666688	1933.3333372	2350.0000047	Major	Good_deeds	19	You have said sorry when you were rude	C1_29	0.0	Easy	I2_46	52	South East Asia is currently free from polio	0.0	Yes	RIGHT	167.62370000014926	RIGHT	332.3008000002119	RIGHT	1349.189899999601	LEFT	2512.976399999843	17.099999999999994	0.7	Probable_Truth	LEFT	LEFT	3	1138.3567000002586	99	2020-03-11 14:15:08.637993
33	Self	S200311	0.8333333333333334	1	2	1	2	0.1	1150.0000023	1000.000002	2350.0000047	1650.0000033	Major	Good_deeds	57	You have watched an M18 movie when you were underage	C2_53	0.05	Easy	I1_26	21	A triangle has three sides	0.0	Yes	RIGHT	446.8899000003148	LEFT	1234.895300000062	LEFT	1616.708600000038	RIGHT	1344.3194000001313	16.999999999999993	0.1	Probable_Lie	LEFT	LEFT	6	546.4950999999019	100	2020-03-11 14:15:32.549970
80	Self	S200311	0.8333333333333334	1	2	1	2	0.8	1216.6666691	1066.6666688	2500.000005	2500.000005	Minor	Good_deeds	29	You have borrowed things and never returned	C2_29	0.0	Hard	I1_23	36	China is a part of Asia	0.0	Yes	RIGHT	128.48230000008698	RIGHT	429.5225999999275	LEFT	1531.734900000174	RIGHT	1471.948099999736	17.799999999999994	0.8	Probable_Truth	LEFT	LEFT	1	785.0368999997954	101	2020-03-11 14:15:56.756955
48	Self	S200311	0.5	1	2	1	2	0.2	1150.0000023	1500.000003	1650.0000033	1933.3333372	Minor	Wrong_doings	9	You have kidnapped someone	C2_25	1.0	Easy	I2_50	46	December is the last month of the year	0.0	No	RIGHT	559.7523999999794	RIGHT	447.8588000001764	LEFT	860.3857999996762	RIGHT	1096.363200000269	17.999999999999993	0.2	Probable_Truth	RIGHT	RIGHT	5	831.4713999998276	102	2020-03-11 14:16:19.356937
42	Self	S200311	0.8333333333333334	2	1	1	2	0.3	1000.000002	1500.000003	1650.0000033	2350.0000047	Major	Good_deeds	8	You have taken responsibility for your actions	C2_58	0.0	Easy	I2_51	54	Cleopatra was born in Greece	0.0555555555555556	No	RIGHT	294.7245999998813	RIGHT	216.376400000172	RIGHT	1770.0214999999844	LEFT	1608.5748000000422	18.299999999999997	0.3	Probable_Truth	LEFT	LEFT	1	478.372600000057	103	2020-03-11 14:16:42.797850
18	Self	S200311	0.6666666666666666	1	2	1	2	0.4	1150.0000023	1350.0000027	2500.000005	1783.3333369	Minor	Good_deeds	60	You have sheltered others from disasters	C2_60	0.95	Hard	I1_12	57	February has 30 days	1.0	Yes	RIGHT	343.5832999998638	RIGHT	332.93559999992794	RIGHT	1155.377900000076	LEFT	798.3271999996759	18.699999999999992	0.4	Probable_Truth	RIGHT	RIGHT	4	949.4715999999244	104	2020-03-11 14:17:05.734122
11	Self	S200311	0.5	2	1	1	2	0.4	1216.6666691	1066.6666688	1500.000003	2216.6666711000003	Major	Good_deeds	24	You have kept your promises	C2_10	0.05	Easy	I2_11	5	It is night time now	0.944444444444444	Yes	RIGHT	325.03459999998086	RIGHT	223.6109000000397	RIGHT	1016.3939999997638	LEFT	695.4853000002004	19.09999999999999	0.4	Probable_Truth	LEFT	LEFT	3	1464.2115000001468	105	2020-03-11 14:17:28.037944
9	Self	S200311	0.5	2	1	1	2	0.6	1150.0000023	1283.3333359	2216.6666711000003	1500.000003	Minor	Wrong_doings	26	You have been sued	C2_46	0.0	Easy	I1_2	60	There are 6 million animal species on Earth	0.888888888888889	No	RIGHT	351.785899999868	RIGHT	296.8737000001056	LEFT	892.4007999999048	RIGHT	944.203799999741	19.699999999999992	0.6	Probable_Truth	LEFT	LEFT	2	1966.7760999996065	106	2020-03-11 14:17:51.212569
82	Self	S200311	0.8333333333333334	1	2	1	2	0.6	1433.3333362	1433.3333362	2216.6666711000003	2066.6666708	Minor	Good_deeds	49	You have been convicted in court	C1_23	0.7	Hard	I1_36	23	Kangaroos live in Africa	0.0	No	RIGHT	248.32140000035	RIGHT	384.7091000002365	LEFT	909.744000000046	RIGHT	2112.325399999918	20.299999999999997	0.6	Probable_Truth	RIGHT	RIGHT	5	668.8785999999709	107	2020-03-11 14:18:15.260677
94	Self	S200311	0.8333333333333334	2	1	2	1	0.2	1283.3333359	1433.3333362	1783.3333369	1650.0000033	Minor	Good_deeds	60	You have been arrested	C1_33	0.45	Easy	I2_24	48	Lehman Brothers went bankrupt on 20th September	0.0	Yes	RIGHT	370.0047000002087	RIGHT	519.266200000402	LEFT	855.8524000000034	LEFT	2421.176800000012	20.499999999999996	0.2	Probable_Truth	LEFT	LEFT	1	585.2755000000798	108	2020-03-11 14:18:38.740641
50	Self	S200311	0.5	1	2	1	2	0.1	1500.000003	1150.0000023	2216.6666711000003	1650.0000033	Major	Good_deeds	48	You have risked your life to save another person's life	C1_44	0.05	Hard	I1_39	29	Christmas Day is in March	0.833333333333333	No	RIGHT	336.0509999997703	LEFT	591.8494000002283	RIGHT	1493.8312999997834	LEFT	1296.59219999985	20.39999999999999	0.1	Probable_Lie	LEFT	RIGHT	3	949.588500000118	109	2020-03-11 14:19:02.502261
22	Self	S200311	0.6666666666666666	1	2	2	1	0.8	1066.6666688	1150.0000023	2216.6666711000003	2216.6666711000003	Major	Good_deeds	11	You have sold illegal drugs	C1_11	0.15	Easy	I1_13	30	Vegetarians can eat vegetable products	0.0	No	RIGHT	360.7296000000133	RIGHT	406.02320000016334	LEFT	1174.9644000001354	RIGHT	983.2648000001428	21.199999999999992	0.8	Probable_Truth	LEFT	LEFT	1	836.7137999998704	110	2020-03-11 14:19:25.493587
57	Self	S200311	0.5	2	1	1	2	0.5	1433.3333362	1433.3333362	2216.6666711000003	2500.000005	Major	Good_deeds	34	You have cursed at your loved ones	C2_16	0.2	Easy	I2_27	24	Dutch is the 6th Europe's most widely spoken language	0.833333333333333	Yes	RIGHT	1273.0654000001778	LEFT	104.16159999977026	LEFT	1052.8941000002303	LEFT	1735.4230999999345	20.699999999999992	0.5	Probable_Lie	LEFT	RIGHT	3	947.1261999997296	111	2020-03-11 14:19:50.764792
101	Computer	S200311	0.5	1	2	2	1	0.2	1350.0000027	1350.0000027	1650.0000033	2500.000005	Minor	Good_deeds	17	You have attended all lectures as a student	C2_40	0.05	Hard	I1_19	43	Milwaukee Art Museum is located in California	0.0	Yes	LEFT	351.33559999985664	LEFT	388.5377999999946	RIGHT	1087.91680000013	LEFT	1390.0583999998162	20.699999999999992	0.2	Probable_Lie	RIGHT	RIGHT	2	700.290571388538	112	2020-03-11 14:20:14.103860
74	Self	S200311	0.6666666666666666	2	1	1	2	0.6	1000.000002	1150.0000023	2066.6666708	1783.3333369	Minor	Good_deeds	1	You have bribed a police officer	C2_34	0.95	Easy	I2_18	6	Carnivore refers to meat-eater	0.0	No	RIGHT	958.8725999997224	LEFT	221.33450000001176	LEFT	892.5141999998232	RIGHT	1640.1959999998326	20.09999999999999	0.6	Probable_Lie	RIGHT	RIGHT	2	608.2146999997349	113	2020-03-11 14:20:36.996672
28	Self	S200311	0.6666666666666666	2	1	2	1	0.2	1283.3333359	1500.000003	1783.3333369	2500.000005	Minor	Wrong_doings	1	You have followed instructions	C2_38	0.05	Hard	I2_2	44	Beer is an alcoholic drink	0.0	Yes	RIGHT	409.8815000002105	RIGHT	344.30489999977	RIGHT	1200.1578999997946	RIGHT	950.1156999999694	20.29999999999999	0.2	Probable_Lie	LEFT	LEFT	3	793.4431000003315	114	2020-03-11 14:21:00.332516
134	Computer	S200311	0.8333333333333334	1	2	2	1	0.5	1500.000003	1216.6666691	2216.6666711000003	2350.0000047	Minor	Good_deeds	53	You have helped a friend in need	C1_3	0.0	Hard	I1_17	26	A dog has four legs	0.611111111111111	No	LEFT	265.0932000001376	RIGHT	837.0414000000892	RIGHT	872.0241000000897	RIGHT	1052.0599000001312	20.29999999999999	0.5	Probable_Truth	RIGHT	RIGHT	5	827.0636014381172	115	2020-03-11 14:21:24.045266
95	Self	S200311	0.8333333333333334	2	1	2	1	0.7	1000.000002	1350.0000027	1650.0000033	2216.6666711000003	Major	Wrong_doings	50	You have helped others to pick up their belongings	C1_6	1.0	Hard	I1_32	38	The Seine river is 50 feet above sea level	0.888888888888889	Yes	RIGHT	1183.9899000001424	LEFT	360.7963999997992	RIGHT	1423.1027999999242	LEFT	1578.097600000092	19.59999999999999	0.7	Probable_Lie	RIGHT	RIGHT	1	641.1941000001207	116	2020-03-11 14:21:48.020484
98	Computer	S200311	0.5	1	2	1	2	0.8	1433.3333362	1000.000002	1933.3333372	1933.3333372	Major	Good_deeds	2	You have gossiped about your best friend	C2_30	0.0	Easy	I1_46	22	Cheese is an Asian staple	0.888888888888889	Yes	RIGHT	710.816799999975	RIGHT	618.1179999998676	LEFT	1059.9056000000928	LEFT	917.4152000000504	20.39999999999999	0.8	Probable_Truth	LEFT	RIGHT	5	501.4460400915482	117	2020-03-11 14:22:10.701276
125	Computer	S200311	0.6666666666666666	2	1	2	1	0.7	1150.0000023	1150.0000023	2066.6666708	2216.6666711000003	Minor	Wrong_doings	22	You have stolen something	C1_22	0.2	Easy	I1_10	4	There are 20 bones in the human skull	0.0	Yes	LEFT	738.4784000000764	RIGHT	183.83349999976417	LEFT	1047.301000000061	LEFT	2174.420100000134	20.39999999999999	0.7	Probable_Truth	LEFT	LEFT	2	885.8635904970813	118	2020-03-11 14:22:34.886268
31	Self	S200311	0.6666666666666666	2	1	2	1	0.4	1350.0000027	1000.000002	1650.0000033	1783.3333369	Major	Good_deeds	58	You have extorted money from anyone	C2_7	0.95	Hard	I1_35	2	French is Singapore's official language	0.0	No	RIGHT	318.5892999999851	RIGHT	280.96259999983886	LEFT	887.9643999998734	LEFT	1393.2215999998334	20.79999999999999	0.4	Probable_Lie	LEFT	LEFT	3	590.7859999997527	119	2020-03-11 14:22:56.716873
103	Computer	S200311	0.5	1	2	2	1	0.7	1500.000003	1500.000003	2500.000005	1783.3333369	Major	Wrong_doings	59	You have fabricated facts about yourself	C1_47	1.0	Hard	I1_43	60	Red is a color	0.0	Yes	LEFT	193.28459999996997	RIGHT	631.8393999999898	LEFT	1542.204099999708	RIGHT	1561.3326999996389	20.79999999999999	0.7	Probable_Truth	RIGHT	RIGHT	4	939.9860641785118	120	2020-03-11 14:23:21.436946
85	Self	S200311	0.8333333333333334	1	2	2	1	0.4	1066.6666688	1150.0000023	2066.6666708	1933.3333372	Minor	Wrong_doings	4	You have said thank you when you have received help	C1_39	0.15	Easy	I1_14	40	Bears have the biggest eyes among mammals	0.0	Yes	RIGHT	1297.072500000013	RIGHT	652.8673000002527	RIGHT	1103.4871000001658	LEFT	2877.343799999835	21.19999999999999	0.4	Probable_Lie	LEFT	LEFT	5	839.6606000001157	121	2020-03-11 14:23:46.997701
32	Self	S200311	0.8333333333333334	1	2	1	2	0.6	1216.6666691	1350.0000027	1500.000003	2500.000005	Major	Good_deeds	23	You have sorted your trash into recycling bin	C1_57	0.85	Easy	I2_36	36	Mageirocophobia is a fear of deathly disease	0.944444444444444	No	RIGHT	304.6819000001051	RIGHT	356.6952000001038	RIGHT	1278.5449999996672	LEFT	2056.257499999901	21.79999999999999	0.6	Probable_Lie	LEFT	LEFT	2	544.329899999866	122	2020-03-11 14:24:10.676822
37	Self	S200311	0.8333333333333334	1	2	2	1	0.2	1500.000003	1283.3333359	2216.6666711000003	2066.6666708	Major	Wrong_doings	11	You have cheated on a national exam	C1_7	0.0	Hard	I2_21	39	Africa is the continent with the least rainfall	0.722222222222222	Yes	RIGHT	1048.9583999997194	RIGHT	503.6914000002071	RIGHT	1047.8871000000254	RIGHT	2077.9206000001977	21.99999999999999	0.2	Probable_Truth	RIGHT	RIGHT	3	894.7927999997773	123	2020-03-11 14:24:35.893258
40	Self	S200311	0.8333333333333334	2	1	1	2	0.2	1433.3333362	1150.0000023	2216.6666711000003	2066.6666708	Minor	Wrong_doings	58	You have been donating all your excess food to a food bank	C2_39	0.55	Hard	I1_54	51	The Amazon forest covers an area of 1 billion acres	0.777777777777778	No	RIGHT	975.7608999998412	LEFT	127.8305000000728	RIGHT	1144.017800000256	RIGHT	935.439000000315	21.79999999999999	0.2	Probable_Lie	RIGHT	RIGHT	1	881.0032999999748	124	2020-03-11 14:24:59.396487
34	Self	S200311	0.8333333333333334	1	2	1	2	0.7	1066.6666688	1216.6666691	2066.6666708	1500.000003	Major	Wrong_doings	46	You have a non-judgmental attitude towards everyone	C2_52	0.25	Easy	I2_39	44	Marijuana is legal in Singapore	0.0	No	RIGHT	312.00650000027963	RIGHT	358.36079999990034	RIGHT	1318.8199999999597	LEFT	919.6885999999722	22.49999999999999	0.7	Probable_Lie	LEFT	LEFT	3	539.9515999997675	125	2020-03-11 14:25:21.268926
5	Self	S200311	0.5	1	2	2	1	0.3	1150.0000023	1350.0000027	1933.3333372	1783.3333369	Minor	Good_deeds	17	You have attended all lectures as a student	C2_40	0.05	Hard	I1_19	43	Milwaukee Art Museum is located in California	0.0	Yes	RIGHT	304.4310000000223	LEFT	965.311300000394	RIGHT	1046.9576000000416	LEFT	1098.4834000000774	22.19999999999999	0.3	Probable_Lie	RIGHT	RIGHT	3	947.9664000000412	126	2020-03-11 14:25:44.419572
60	Self	S200311	0.5	2	1	2	1	0.3	1216.6666691	1066.6666688	1783.3333369	1500.000003	Minor	Good_deeds	8	You have blackmailed others for money	C1_30	1.0	Hard	I1_33	4	Singapore is in Africa	0.888888888888889	No	RIGHT	1233.9004999998906	LEFT	512.1514000002207	LEFT	1016.5610000003652	LEFT	861.8108000000575	21.899999999999988	0.3	Probable_Lie	RIGHT	RIGHT	2	938.0969999997432	127	2020-03-11 14:26:07.124615
38	Self	S200311	0.8333333333333334	1	2	2	1	0.4	1433.3333362	1500.000003	1783.3333369	1933.3333372	Minor	Good_deeds	53	You have helped a friend in need	C1_3	0.0	Hard	I1_17	26	A dog has four legs	0.611111111111111	No	RIGHT	375.9924000000865	LEFT	1129.94690000005	RIGHT	743.6694999996689	RIGHT	771.5028000002349	21.49999999999999	0.4	Probable_Truth	LEFT	RIGHT	4	642.3890000000938	128	2020-03-11 14:26:30.012655
70	Self	S200311	0.6666666666666666	1	2	2	1	0.8	1433.3333362	1350.0000027	2066.6666708	2066.6666708	Minor	Wrong_doings	31	You have engaged in underage smoking	C1_37	0.0	Hard	I1_47	3	Chickens lay eggs	0.944444444444444	Yes	RIGHT	329.4297000002189	RIGHT	421.3426999999683	LEFT	2031.946600000083	RIGHT	1016.48460000024	22.29999999999999	0.8	Probable_Truth	LEFT	LEFT	1	656.7313999998987	129	2020-03-11 14:26:53.957130
13	Self	S200311	0.5	2	1	2	1	0.3	1000.000002	1000.000002	2066.6666708	2500.000005	Minor	Good_deeds	46	You have made someone cry	C1_24	0.05	Hard	I2_34	11	Afghan Hound is the first cloned cat	0.833333333333333	Yes	RIGHT	501.8385999997008	RIGHT	456.61280000012994	LEFT	1265.1403999998363	LEFT	1230.7466000002023	22.59999999999999	0.3	Probable_Truth	RIGHT	RIGHT	4	791.6403999997783	130	2020-03-11 14:27:17.341155
21	Self	S200311	0.6666666666666666	1	2	2	1	0.1	1433.3333362	1000.000002	1650.0000033	1650.0000033	Major	Wrong_doings	6	You have faked an illness	C1_38	1.0	Hard	I2_55	16	Cernan was the second last man to walk on the Moon	0.888888888888889	Yes	RIGHT	272.5247999997009	RIGHT	404.8814999996466	LEFT	912.5232000001232	LEFT	2832.8354000000218	22.699999999999992	0.1	Probable_Truth	LEFT	LEFT	2	780.9267000002365	131	2020-03-11 14:27:40.852701
119	Computer	S200311	0.6666666666666666	1	2	2	1	0.3	1066.6666688	1500.000003	1783.3333369	1650.0000033	Minor	Wrong_doings	16	You have started a movement to support a cause	C2_6	0.0	Easy	I1_45	55	The first Olympic Games was held in the 5th century B.C	0.0	No	LEFT	337.0428999996875	RIGHT	544.6781000000556	RIGHT	1992.4347000001037	LEFT	1527.473199999804	22.699999999999992	0.3	Probable_Truth	LEFT	RIGHT	5	549.2008961018917	132	2020-03-11 14:28:04.373330
143	Computer	S200311	0.8333333333333334	2	1	2	1	0.5	1000.000002	1500.000003	2066.6666708	1650.0000033	Minor	Wrong_doings	28	You have drunk alcohol when you were underage	C1_28	0.65	Hard	I2_54	33	The current century is 21st	0.0	No	RIGHT	741.9448999999076	RIGHT	607.7430000000277	LEFT	1095.462199999929	RIGHT	920.1864999999998	23.199999999999992	0.5	Probable_Lie	RIGHT	LEFT	4	560.9367905996854	133	2020-03-11 14:28:27.092750
104	Computer	S200311	0.5	2	1	1	2	0.7	1066.6666688	1216.6666691	2350.0000047	2350.0000047	Minor	Wrong_doings	43	You have confessed to your mistake	C1_5	0.7	Easy	I1_27	27	The Eiffel Tower is in Paris	0.0	No	LEFT	954.769899999974	LEFT	217.52280000009705	RIGHT	1043.0665999997473	RIGHT	767.7668999999696	23.199999999999992	0.7	Probable_Lie	LEFT	LEFT	6	721.6748413988477	134	2020-03-11 14:28:50.349417
26	Self	S200311	0.6666666666666666	2	1	1	2	0.5	1150.0000023	1150.0000023	2500.000005	1500.000003	Minor	Wrong_doings	7	You have complimented others for good work	C1_58	1.0	Easy	I2_4	10	Polish is 20th most spoken language in the World	1.0	No	RIGHT	2061.85510000023	RIGHT	263.7573000001794	RIGHT	858.5648000002948	RIGHT	1672.4491999998463	23.699999999999992	0.5	Probable_Lie	LEFT	LEFT	4	759.9919999997837	135	2020-03-11 14:29:14.844917
91	Self	S200311	0.8333333333333334	2	1	1	2	0.5	1350.0000027	1500.000003	2500.000005	1933.3333372	Minor	Good_deeds	13	You have failed to keep promises	C2_35	0.0	Hard	I1_9	35	Beef comes from cows	0.0	Yes	RIGHT	357.0296999996572	RIGHT	303.6258000001908	LEFT	1172.2854999998162	RIGHT	1425.3420999998525	24.199999999999992	0.5	Probable_Truth	RIGHT	RIGHT	6	677.0700999995825	136	2020-03-11 14:29:38.637085
115	Computer	S200311	0.6666666666666666	1	2	1	2	0.6	1283.3333359	1433.3333362	1500.000003	2350.0000047	Major	Wrong_doings	36	You have queued to enter the MRT train	C1_36	0.85	Hard	I1_57	45	Earth's atmosphere extends up to 10,000km into space	0.833333333333333	Yes	LEFT	112.72469999994428	LEFT	528.4080000001268	RIGHT	894.0457999997307	RIGHT	791.2352999996983	24.199999999999992	0.6	Probable_Lie	LEFT	RIGHT	2	849.9850754008023	137	2020-03-11 14:30:00.957089
93	Self	S200311	0.8333333333333334	2	1	2	1	0.3	1500.000003	1000.000002	1933.3333372	2500.000005	Major	Good_deeds	33	You have violated a traffic law	C1_60	0.0	Hard	I2_48	24	Today is a weekday	0.611111111111111	No	RIGHT	476.7927999996573	RIGHT	710.72439999989	LEFT	791.1721999998917	RIGHT	1207.0427000003292	24.499999999999996	0.3	Probable_Truth	LEFT	LEFT	1	673.7829999997302	138	2020-03-11 14:30:24.323782
7	Self	S200311	0.5	1	2	2	1	0.1	1000.000002	1283.3333359	2350.0000047	2350.0000047	Major	Wrong_doings	59	You have fabricated facts about yourself	C1_47	1.0	Hard	I1_43	60	Red is a color	0.0	Yes	LEFT	41.00860000016837	LEFT	826.7789000001358	LEFT	968.66910000017	RIGHT	756.213800000296	24.499999999999996	0.1	Probable_Lie	RIGHT	RIGHT	1	963.3832999998048	139	2020-03-11 14:30:47.436511
123	Computer	S200311	0.6666666666666666	2	1	1	2	0.6	1066.6666688	1350.0000027	1500.000003	1500.000003	Major	Good_deeds	38	You have volunteered for a disaster-related humanitarian mission	C1_13	0.65	Easy	I1_53	35	A square has 3 corners	0.0	No	LEFT	557.1953000003305	LEFT	73.80150000017238	RIGHT	1438.964699999815	LEFT	895.3615000000354	24.499999999999996	0.6	Probable_Lie	RIGHT	LEFT	4	779.7920113942295	140	2020-03-11 14:31:09.173411
129	Computer	S200311	0.8333333333333334	1	2	1	2	0.7	1150.0000023	1000.000002	1650.0000033	2066.6666708	Major	Good_deeds	57	You have watched an M18 movie when you were underage	C2_53	0.05	Easy	I1_26	21	A triangle has three sides	0.0	Yes	LEFT	120.34310000035477	RIGHT	748.7246000000596	LEFT	1839.461399999891	RIGHT	1063.5513000001993	24.499999999999996	0.7	Probable_Truth	LEFT	LEFT	1	729.3727230924569	141	2020-03-11 14:31:32.116917
88	Self	S200311	0.8333333333333334	2	1	1	2	0.6	1216.6666691	1150.0000023	2350.0000047	2066.6666708	Major	Good_deeds	6	You have let a homeless man into your house	C2_50	0.75	Easy	I2_38	32	The sun rises at night	1.0	No	RIGHT	1185.745400000087	LEFT	119.98189999985698	LEFT	2118.817800000216	LEFT	1191.0213000001022	23.89999999999999	0.6	Probable_Lie	RIGHT	RIGHT	1	1183.050000000094	142	2020-03-11 14:31:57.277073
46	Self	S200311	0.8333333333333334	2	1	2	1	0.6	1216.6666691	1283.3333359	2350.0000047	2500.000005	Major	Wrong_doings	19	You have adopted a zero-waste lifestyle	C1_53	0.05	Easy	I1_28	54	The first Grammy awards was held in 1959	0.0555555555555556	Yes	RIGHT	426.7064000000573	RIGHT	528.2204000000092	RIGHT	1359.9513999997723	LEFT	1031.1867999998867	24.499999999999996	0.6	Probable_Truth	LEFT	LEFT	1	784.2115000003105	143	2020-03-11 14:32:21.332069
