index	Trial_Type	Participant_ID	Trial_Probability	Question_Position_Prediction_Correct	Question_Position_Prediction_Agent	Question_Position_Comparison_Self	Question_Position_Comparison_Irrelevant	Trial_Stake	Trial_Stake_Jitter	Trial_Type_Jitter	Trial_Result_Jitter	Balance_Update_Jitter	Question_Comparison_Condition	Question_Comparison_Type	Question_Comparison_Question	Question_Comparison_Label	Question_Comparison_Item	Question_Comparison_Proportion_Yes	Question_Factual_Condition	Question_Factual_Item	Question_Factual_Question	Question_Factual_Label	Question_Factual_Proportion_DontKnow	Question_Factual_Type	Answer_Prediction_Correct	Answer_Prediction_Correct_RT	Answer_Prediction_Agent	Answer_Prediction_Agent_RT	Answer_Self	Answer_Self_RT	Answer_Irrelevant	Answer_Irrelevant_RT	Trial_Balance	Trial_Balance_Effect	Trial_Condition	Trial_ProbableSide	Prediction_Choice	Prediction_Result	Prediction_RT	Trial_Order	Trial_Datetime
66	Self	S200211	0.6666666666666666	1	2	1	2	0.2	1000.000002	1216.6666691	2350.0000047	1783.3333369	Minor	Wrong_doings	36	You have given up your seat in the MRT	C2_36	0.95	Easy	I1_53	45	The Moon orbits around the Earth	0.0	No	LEFT	468.0875999999898	RIGHT	448.2110000000148	RIGHT	1148.80009999996	LEFT	1624.0525000000048	9.8	0.2	Probable_Lie	RIGHT	RIGHT	1	532.2509000000082	0	2020-02-11 11:39:54.353456
64	Self	S200211	0.6666666666666666	1	2	1	2	0.5	1283.3333359	1433.3333362	1650.0000033	2350.0000047	Major	Good_deeds	3	You have volunteered every week for many years	C2_3	0.0	Easy	I2_3	16	Singapore is in Africa	0.833333333333333	No	LEFT	677.1269999999845	RIGHT	496.5519000000427	LEFT	1603.1202000000349	LEFT	1157.77700000001	9.3	0.5	Probable_Lie	LEFT	LEFT	5	625.8219000000054	1	2020-02-11 11:40:18.210151
117	Computer	S200211	0.6666666666666666	1	2	2	1	0.3	1150.0000023	1500.000003	2500.000005	2350.0000047	Minor	Good_deeds	27	You have told someone's secret to others	C1_59	0.95	Hard	I1_57	13	North Korea is more developed than South Korea	0.888888888888889	Yes	LEFT	265.1558000000023	LEFT	72.59959999998955	LEFT	2135.8184999999708	LEFT	1772.6943999999776	9.3	0.3	Probable_Lie	LEFT	RIGHT	1	507.9784128215435	2	2020-02-11 11:40:43.025864
141	Computer	S200211	0.8333333333333334	2	1	2	1	0.7	1000.000002	1350.0000027	2500.000005	1500.000003	Major	Good_deeds	33	You have organized a violent protest	C1_29	0.0	Easy	I2_50	19	Cheese is an Asian staple	0.0	Yes	RIGHT	232.17329999999947	RIGHT	655.7070999999723	LEFT	1239.631700000018	LEFT	1615.4162999999926	10.0	0.7	Probable_Lie	LEFT	LEFT	3	716.7429875857965	3	2020-02-11 11:41:06.401993
140	Computer	S200211	0.8333333333333334	2	1	2	1	0.8	1150.0000023	1216.6666691	2066.6666708	1933.3333372	Major	Good_deeds	44	You have lied to your parents	C1_33	0.0	Easy	I1_39	38	The first Olympic Games was held in the 5th century B.C	0.888888888888889	No	RIGHT	456.2508000000207	LEFT	753.8132999999902	RIGHT	1304.105399999969	LEFT	1493.5388000000105	10.0	0.8	Probable_Truth	RIGHT	RIGHT	3	795.9291208226861	4	2020-02-11 11:41:30.154060
61	Self	S200211	0.5	2	1	2	1	0.4	1150.0000023	1350.0000027	1650.0000033	2500.000005	Minor	Wrong_doings	52	You have borrowed things and never returned	C1_1	0.0	Hard	I1_12	11	There are 10 continents in the World	0.111111111111111	Yes	LEFT	1256.9934999999646	LEFT	1494.487700000036	LEFT	2040.183299999967	LEFT	1390.7811000000263	10.0	0.4	Probable_Lie	LEFT	RIGHT	1	1700.2747999999883	5	2020-02-11 11:41:57.259098
115	Computer	S200211	0.6666666666666666	1	2	1	2	0.2	1066.6666688	1150.0000023	1500.000003	1933.3333372	Major	Good_deeds	11	You have attended all lectures as a student	C1_35	0.45	Easy	I2_41	36	The Seine river is 50 feet above sea level	0.0555555555555556	No	LEFT	194.17699999996785	LEFT	71.94160000000238	RIGHT	1171.92730000005	RIGHT	1687.3419000000354	10.0	0.2	Probable_Lie	RIGHT	LEFT	5	672.4353816020291	6	2020-02-11 11:42:19.274325
60	Self	S200211	0.5	2	1	2	1	0.7	1500.000003	1216.6666691	1783.3333369	1500.000003	Minor	Wrong_doings	60	You have queued to enter the MRT train	C1_53	0.55	Easy	I2_8	44	A dog has four legs	0.888888888888889	Yes	LEFT	352.5518999999804	RIGHT	600.8939000000169	RIGHT	1048.7345999999889	RIGHT	1036.8307000000527	9.3	0.7	Probable_Lie	RIGHT	RIGHT	3	1477.73380000001	7	2020-02-11 11:42:42.362064
107	Computer	S200211	0.5	2	1	1	2	0.6	1066.6666688	1066.6666688	1783.3333369	2350.0000047	Minor	Good_deeds	23	You have rescued others from a catastrophe	C2_17	0.95	Easy	I1_52	10	French is Singapore's official language	0.0	Yes	LEFT	512.8008000000364	LEFT	227.5054999998929	RIGHT	1468.5089000000744	LEFT	999.7770999999602	9.3	0.6	Probable_Lie	RIGHT	LEFT	6	636.7748777355296	8	2020-02-11 11:43:05.041781
88	Self	S200211	0.8333333333333334	2	1	1	2	0.4	1500.000003	1433.3333362	1650.0000033	1933.3333372	Major	Good_deeds	45	You have helped with household chores	C2_16	1.0	Easy	I2_17	1	Marijuana is legal in Singapore	0.888888888888889	No	RIGHT	183.5611000000199	RIGHT	455.8820000000878	RIGHT	836.1002999999982	LEFT	1230.9285000000043	9.7	0.4	Probable_Truth	RIGHT	RIGHT	4	688.6229000000412	9	2020-02-11 11:43:27.530358
58	Self	S200211	0.5	2	1	1	2	0.6	1066.6666688	1000.000002	2066.6666708	2216.6666711000003	Major	Good_deeds	22	You have used heroin	C2_29	0.85	Hard	I2_11	8	Saturn's rings are between 30 and 300 feet thick	0.0	No	RIGHT	288.7249000000338	RIGHT	245.21480000009888	LEFT	809.1290999999501	LEFT	2551.5278999999964	10.3	0.6	Probable_Truth	LEFT	RIGHT	5	1539.4492000000355	10	2020-02-11 11:43:51.890165
53	Self	S200211	0.5	1	2	2	1	0.6	1433.3333362	1350.0000027	2500.000005	2350.0000047	Major	Wrong_doings	58	You have cheated on a national exam	C1_34	0.05	Hard	I1_35	13	February has 30 days	0.0	Yes	RIGHT	445.63000000005104	RIGHT	287.8623999999945	LEFT	1072.964299999967	LEFT	1043.237299999987	10.9	0.6	Probable_Lie	RIGHT	RIGHT	3	799.9303000000282	11	2020-02-11 11:44:15.744537
5	Self	S200211	0.5	1	2	2	1	0.7	1150.0000023	1500.000003	2350.0000047	1933.3333372	Minor	Good_deeds	48	You have provided shelter for stray animals	C2_39	0.65	Hard	I1_14	55	Algeria is Africa's second largest country	0.666666666666667	No	RIGHT	290.63719999999194	RIGHT	96.80890000004185	LEFT	1703.4403999999768	RIGHT	1820.6795999999488	11.6	0.7	Probable_Truth	RIGHT	RIGHT	6	1069.9569999999312	12	2020-02-11 11:44:40.233038
124	Computer	S200211	0.6666666666666666	2	1	2	1	0.3	1150.0000023	1066.6666688	1500.000003	1500.000003	Minor	Wrong_doings	56	You have stolen something	C1_31	0.1	Hard	I2_30	47	Kangaroos live in Africa	0.0555555555555556	Yes	LEFT	73.19759999995767	LEFT	349.18709999999464	LEFT	1158.517299999971	RIGHT	1981.215700000007	11.6	0.3	Probable_Lie	RIGHT	LEFT	6	911.54509496441	13	2020-02-11 11:45:02.498023
8	Self	S200211	0.5	2	1	1	2	0.1	1000.000002	1283.3333359	2500.000005	2066.6666708	Major	Wrong_doings	43	You have engaged in drink-driving	C2_40	0.55	Easy	I1_32	32	Today is a weekday	0.0	No	LEFT	336.1125000000129	RIGHT	1116.1923999999317	LEFT	1854.1707000000545	RIGHT	1062.9294999999956	11.5	0.1	Probable_Lie	LEFT	RIGHT	3	605.2510999999186	14	2020-02-11 11:45:26.897921
126	Computer	S200211	0.6666666666666666	2	1	2	1	0.8	1216.6666691	1216.6666691	2350.0000047	2350.0000047	Minor	Good_deeds	37	You have done something against your values	C1_37	0.9	Hard	I1_43	43	Astatine is the rarest element in the Earth's crust	0.722222222222222	No	RIGHT	729.7626000000719	LEFT	806.1108000000559	LEFT	1495.3689999999824	RIGHT	2187.3041000000057	11.5	0.8	Probable_Lie	LEFT	LEFT	4	937.3711815952728	15	2020-02-11 11:45:52.753907
113	Computer	S200211	0.6666666666666666	1	2	1	2	0.7	1283.3333359	1000.000002	2216.6666711000003	1783.3333369	Major	Wrong_doings	35	You have illegally stayed in a country	C2_38	0.0	Hard	I1_36	57	China is a part of Asia	0.888888888888889	No	LEFT	642.3859999999877	LEFT	351.8391000000065	LEFT	1177.0934999999554	RIGHT	1303.507399999944	11.5	0.7	Probable_Lie	LEFT	RIGHT	1	830.9329600048384	16	2020-02-11 11:46:15.914075
16	Self	S200211	0.6666666666666666	1	2	1	2	0.7	1000.000002	1216.6666691	1650.0000033	2216.6666711000003	Minor	Wrong_doings	20	You have held the door open for a stranger	C2_27	0.75	Easy	I2_24	11	Arabi is the oldest surviving breed of horse	0.888888888888889	No	RIGHT	255.25709999999435	RIGHT	240.30240000001868	RIGHT	1384.078700000032	RIGHT	2831.8413000000646	12.2	0.7	Probable_Truth	RIGHT	RIGHT	3	588.8638999999785	17	2020-02-11 11:46:39.873683
3	Self	S200211	0.5	1	2	1	2	0.4	1216.6666691	1000.000002	2216.6666711000003	2066.6666708	Major	Wrong_doings	9	You have cheated on a test	C2_11	1.0	Hard	I2_55	28	Obama is the USA president now	0.944444444444444	No	RIGHT	233.43709999994644	RIGHT	231.2799000000041	LEFT	832.2486000000708	LEFT	1350.5420999999842	12.6	0.4	Probable_Truth	LEFT	LEFT	3	1646.691799999985	18	2020-02-11 11:47:03.241239
15	Self	S200211	0.5	2	1	2	1	0.6	1500.000003	1066.6666688	1783.3333369	2500.000005	Minor	Wrong_doings	17	You have made someone cry	C2_48	0.05	Hard	I2_23	36	December is the last month of the year	0.611111111111111	No	RIGHT	223.52309999996575	RIGHT	298.64950000001045	LEFT	1184.2693999999483	RIGHT	1021.523400000092	13.2	0.6	Probable_Truth	RIGHT	RIGHT	5	1799.4251999999733	19	2020-02-11 11:47:27.194818
65	Self	S200211	0.6666666666666666	1	2	1	2	0.6	1216.6666691	1000.000002	2500.000005	1933.3333372	Major	Wrong_doings	3	You have taken part in violent demonstration	C1_49	0.95	Easy	I2_44	25	Mozambique is the world's poorest country	0.0555555555555556	Yes	RIGHT	427.963200000022	RIGHT	143.86469999999463	LEFT	941.2337999999636	RIGHT	2599.101899999937	13.8	0.6	Probable_Truth	LEFT	LEFT	2	596.2595999999394	20	2020-02-11 11:47:51.129396
78	Self	S200211	0.6666666666666666	2	1	2	1	0.1	1150.0000023	1283.3333359	1500.000003	1500.000003	Minor	Wrong_doings	50	You have stopped using products tested on animals	C2_26	1.0	Easy	I2_33	17	Pyramid of Giza is 468 feet tall	0.833333333333333	No	RIGHT	112.25870000009763	RIGHT	244.634499999961	RIGHT	2223.868799999991	RIGHT	1383.5553000000118	13.9	0.1	Probable_Truth	LEFT	LEFT	1	1231.4368999999488	21	2020-02-11 11:48:14.328725
102	Computer	S200211	0.5	1	2	2	1	0.6	1433.3333362	1000.000002	1500.000003	1500.000003	Minor	Wrong_doings	13	You have lost everything just to help others	C1_13	0.7	Easy	I2_40	48	Fibers in oranges can be used to make fabric	0.611111111111111	Yes	RIGHT	772.8313000000071	RIGHT	967.9685999999492	RIGHT	3016.236700000036	LEFT	1829.231400000026	14.499999999999998	0.6	Probable_Truth	RIGHT	LEFT	3	574.3093179385882	22	2020-02-11 11:48:39.482163
25	Self	S200211	0.6666666666666666	2	1	1	2	0.3	1150.0000023	1283.3333359	2066.6666708	1933.3333372	Major	Good_deeds	9	You have kept your promises	C1_4	0.9	Hard	I2_39	18	Red is a color	0.166666666666667	No	RIGHT	71.81029999992461	RIGHT	254.5413999999937	RIGHT	949.0997000000334	RIGHT	624.3064000000231	14.8	0.3	Probable_Lie	LEFT	LEFT	3	620.4457999999704	23	2020-02-11 11:49:01.009563
43	Self	S200211	0.8333333333333334	2	1	1	2	0.3	1150.0000023	1350.0000027	2066.6666708	2216.6666711000003	Major	Wrong_doings	16	You have intentionally let others cut in line	C2_8	1.0	Hard	I2_35	15	Nanyang Technological University is in Australia	0.0	Yes	LEFT	296.0908999999674	RIGHT	615.218700000014	RIGHT	1576.281300000005	LEFT	2030.7395999999471	14.499999999999998	0.3	Probable_Lie	RIGHT	RIGHT	1	587.4910999999656	24	2020-02-11 11:49:25.472803
46	Self	S200211	0.8333333333333334	2	1	2	1	0.7	1000.000002	1150.0000023	1783.3333369	1500.000003	Major	Wrong_doings	31	You have let a homeless man into your house	C2_31	1.0	Hard	I2_53	35	Lehman Brothers went bankrupt on 20th September	0.888888888888889	Yes	RIGHT	265.5252000000701	RIGHT	315.0224999999409	RIGHT	1823.9863000000012	RIGHT	2573.390399999994	15.199999999999998	0.7	Probable_Truth	RIGHT	RIGHT	2	819.7648999999956	25	2020-02-11 11:49:49.272627
71	Self	S200211	0.6666666666666666	1	2	2	1	0.8	1500.000003	1066.6666688	1500.000003	2216.6666711000003	Minor	Good_deeds	24	You have stopped using plastics completely	C1_39	0.65	Hard	I1_46	53	There are 20 bones in the human skull	0.666666666666667	No	RIGHT	300.92949999993834	RIGHT	231.1326000000236	RIGHT	2168.209700000034	LEFT	2183.450500000049	15.999999999999998	0.8	Probable_Lie	LEFT	LEFT	3	803.2165999999279	26	2020-02-11 11:50:13.817585
68	Self	S200211	0.6666666666666666	1	2	2	1	0.7	1433.3333362	1150.0000023	2216.6666711000003	1500.000003	Minor	Wrong_doings	35	You have pretended to be busy to avoid a social situation	C1_3	0.15	Hard	I2_45	4	Feijoa is a type of grape	0.0	Yes	LEFT	1638.0586999999878	LEFT	312.41320000003725	LEFT	3622.730299999944	RIGHT	1653.158400000052	15.999999999999998	0.7	Probable_Lie	RIGHT	RIGHT	1	671.5543999999909	27	2020-02-11 11:50:40.592907
14	Self	S200211	0.5	2	1	2	1	0.8	1066.6666688	1150.0000023	1933.3333372	1500.000003	Major	Wrong_doings	40	You have bought cocaine	C1_23	0.0	Easy	I2_25	23	It takes 112 years to build the Pisa Tower	1.0	No	LEFT	673.337800000013	LEFT	1085.29759999999	LEFT	847.8542999999945	RIGHT	2342.237599999976	15.999999999999998	0.8	Probable_Lie	RIGHT	RIGHT	1	982.3760000000448	28	2020-02-11 11:51:04.745240
127	Computer	S200211	0.6666666666666666	2	1	2	1	0.6	1000.000002	1500.000003	2500.000005	2500.000005	Major	Wrong_doings	12	You have donated a pay cheque to charity	C2_46	0.2	Easy	I1_23	2	Most plants emit oxygen in the day	0.666666666666667	Yes	LEFT	88.25400000000627	LEFT	352.85819999990053	RIGHT	2040.2864000000136	RIGHT	1966.8202000000288	15.999999999999998	0.6	Probable_Lie	RIGHT	LEFT	4	849.0063330128463	29	2020-02-11 11:51:30.114097
33	Self	S200211	0.8333333333333334	1	2	1	2	0.5	1500.000003	1066.6666688	1650.0000033	1783.3333369	Minor	Wrong_doings	60	You have followed instructions	C2_30	0.45	Hard	I2_58	1	Fishes can swim in water	0.0	No	LEFT	775.3340000001572	RIGHT	512.5524999998561	RIGHT	1058.7699999998677	RIGHT	744.2161000001306	15.499999999999998	0.5	Probable_Lie	RIGHT	RIGHT	1	569.0122000000883	30	2020-02-11 11:51:52.345603
72	Self	S200211	0.6666666666666666	2	1	1	2	0.7	1500.000003	1150.0000023	2500.000005	1783.3333369	Minor	Wrong_doings	42	You have given way to the handicapped	C1_28	0.1	Hard	I1_21	52	The Amazon forest covers an area of 1 billion acres	0.944444444444444	Yes	LEFT	136.75179999995635	RIGHT	636.289300000044	RIGHT	1218.3462000000418	RIGHT	2103.16140000009	14.8	0.7	Probable_Lie	RIGHT	RIGHT	2	637.4478000000181	31	2020-02-11 11:52:16.586135
98	Computer	S200211	0.5	1	2	1	2	0.8	1000.000002	1433.3333362	1933.3333372	2500.000005	Major	Good_deeds	42	You have said thank you when you have received help	C2_18	0.2	Hard	I2_28	14	Bears have the biggest eyes among mammals	0.0	Yes	LEFT	311.25760000008995	LEFT	136.74599999990278	RIGHT	1086.5166999999474	RIGHT	2856.298100000004	14.8	0.8	Probable_Lie	RIGHT	RIGHT	3	567.1146553056112	32	2020-02-11 11:52:40.977564
45	Self	S200211	0.8333333333333334	2	1	2	1	0.5	1066.6666688	1216.6666691	2500.000005	2500.000005	Major	Good_deeds	33	You have organized a violent protest	C1_29	0.0	Easy	I2_50	19	Cheese is an Asian staple	0.0	Yes	RIGHT	424.0858999999091	RIGHT	260.83260000018527	LEFT	759.1362999999092	LEFT	1023.2599000000846	15.3	0.5	Probable_Truth	RIGHT	RIGHT	6	714.6933999999874	33	2020-02-11 11:53:04.017535
105	Computer	S200211	0.5	2	1	1	2	0.4	1500.000003	1000.000002	2216.6666711000003	2216.6666711000003	Major	Good_deeds	46	You have claimed doing things that you never did	C1_8	0.05	Hard	I1_9	52	Africa is the continent with the least rainfall	0.666666666666667	Yes	LEFT	352.98009999996793	LEFT	336.6445999999996	LEFT	1663.5843999999906	RIGHT	1974.8592999999344	15.3	0.4	Probable_Lie	RIGHT	LEFT	6	705.6191778335723	34	2020-02-11 11:53:28.554094
133	Computer	S200211	0.8333333333333334	1	2	2	1	0.2	1216.6666691	1150.0000023	2216.6666711000003	1933.3333372	Major	Wrong_doings	6	You have cursed at others	C1_60	0.0	Hard	I1_29	31	Carnivore refers to meat-eater	0.722222222222222	Yes	LEFT	364.80950000009216	LEFT	784.720200000038	LEFT	1464.7714000000178	RIGHT	1613.4902000001148	15.3	0.2	Probable_Truth	LEFT	LEFT	1	832.2159924618314	35	2020-02-11 11:53:52.697583
122	Computer	S200211	0.6666666666666666	2	1	1	2	0.5	1283.3333359	1000.000002	1650.0000033	1933.3333372	Minor	Good_deeds	46	You have switched off appliances when not in use	C2_7	0.85	Easy	I1_2	23	It is night time now	0.888888888888889	No	RIGHT	504.9172999999882	LEFT	1644.8018999999476	RIGHT	1556.298599999991	RIGHT	848.9506999999321	15.3	0.5	Probable_Truth	RIGHT	RIGHT	6	664.9222213016919	36	2020-02-11 11:54:16.352796
27	Self	S200211	0.6666666666666666	2	1	1	2	0.4	1216.6666691	1000.000002	1933.3333372	1500.000003	Minor	Wrong_doings	4	You have bribed a police officer	C2_56	0.0	Hard	I2_60	60	Hot chocolate was created by the Mayan culture	0.833333333333333	No	RIGHT	535.9444000000622	RIGHT	475.80470000002606	LEFT	951.7186000000492	RIGHT	2840.0890999998865	15.7	0.4	Probable_Lie	RIGHT	RIGHT	2	647.7901999999176	37	2020-02-11 11:54:40.024625
97	Computer	S200211	0.5	1	2	1	2	0.2	1500.000003	1350.0000027	2350.0000047	2216.6666711000003	Major	Good_deeds	33	You have downloaded pirated movies	C1_48	1.0	Easy	I2_48	40	A triangle has three sides	0.0	No	RIGHT	778.5813000000417	LEFT	303.89649999983703	LEFT	1050.320000000056	RIGHT	872.7157000000716	15.7	0.2	Probable_Truth	RIGHT	RIGHT	4	816.525026635421	38	2020-02-11 11:55:03.832782
35	Self	S200211	0.8333333333333334	1	2	1	2	0.1	1350.0000027	1433.3333362	1783.3333369	1933.3333372	Major	Good_deeds	30	You have helped your parents when asked to	C2_47	0.85	Easy	I1_48	37	Slavery was abolished in Cuba in 1886	0.722222222222222	No	LEFT	1130.4494000000886	RIGHT	456.22789999993074	RIGHT	1956.106099999943	RIGHT	2151.0874999999032	15.6	0.1	Probable_Lie	LEFT	LEFT	6	566.2893000001077	39	2020-02-11 11:55:29.169714
30	Self	S200211	0.6666666666666666	2	1	2	1	0.8	1066.6666688	1433.3333362	2500.000005	1650.0000033	Minor	Good_deeds	37	You have done something against your values	C1_37	0.9	Hard	I1_43	43	Astatine is the rarest element in the Earth's crust	0.722222222222222	No	RIGHT	199.29009999987105	RIGHT	92.83460000006016	LEFT	1533.433400000149	RIGHT	1054.3321000000103	16.4	0.8	Probable_Truth	RIGHT	RIGHT	4	663.5393000001386	40	2020-02-11 11:55:51.936604
52	Self	S200211	0.5	1	2	2	1	0.2	1283.3333359	1433.3333362	1933.3333372	2066.6666708	Minor	Good_deeds	34	You have signed up as a bone marrow donor	C2_58	0.0	Easy	I2_5	5	The hyoid bone is the only jointless bone	0.0555555555555556	Yes	RIGHT	485.1751999999578	RIGHT	24.9688999999762	RIGHT	2303.3812000001035	LEFT	2252.725199999986	16.599999999999998	0.2	Probable_Lie	LEFT	LEFT	6	651.7119000000093	41	2020-02-11 11:56:16.945121
109	Computer	S200211	0.5	2	1	2	1	0.2	1000.000002	1216.6666691	2350.0000047	1650.0000033	Major	Wrong_doings	48	You have said sorry when you were rude	C1_43	1.0	Hard	I2_56	56	The human's inner ear is larger than a pencil eraser	0.722222222222222	Yes	RIGHT	111.8966999999884	LEFT	710.8319999999821	RIGHT	1127.5485999999546	RIGHT	2201.474599999983	16.599999999999998	0.2	Probable_Truth	LEFT	LEFT	3	936.1175916653036	42	2020-02-11 11:56:40.818263
22	Self	S200211	0.6666666666666666	1	2	2	1	0.8	1216.6666691	1350.0000027	2350.0000047	1500.000003	Major	Good_deeds	38	You have violated a traffic law	C2_13	0.8	Hard	I1_11	28	Polish is 20th most spoken language in the World	0.944444444444444	Yes	RIGHT	223.44500000008335	RIGHT	72.19740000005004	LEFT	1279.4315000001006	RIGHT	2282.743900000014	17.4	0.8	Probable_Truth	RIGHT	RIGHT	3	623.5551999998279	43	2020-02-11 11:57:04.296607
136	Computer	S200211	0.8333333333333334	2	1	1	2	0.5	1500.000003	1150.0000023	1933.3333372	2066.6666708	Minor	Good_deeds	54	You have thrown your trash into the bin	C2_1	0.0	Hard	I1_15	50	The Franco-Prussian War occurred in the 19th century	0.111111111111111	No	RIGHT	25.202699999908877	RIGHT	239.91369999998824	RIGHT	1029.1709000000535	RIGHT	1677.7306999999837	17.9	0.5	Probable_Truth	LEFT	LEFT	1	794.2107207445146	44	2020-02-11 11:57:27.289402
92	Self	S200211	0.8333333333333334	2	1	2	1	0.7	1350.0000027	1000.000002	2350.0000047	1650.0000033	Minor	Wrong_doings	59	You have volunteered for a disaster-related humanitarian mission	C1_24	0.7	Hard	I1_26	45	There is typically 0.6 grams of mercury in glass thermometer	0.0555555555555556	No	RIGHT	144.54829999999674	RIGHT	930.2717999999004	RIGHT	2024.215099999992	LEFT	2669.379899999967	18.6	0.7	Probable_Lie	RIGHT	RIGHT	1	615.5050999998366	45	2020-02-11 11:57:52.601071
134	Computer	S200211	0.8333333333333334	1	2	2	1	0.8	1000.000002	1066.6666688	1500.000003	2216.6666711000003	Major	Good_deeds	14	You have blackmailed others for money	C1_57	1.0	Hard	I2_31	48	Cleopatra was born in Greece	0.0	No	RIGHT	130.49339999997756	RIGHT	439.45240000016383	LEFT	1126.5366000000083	RIGHT	1833.388700000114	19.4	0.8	Probable_Truth	RIGHT	LEFT	1	705.9616111840205	46	2020-02-11 11:58:15.184623
132	Computer	S200211	0.8333333333333334	1	2	2	1	0.1	1283.3333359	1000.000002	1933.3333372	1500.000003	Major	Wrong_doings	47	You have assisted in a crime	C2_34	0.25	Easy	I1_1	58	Today is Sunday	1.0	No	RIGHT	674.0283000001455	LEFT	88.29130000003715	LEFT	1077.8689000001125	LEFT	1196.5099999999893	19.4	0.1	Probable_Truth	LEFT	LEFT	1	667.5511993978204	47	2020-02-11 11:58:37.177382
85	Self	S200211	0.8333333333333334	1	2	2	1	0.7	1283.3333359	1216.6666691	1500.000003	1933.3333372	Minor	Wrong_doings	17	You have failed to keep promises	C2_23	1.0	Hard	I2_21	46	The current century is 21st	0.944444444444444	Yes	RIGHT	277.8356000001168	RIGHT	257.0274999998219	LEFT	1775.7775000000038	RIGHT	1158.046400000103	20.1	0.7	Probable_Truth	LEFT	LEFT	1	529.7774000000572	48	2020-02-11 11:59:47.065280
80	Self	S200211	0.8333333333333334	1	2	1	2	0.1	1150.0000023	1433.3333362	1933.3333372	2216.6666711000003	Major	Good_deeds	36	You have been sued	C2_28	0.0	Hard	I1_54	8	The Earth turns the closest to the sun in May	0.0	No	RIGHT	916.9205000000602	RIGHT	271.3317000000188	LEFT	1193.6156000001574	RIGHT	2479.992699999912	20.2	0.1	Probable_Lie	LEFT	LEFT	2	552.9653000000962	49	2020-02-11 12:00:11.784420
138	Computer	S200211	0.8333333333333334	2	1	1	2	0.2	1283.3333359	1283.3333359	1500.000003	2216.6666711000003	Minor	Good_deeds	1	You have risked your life to save another person's life	C1_16	0.85	Easy	I1_19	49	Summer is hotter than winter	0.0	Yes	LEFT	392.1850000001541	LEFT	874.5294999998805	RIGHT	1480.9985000001689	RIGHT	1119.7376999998596	20.2	0.2	Probable_Lie	LEFT	RIGHT	1	552.5876256842541	50	2020-02-11 12:00:35.057310
24	Self	S200211	0.6666666666666666	2	1	1	2	0.1	1433.3333362	1500.000003	2216.6666711000003	2350.0000047	Major	Wrong_doings	31	You have been convicted in court	C2_9	0.0	Easy	I1_47	39	It takes 500 days to travel from Earth to Mars	0.0	Yes	LEFT	552.4073999999928	RIGHT	728.5162999999102	LEFT	780.9555999999702	LEFT	1824.589900000092	20.1	0.1	Probable_Lie	RIGHT	RIGHT	2	625.6945999998607	51	2020-02-11 12:00:59.640636
84	Self	S200211	0.8333333333333334	1	2	2	1	0.4	1500.000003	1066.6666688	1650.0000033	2350.0000047	Major	Good_deeds	23	You have helped a friend in need	C2_53	0.85	Easy	I1_3	54	There are 30 hours in a day	0.944444444444444	No	RIGHT	428.4697000000506	RIGHT	241.0666000000674	RIGHT	830.4825000000164	LEFT	983.0940000001648	20.5	0.4	Probable_Truth	RIGHT	RIGHT	6	567.950799999835	52	2020-02-11 12:01:21.841150
55	Self	S200211	0.5	1	2	2	1	0.1	1216.6666691	1000.000002	2216.6666711000003	2500.000005	Major	Wrong_doings	7	You have adopted a zero-waste lifestyle	C1_40	0.05	Easy	I2_34	24	The Earth is round	0.0	No	RIGHT	248.57799999995223	RIGHT	128.27069999980267	RIGHT	1607.720800000152	RIGHT	701.485699999921	20.6	0.1	Probable_Truth	LEFT	LEFT	1	846.4487999999619	53	2020-02-11 12:01:44.881226
119	Computer	S200211	0.6666666666666666	1	2	2	1	0.5	1500.000003	1216.6666691	2066.6666708	2066.6666708	Minor	Wrong_doings	37	You have complimented others for good work	C2_37	0.95	Hard	I1_28	24	A square has 3 corners	0.0	Yes	LEFT	746.8569000000116	LEFT	112.59519999998702	RIGHT	1007.1375000002264	LEFT	1142.1026000000438	20.6	0.5	Probable_Lie	RIGHT	LEFT	6	836.7505139905923	54	2020-02-11 12:02:08.145491
106	Computer	S200211	0.5	2	1	1	2	0.8	1216.6666691	1283.3333359	2500.000005	2066.6666708	Minor	Good_deeds	8	You have started an NGO using your savings	C1_46	0.95	Hard	I2_36	25	Acoustic Kitty refers to cat with implants	0.0	No	LEFT	1.4459999999871798	LEFT	185.05369999979848	RIGHT	2251.175699999976	LEFT	2263.874999999871	20.6	0.8	Probable_Lie	LEFT	LEFT	6	956.4574847120792	55	2020-02-11 12:02:33.433051
82	Self	S200211	0.8333333333333334	1	2	1	2	0.3	1433.3333362	1350.0000027	2500.000005	2500.000005	Major	Good_deeds	28	You have bribed someone to improve a grade	C1_51	0.0	Hard	I2_46	51	Singapore ranked 8th in World's smallest countries	0.0	Yes	RIGHT	268.58119999997143	RIGHT	72.1531999997751	LEFT	1366.187200000013	LEFT	2855.5335000000923	20.9	0.3	Probable_Lie	LEFT	LEFT	5	688.8042999999016	56	2020-02-11 12:02:59.040530
120	Computer	S200211	0.6666666666666666	2	1	1	2	0.1	1066.6666688	1150.0000023	1933.3333372	2216.6666711000003	Major	Wrong_doings	31	You have been convicted in court	C2_9	0.0	Easy	I1_47	39	It takes 500 days to travel from Earth to Mars	0.0	Yes	RIGHT	192.20000000018445	LEFT	769.9458999998114	LEFT	929.3603000000984	LEFT	952.7035999999498	20.9	0.1	Probable_Truth	RIGHT	LEFT	2	845.587349611367	57	2020-02-11 12:03:21.672996
137	Computer	S200211	0.8333333333333334	2	1	1	2	0.6	1066.6666688	1066.6666688	1650.0000033	2350.0000047	Minor	Wrong_doings	29	You have watched a pirated movie	C2_54	0.05	Easy	I2_49	53	South East Asia is currently free from polio	0.777777777777778	No	LEFT	120.1360999998542	LEFT	843.966200000068	LEFT	754.8635000000559	RIGHT	2712.1916000000965	20.9	0.6	Probable_Lie	LEFT	LEFT	6	584.6368709585338	58	2020-02-11 12:03:45.393190
32	Self	S200211	0.8333333333333334	1	2	1	2	0.8	1150.0000023	1500.000003	1500.000003	2500.000005	Minor	Wrong_doings	34	You have been restricting your electricity consumption	C1_14	0.5	Easy	I2_38	29	Teddy Roosevelt was the youngest US President	0.833333333333333	Yes	RIGHT	588.8826000000336	RIGHT	384.9529999999959	RIGHT	1606.2557000000195	RIGHT	2103.8979999998446	21.7	0.8	Probable_Lie	LEFT	LEFT	2	612.1683999999732	59	2020-02-11 12:04:09.912785
91	Self	S200211	0.8333333333333334	2	1	1	2	0.1	1000.000002	1216.6666691	2500.000005	2500.000005	Minor	Wrong_doings	16	You have taken months off to volunteer	C1_6	0.05	Easy	I2_22	22	There are 9 rings in the Olympic flag	0.944444444444444	Yes	RIGHT	264.37030000010964	RIGHT	1044.6269999999913	RIGHT	2365.3285000000324	LEFT	1942.0631000000408	21.8	0.1	Probable_Lie	RIGHT	RIGHT	1	453.1663000000208	60	2020-02-11 12:04:35.777390
123	Computer	S200211	0.6666666666666666	2	1	1	2	0.4	1433.3333362	1433.3333362	2216.6666711000003	1783.3333369	Minor	Wrong_doings	4	You have bribed a police officer	C2_56	0.0	Hard	I2_60	60	Hot chocolate was created by the Mayan culture	0.833333333333333	No	LEFT	32.92989999999918	LEFT	280.9084000000439	LEFT	812.1662000000924	RIGHT	1038.9966000000186	21.8	0.4	Probable_Lie	LEFT	RIGHT	2	912.6832597868296	61	2020-02-11 12:04:58.297000
10	Self	S200211	0.5	2	1	1	2	0.7	1150.0000023	1350.0000027	1650.0000033	1650.0000033	Minor	Good_deeds	8	You have started an NGO using your savings	C1_46	0.95	Hard	I2_36	25	Acoustic Kitty refers to cat with implants	0.0	No	RIGHT	62.19539999983681	RIGHT	415.2659000001222	LEFT	1152.0398000000114	LEFT	832.2035999999571	22.5	0.7	Probable_Lie	RIGHT	LEFT	4	1432.6496000001043	62	2020-02-11 12:05:20.569300
34	Self	S200211	0.8333333333333334	1	2	1	2	0.2	1066.6666688	1283.3333359	2350.0000047	2350.0000047	Minor	Good_deeds	30	You have fabricated facts about yourself	C1_30	0.0	Easy	I2_27	27	A caterpillar has more muscle than a human	0.0	Yes	RIGHT	227.5716999999986	RIGHT	368.47179999995205	LEFT	1348.7064999999347	LEFT	1638.8194000001022	22.7	0.2	Probable_Truth	RIGHT	RIGHT	4	921.3664000001244	63	2020-02-11 12:05:44.697255
86	Self	S200211	0.8333333333333334	1	2	2	1	0.5	1350.0000027	1000.000002	2066.6666708	1500.000003	Minor	Good_deeds	45	You have watched an M18 movie when you were underage	C1_5	0.65	Easy	I1_60	3	Mageirocophobia is a fear of deathly disease	0.833333333333333	No	RIGHT	230.08929999991776	RIGHT	8.624199999985649	LEFT	1431.0189000000264	LEFT	2243.619299999864	23.2	0.5	Probable_Lie	RIGHT	RIGHT	1	585.6426000000283	64	2020-02-11 12:06:07.688166
63	Self	S200211	0.5	2	1	2	1	0.8	1433.3333362	1150.0000023	2500.000005	1783.3333369	Major	Wrong_doings	53	You have sorted your trash into recycling bin	C2_60	0.15	Easy	I1_27	59	Septicemia is a lung infection condition	0.777777777777778	No	RIGHT	368.1546000000253	RIGHT	214.15879999995013	RIGHT	2168.089699999882	RIGHT	2075.7826999999907	24.0	0.8	Probable_Truth	RIGHT	RIGHT	4	1119.0182999998797	65	2020-02-11 12:06:33.073249
67	Self	S200211	0.6666666666666666	1	2	1	2	0.1	1066.6666688	1500.000003	1783.3333369	2066.6666708	Major	Good_deeds	49	You have deceived a loved one	C2_35	0.0	Hard	I2_16	3	It sometimes snows in Singapore	0.0555555555555556	Yes	LEFT	1329.3615000000043	RIGHT	96.85990000002676	LEFT	1374.7427999999218	LEFT	975.3791999999066	23.9	0.1	Probable_Lie	RIGHT	RIGHT	2	605.9029000000464	66	2020-02-11 12:06:56.451008
131	Computer	S200211	0.8333333333333334	1	2	1	2	0.7	1433.3333362	1350.0000027	2350.0000047	2066.6666708	Major	Good_deeds	30	You have helped your parents when asked to	C2_47	0.85	Easy	I1_48	37	Slavery was abolished in Cuba in 1886	0.722222222222222	No	LEFT	330.2584000000479	LEFT	31.87470000011672	RIGHT	1062.1479000001273	RIGHT	1406.8829000000278	23.9	0.7	Probable_Lie	LEFT	RIGHT	1	816.8358995527433	67	2020-02-11 12:07:19.871855
28	Self	S200211	0.6666666666666666	2	1	2	1	0.5	1350.0000027	1216.6666691	1783.3333369	1783.3333369	Minor	Wrong_doings	56	You have stolen something	C1_31	0.1	Hard	I2_30	47	Kangaroos live in Africa	0.0555555555555556	Yes	RIGHT	239.9930999999924	RIGHT	729.8395999998775	LEFT	808.7720999999419	LEFT	1450.302899999997	24.4	0.5	Probable_Truth	RIGHT	RIGHT	4	674.2976999998973	68	2020-02-11 12:07:42.480518
38	Self	S200211	0.8333333333333334	1	2	2	1	0.4	1000.000002	1216.6666691	2066.6666708	2216.6666711000003	Major	Good_deeds	14	You have blackmailed others for money	C1_57	1.0	Hard	I2_31	48	Cleopatra was born in Greece	0.0	No	RIGHT	302.0966999999928	RIGHT	239.42090000014105	LEFT	1096.421099999816	RIGHT	1304.9326000000292	24.8	0.4	Probable_Lie	RIGHT	RIGHT	1	470.0127999999495	69	2020-02-11 12:08:04.968758
56	Self	S200211	0.5	2	1	1	2	0.5	1000.000002	1433.3333362	1500.000003	2350.0000047	Minor	Wrong_doings	19	You have sheltered others from disasters	C1_38	1.0	Easy	I2_59	26	The hardest bone in human body is the jawbone	0.611111111111111	No	RIGHT	64.83909999997195	RIGHT	1092.8751999999804	RIGHT	1587.5139999998282	RIGHT	3055.8817000001	25.3	0.5	Probable_Lie	RIGHT	RIGHT	2	748.2219000000896	70	2020-02-11 12:08:30.377360
143	Computer	S200211	0.8333333333333334	2	1	2	1	0.1	1216.6666691	1500.000003	2216.6666711000003	1650.0000033	Minor	Wrong_doings	8	You have engaged in money laundering	C1_44	1.0	Hard	I1_38	39	Chickens lay eggs	0.888888888888889	No	LEFT	223.3103999997184	LEFT	139.23260000001392	LEFT	928.5549999999604	RIGHT	854.1196999999556	25.3	0.1	Probable_Lie	RIGHT	LEFT	3	771.7999361140157	71	2020-02-11 12:08:52.448827
6	Self	S200211	0.5	1	2	2	1	0.5	1066.6666688	1150.0000023	2500.000005	2216.6666711000003	Minor	Wrong_doings	13	You have lost everything just to help others	C1_13	0.7	Easy	I2_40	48	Fibers in oranges can be used to make fabric	0.611111111111111	Yes	RIGHT	245.65290000009557	RIGHT	374.9489000001631	RIGHT	1790.5926999997064	LEFT	1167.7647000001343	25.8	0.5	Probable_Truth	LEFT	RIGHT	5	1270.5642000000807	72	2020-02-11 12:09:16.808284
125	Computer	S200211	0.6666666666666666	2	1	2	1	0.2	1350.0000027	1283.3333359	1783.3333369	2066.6666708	Major	Good_deeds	7	You have donated blood every 6 months for many years	C1_12	0.65	Easy	I2_18	30	Airbags in cars are filled with sodium azide	0.0	Yes	LEFT	120.93210000011824	LEFT	621.3424000002306	RIGHT	1486.62000000013	RIGHT	2438.5026999998445	25.8	0.2	Probable_Lie	RIGHT	RIGHT	2	971.9044188242258	73	2020-02-11 12:09:41.496744
0	Self	S200211	0.5	1	2	1	2	0.1	1350.0000027	1216.6666691	2066.6666708	1650.0000033	Major	Good_deeds	11	You have extorted money from anyone	C2_33	0.05	Easy	I1_41	41	Cernan was the second last man to walk on the Moon	0.0	Yes	LEFT	773.6512000001312	RIGHT	31.999499999983527	LEFT	1167.4322999997455	LEFT	1935.581899999761	25.7	0.1	Probable_Lie	RIGHT	LEFT	6	1518.091700000241	74	2020-02-11 12:10:05.784734
96	Computer	S200211	0.5	1	2	1	2	0.5	1283.3333359	1150.0000023	1650.0000033	1783.3333369	Major	Good_deeds	11	You have extorted money from anyone	C2_33	0.05	Easy	I1_41	41	Cernan was the second last man to walk on the Moon	0.0	Yes	RIGHT	866.0816999999952	LEFT	280.5012000003444	LEFT	865.2718999996978	RIGHT	1431.0095000000729	25.7	0.5	Probable_Truth	RIGHT	RIGHT	5	609.7520938947114	75	2020-02-11 12:10:28.289071
21	Self	S200211	0.6666666666666666	1	2	2	1	0.2	1350.0000027	1283.3333359	1783.3333369	1650.0000033	Minor	Good_deeds	27	You have told someone's secret to others	C1_59	0.95	Hard	I1_57	13	North Korea is more developed than South Korea	0.888888888888889	Yes	RIGHT	433.199500000228	RIGHT	96.48509999988164	LEFT	1047.49720000018	LEFT	1383.3706999998867	25.899999999999995	0.2	Probable_Truth	RIGHT	RIGHT	3	612.9727999996248	76	2020-02-11 12:10:50.504411
37	Self	S200211	0.8333333333333334	1	2	2	1	0.7	1216.6666691	1000.000002	2500.000005	2066.6666708	Major	Wrong_doings	6	You have cursed at others	C1_60	0.0	Hard	I1_29	31	Carnivore refers to meat-eater	0.722222222222222	Yes	RIGHT	245.61469999980545	RIGHT	201.29510000015216	LEFT	625.3357000000506	RIGHT	976.5769999999064	26.599999999999994	0.7	Probable_Truth	RIGHT	RIGHT	5	589.9639999997817	77	2020-02-11 12:11:12.496776
57	Self	S200211	0.5	2	1	1	2	0.3	1216.6666691	1066.6666688	2350.0000047	2066.6666708	Major	Good_deeds	38	You have made counterfeit money	C2_19	0.0	Easy	I2_26	27	Malay is one of the races in Singapore	0.0	Yes	RIGHT	127.87140000000365	RIGHT	196.21820000020307	LEFT	992.1086999997896	RIGHT	919.5902999999817	26.899999999999995	0.3	Probable_Truth	LEFT	RIGHT	4	598.4699000000546	78	2020-02-11 12:11:34.607480
101	Computer	S200211	0.5	1	2	2	1	0.1	1150.0000023	1216.6666691	1783.3333369	2066.6666708	Minor	Good_deeds	48	You have provided shelter for stray animals	C2_39	0.65	Hard	I1_14	55	Algeria is Africa's second largest country	0.666666666666667	No	RIGHT	591.608400000041	LEFT	159.75060000027952	RIGHT	1103.8800999999694	RIGHT	1159.9479000001338	26.899999999999995	0.1	Probable_Truth	RIGHT	LEFT	2	853.3177674406236	79	2020-02-11 12:11:57.256515
110	Computer	S200211	0.5	2	1	2	1	0.3	1150.0000023	1500.000003	1500.000003	1783.3333369	Major	Wrong_doings	40	You have bought cocaine	C1_23	0.0	Easy	I2_25	23	It takes 112 years to build the Pisa Tower	1.0	No	RIGHT	815.9795000001395	RIGHT	385.4974000000766	LEFT	696.0314000002654	RIGHT	873.2254999999896	27.2	0.3	Probable_Truth	RIGHT	LEFT	2	896.5744693869135	80	2020-02-11 12:12:19.431897
104	Computer	S200211	0.5	2	1	1	2	0.1	1283.3333359	1433.3333362	2066.6666708	2500.000005	Major	Wrong_doings	43	You have engaged in drink-driving	C2_40	0.55	Easy	I1_32	32	Today is a weekday	0.0	No	LEFT	88.25769999975819	LEFT	25.871599999845785	LEFT	885.1942999999665	RIGHT	1000.295400000141	27.2	0.1	Probable_Lie	RIGHT	LEFT	6	824.4812689742516	81	2020-02-11 12:12:42.104712
7	Self	S200211	0.5	1	2	2	1	0.2	1283.3333359	1433.3333362	1500.000003	2500.000005	Minor	Wrong_doings	39	You have engaged in underage smoking	C1_42	0.0	Hard	I1_6	6	Singapore has four seasons	1.0	Yes	LEFT	892.4500000002809	RIGHT	57.39500000026965	LEFT	1416.1755000000085	LEFT	1189.7805000003243	27.0	0.2	Probable_Lie	RIGHT	RIGHT	1	811.2320000000182	82	2020-02-11 12:13:05.761191
20	Self	S200211	0.6666666666666666	1	2	2	1	0.1	1066.6666688	1000.000002	1500.000003	1783.3333369	Major	Wrong_doings	59	You have sold illegal drugs	C1_11	0.0	Easy	I2_13	41	Vegetarians can eat vegetable products	0.0	No	RIGHT	302.2273999999925	RIGHT	72.35690000015893	LEFT	1727.241999999933	RIGHT	2059.377100000347	27.1	0.1	Probable_Truth	LEFT	LEFT	2	650.5854000001818	83	2020-02-11 12:13:28.497190
74	Self	S200211	0.6666666666666666	2	1	1	2	0.4	1000.000002	1066.6666688	2216.6666711000003	1650.0000033	Minor	Good_deeds	2	You have participated in a scamming business	C1_50	0.7	Hard	I2_12	21	There are 7 days in a week	0.0	Yes	LEFT	80.42799999975614	RIGHT	576.2588000002324	LEFT	1342.5106000004234	RIGHT	719.8644000000058	26.7	0.4	Probable_Lie	RIGHT	RIGHT	1	778.2200999999986	84	2020-02-11 12:13:50.503629
100	Computer	S200211	0.5	1	2	2	1	0.4	1216.6666691	1066.6666688	2500.000005	1933.3333372	Minor	Wrong_doings	18	You have shown your appreciation to your teachers	C1_9	0.05	Easy	I1_58	58	Statute of Liberty is in New York	0.0	No	LEFT	381.1460000001716	LEFT	560.5838000001313	RIGHT	1367.4650000002655	RIGHT	1294.1657999999734	26.7	0.4	Probable_Lie	RIGHT	RIGHT	2	904.795757038913	85	2020-02-11 12:14:14.296059
90	Self	S200211	0.8333333333333334	2	1	1	2	0.3	1283.3333359	1150.0000023	1783.3333369	1500.000003	Minor	Good_deeds	58	You have been arrested	C1_58	0.05	Easy	I1_45	40	Milwaukee Art Museum is located in California	0.0	Yes	LEFT	385.28450000012526	RIGHT	1289.817200000016	LEFT	1413.6271000002123	LEFT	1560.764299999846	26.4	0.3	Probable_Lie	RIGHT	RIGHT	1	551.4263000000028	86	2020-02-11 12:14:37.783712
26	Self	S200211	0.6666666666666666	2	1	1	2	0.2	1283.3333359	1350.0000027	2350.0000047	2066.6666708	Minor	Good_deeds	46	You have switched off appliances when not in use	C2_7	0.85	Easy	I1_2	23	It is night time now	0.888888888888889	No	RIGHT	145.37920000020677	RIGHT	211.0296000000744	RIGHT	944.4839000002504	LEFT	832.8142000000298	26.6	0.2	Probable_Truth	LEFT	LEFT	1	677.2886000003382	87	2020-02-11 12:15:00.216667
31	Self	S200211	0.6666666666666666	2	1	2	1	0.6	1500.000003	1066.6666688	1500.000003	2500.000005	Major	Wrong_doings	12	You have donated a pay cheque to charity	C2_46	0.2	Easy	I1_23	2	Most plants emit oxygen in the day	0.666666666666667	Yes	RIGHT	528.9400999999998	RIGHT	49.94639999995343	LEFT	1840.6734999998664	RIGHT	1142.2474999999397	27.2	0.6	Probable_Lie	LEFT	LEFT	4	581.7253999998684	88	2020-02-11 12:15:23.504904
129	Computer	S200211	0.8333333333333334	1	2	1	2	0.3	1150.0000023	1216.6666691	1650.0000033	1650.0000033	Minor	Wrong_doings	60	You have followed instructions	C2_30	0.45	Hard	I2_58	1	Fishes can swim in water	0.0	No	LEFT	328.9991999999984	LEFT	168.1908000000476	RIGHT	784.0621999998802	RIGHT	695.11730000022	27.2	0.3	Probable_Lie	RIGHT	LEFT	5	813.7970000245367	89	2020-02-11 12:15:44.536079
50	Self	S200211	0.5	1	2	1	2	0.4	1500.000003	1283.3333359	1500.000003	2216.6666711000003	Minor	Good_deeds	19	You have eaten something in the MRT train	C1_7	0.9	Hard	I2_43	35	Some owl species hunt fish	1.0	Yes	RIGHT	238.42680000007024	RIGHT	89.14039999990564	LEFT	1710.7261000001015	RIGHT	1504.4530000000125	27.6	0.4	Probable_Truth	LEFT	RIGHT	5	989.8015000003396	90	2020-02-11 12:16:08.143480
2	Self	S200211	0.5	1	2	1	2	0.6	1000.000002	1350.0000027	1650.0000033	2350.0000047	Major	Good_deeds	42	You have said thank you when you have received help	C2_18	0.2	Hard	I2_28	14	Bears have the biggest eyes among mammals	0.0	Yes	RIGHT	56.34779999991224	RIGHT	215.94140000024709	RIGHT	797.3194999999578	RIGHT	999.9439999996866	28.2	0.6	Probable_Truth	LEFT	RIGHT	6	888.1262999998398	91	2020-02-11 12:16:30.023443
19	Self	S200211	0.6666666666666666	1	2	1	2	0.4	1500.000003	1150.0000023	2066.6666708	2066.6666708	Major	Good_deeds	11	You have attended all lectures as a student	C1_35	0.45	Easy	I2_41	36	The Seine river is 50 feet above sea level	0.0555555555555556	No	LEFT	1365.5260999998973	LEFT	376.4108000000306	RIGHT	1104.7707000002447	RIGHT	799.8195000000123	28.2	0.4	Probable_Lie	RIGHT	RIGHT	1	565.6433999997716	92	2020-02-11 12:16:53.591501
83	Self	S200211	0.8333333333333334	1	2	1	2	0.2	1216.6666691	1283.3333359	1783.3333369	2066.6666708	Minor	Wrong_doings	53	You have started a movement to support a cause	C2_45	0.0	Easy	I2_54	60	It is snowing outside now	0.0	Yes	RIGHT	16.03579999982685	RIGHT	17.298399999617686	LEFT	2622.727400000258	LEFT	912.6755000002048	28.4	0.2	Probable_Truth	LEFT	LEFT	1	640.3101000000788	93	2020-02-11 12:17:16.729027
47	Self	S200211	0.8333333333333334	2	1	2	1	0.6	1500.000003	1500.000003	2216.6666711000003	2066.6666708	Minor	Wrong_doings	8	You have engaged in money laundering	C1_44	1.0	Hard	I1_38	39	Chickens lay eggs	0.888888888888889	No	RIGHT	73.49209999983941	RIGHT	463.8374000001022	LEFT	1415.6388999999765	RIGHT	678.6433999996007	29.0	0.6	Probable_Truth	RIGHT	RIGHT	5	644.3691999998009	94	2020-02-11 12:17:39.863933
69	Self	S200211	0.6666666666666666	1	2	2	1	0.3	1350.0000027	1350.0000027	2066.6666708	1650.0000033	Major	Good_deeds	15	You have engaged in arson	C1_15	0.0	Hard	I1_25	46	Beer is an alcoholic drink	0.764705882352941	No	RIGHT	373.3692000000701	RIGHT	160.9494999997878	LEFT	1064.5400999997037	RIGHT	1118.080899999768	29.3	0.3	Probable_Truth	LEFT	LEFT	1	970.0570000004518	95	2020-02-11 12:18:02.545311
103	Computer	S200211	0.5	1	2	2	1	0.3	1066.6666688	1500.000003	2216.6666711000003	2350.0000047	Minor	Wrong_doings	39	You have engaged in underage smoking	C1_42	0.0	Hard	I1_6	6	Singapore has four seasons	1.0	Yes	LEFT	277.4640000002364	LEFT	240.33250000002224	LEFT	703.729100000146	LEFT	1074.9541000000136	29.3	0.3	Probable_Lie	LEFT	RIGHT	3	957.5947956833434	96	2020-02-11 12:19:12.655528
13	Self	S200211	0.5	2	1	2	1	0.5	1433.3333362	1500.000003	2350.0000047	1783.3333369	Major	Wrong_doings	48	You have said sorry when you were rude	C1_43	1.0	Hard	I2_56	56	The human's inner ear is larger than a pencil eraser	0.722222222222222	Yes	LEFT	112.40420000012818	RIGHT	795.8954000000631	RIGHT	919.8373999997784	RIGHT	2036.5977999999811	28.8	0.5	Probable_Lie	LEFT	RIGHT	3	1472.5091000000248	97	2020-02-11 12:19:37.632878
114	Computer	S200211	0.6666666666666666	1	2	1	2	0.8	1000.000002	1433.3333362	1650.0000033	2500.000005	Minor	Good_deeds	13	You have been physically hurt to protect others	C1_20	0.2	Easy	I2_4	4	There are 6000 spoken languages in the World	0.0	Yes	LEFT	368.5504000000037	LEFT	104.71819999975196	RIGHT	1995.905600000242	RIGHT	1815.9674000003176	28.8	0.8	Probable_Lie	LEFT	RIGHT	1	820.3502344010758	98	2020-02-11 12:20:01.887904
93	Self	S200211	0.8333333333333334	2	1	2	1	0.2	1433.3333362	1350.0000027	2066.6666708	2350.0000047	Major	Good_deeds	57	You have coveted things that belong to others	C2_59	1.0	Hard	I1_5	17	Animals are living things	0.666666666666667	No	RIGHT	47.88890000008905	RIGHT	206.37669999996436	LEFT	2711.485299999822	RIGHT	1027.579699999933	29.0	0.2	Probable_Truth	LEFT	LEFT	1	624.3782999999894	99	2020-02-11 12:20:26.279669
108	Computer	S200211	0.5	2	1	2	1	0.5	1433.3333362	1150.0000023	1933.3333372	1500.000003	Minor	Good_deeds	10	You have offered a listening ear to a friend	C2_10	0.0	Easy	I1_10	9	The sun rises at night	0.0	Yes	RIGHT	57.06399999962741	LEFT	785.1974999998674	RIGHT	1215.8924000000295	LEFT	1398.0663999996068	29.0	0.5	Probable_Truth	LEFT	RIGHT	4	608.0122297913326	100	2020-02-11 12:20:48.919620
48	Self	S200211	0.5	1	2	1	2	0.3	1000.000002	1500.000003	1783.3333369	1933.3333372	Major	Good_deeds	40	You have given directions to a lost tourist	C2_43	0.1	Easy	I1_13	34	Singapore is a country	0.0	No	RIGHT	289.43980000030933	RIGHT	351.9984000004115	RIGHT	2013.033499999892	RIGHT	744.5419999999103	29.3	0.3	Probable_Lie	LEFT	LEFT	4	805.9141999997337	101	2020-02-11 12:21:11.920444
142	Computer	S200211	0.8333333333333334	2	1	2	1	0.4	1433.3333362	1000.000002	2350.0000047	2500.000005	Major	Wrong_doings	31	You have let a homeless man into your house	C2_31	1.0	Hard	I2_53	35	Lehman Brothers went bankrupt on 20th September	0.888888888888889	Yes	LEFT	56.91880000040328	LEFT	153.1011000001854	RIGHT	734.9267999998119	RIGHT	1052.997900000264	29.3	0.4	Probable_Lie	RIGHT	LEFT	3	893.5142691316389	102	2020-02-11 12:21:34.689203
17	Self	S200211	0.6666666666666666	1	2	1	2	0.3	1150.0000023	1433.3333362	2216.6666711000003	2350.0000047	Major	Wrong_doings	35	You have illegally stayed in a country	C2_38	0.0	Hard	I1_36	57	China is a part of Asia	0.888888888888889	No	RIGHT	225.5159999999705	RIGHT	72.40309999997407	LEFT	971.0200999998052	RIGHT	967.1597999999904	29.6	0.3	Probable_Truth	LEFT	LEFT	2	573.4809000000496	103	2020-02-11 12:21:57.223729
36	Self	S200211	0.8333333333333334	1	2	2	1	0.3	1283.3333359	1350.0000027	1933.3333372	1500.000003	Major	Wrong_doings	47	You have assisted in a crime	C2_34	0.25	Easy	I1_1	58	Today is Sunday	1.0	No	RIGHT	196.14260000025752	RIGHT	153.30979999998817	LEFT	799.8929999998836	LEFT	963.4907999998176	29.9	0.3	Probable_Truth	RIGHT	RIGHT	4	749.1846000002624	104	2020-02-11 12:22:18.728214
95	Self	S200211	0.8333333333333334	2	1	2	1	0.6	1150.0000023	1500.000003	2216.6666711000003	2216.6666711000003	Major	Wrong_doings	20	You have returned your trays in food courts	C2_20	0.0	Hard	I2_1	26	Nomophobia is the fear of being without a phone or computer	0.0	Yes	RIGHT	15.332999999827734	RIGHT	191.99280000020732	RIGHT	1607.941099999607	LEFT	1897.4905999998557	30.500000000000004	0.6	Probable_Lie	LEFT	LEFT	5	678.3212999998796	105	2020-02-11 12:22:42.775745
42	Self	S200211	0.8333333333333334	2	1	1	2	0.4	1350.0000027	1000.000002	1650.0000033	1650.0000033	Minor	Good_deeds	1	You have risked your life to save another person's life	C1_16	0.85	Easy	I1_19	49	Summer is hotter than winter	0.0	Yes	RIGHT	87.19150000024456	RIGHT	543.399700000009	RIGHT	1360.3190999997423	RIGHT	936.1142000002474	30.9	0.4	Probable_Truth	RIGHT	RIGHT	4	629.574699999921	106	2020-02-11 12:23:04.561142
128	Computer	S200211	0.8333333333333334	1	2	1	2	0.4	1066.6666688	1433.3333362	2066.6666708	2350.0000047	Minor	Wrong_doings	34	You have been restricting your electricity consumption	C1_14	0.5	Easy	I2_38	29	Teddy Roosevelt was the youngest US President	0.833333333333333	Yes	LEFT	338.5881000003792	LEFT	135.6621999998424	RIGHT	1012.664799999584	RIGHT	902.6036999998724	30.9	0.4	Probable_Lie	LEFT	RIGHT	1	882.5706071596728	107	2020-02-11 12:23:27.319517
49	Self	S200211	0.5	1	2	1	2	0.5	1150.0000023	1216.6666691	2066.6666708	1650.0000033	Minor	Wrong_doings	43	You have kidnapped someone	C1_19	0.95	Easy	I2_2	43	R. Amundsen discovered the South Pole	1.0	No	RIGHT	445.91200000013487	RIGHT	73.03929999989123	LEFT	1103.542700000162	LEFT	2167.837800000143	31.4	0.5	Probable_Lie	LEFT	RIGHT	1	1104.2858999999223	108	2020-02-11 12:23:50.873474
29	Self	S200211	0.6666666666666666	2	1	2	1	0.7	1000.000002	1150.0000023	1650.0000033	2216.6666711000003	Major	Good_deeds	7	You have donated blood every 6 months for many years	C1_12	0.65	Easy	I2_18	30	Airbags in cars are filled with sodium azide	0.0	Yes	RIGHT	128.452500000094	RIGHT	302.4798000001283	RIGHT	918.8286000003244	RIGHT	1490.964300000087	32.1	0.7	Probable_Lie	LEFT	LEFT	6	548.1022999997549	109	2020-02-11 12:24:12.857122
112	Computer	S200211	0.6666666666666666	1	2	1	2	0.4	1216.6666691	1283.3333359	1933.3333372	1500.000003	Minor	Wrong_doings	20	You have held the door open for a stranger	C2_27	0.75	Easy	I2_24	11	Arabi is the oldest surviving breed of horse	0.888888888888889	No	RIGHT	661.4298999998027	LEFT	200.61759999998685	RIGHT	1022.5860000000466	RIGHT	991.1645000001954	32.1	0.4	Probable_Truth	RIGHT	LEFT	2	903.7282160970362	110	2020-02-11 12:24:35.136714
70	Self	S200211	0.6666666666666666	1	2	2	1	0.4	1150.0000023	1283.3333359	1933.3333372	2500.000005	Minor	Wrong_doings	39	You have held the elevator doors for others	C2_24	0.95	Easy	I1_4	44	Earth's atmosphere extends up to 10,000km into space	0.777777777777778	Yes	LEFT	708.0384999999296	RIGHT	31.510199999956967	RIGHT	1351.5289000001758	LEFT	2398.334199999681	31.700000000000003	0.4	Probable_Lie	RIGHT	RIGHT	1	893.4346999999434	111	2020-02-11 12:24:59.959952
99	Computer	S200211	0.5	1	2	1	2	0.7	1350.0000027	1283.3333359	2066.6666708	1650.0000033	Major	Wrong_doings	9	You have cheated on a test	C2_11	1.0	Hard	I2_55	28	Obama is the USA president now	0.944444444444444	No	RIGHT	837.9388000003019	RIGHT	384.8256000001129	LEFT	1063.2261000000651	RIGHT	832.2301000002881	32.400000000000006	0.7	Probable_Lie	RIGHT	LEFT	4	985.2180270138132	112	2020-02-11 12:25:22.984147
62	Self	S200211	0.5	2	1	2	1	0.1	1350.0000027	1283.3333359	1933.3333372	1650.0000033	Minor	Good_deeds	29	You have drunk alcohol when you were underage	C2_52	0.0	Hard	I1_44	12	There are 6 million animal species on Earth	0.944444444444444	No	LEFT	112.85610000004452	RIGHT	1042.5122000001463	LEFT	1191.9937000002392	RIGHT	2206.5679999996064	32.300000000000004	0.1	Probable_Lie	RIGHT	LEFT	5	843.4016999999585	113	2020-02-11 12:25:47.176157
139	Computer	S200211	0.8333333333333334	2	1	1	2	0.3	1350.0000027	1433.3333362	1783.3333369	1783.3333369	Major	Wrong_doings	16	You have intentionally let others cut in line	C2_8	1.0	Hard	I2_35	15	Nanyang Technological University is in Australia	0.0	Yes	RIGHT	135.58839999996053	LEFT	608.4599999999227	RIGHT	2185.5336999997235	LEFT	783.9018999998189	32.300000000000004	0.3	Probable_Truth	RIGHT	RIGHT	6	986.615520849416	114	2020-02-11 12:26:10.800332
130	Computer	S200211	0.8333333333333334	1	2	1	2	0.5	1350.0000027	1500.000003	2500.000005	1783.3333369	Minor	Good_deeds	30	You have fabricated facts about yourself	C1_30	0.0	Easy	I2_27	27	A caterpillar has more muscle than a human	0.0	Yes	RIGHT	996.6061000000082	LEFT	271.93720000013855	LEFT	923.5991000000467	LEFT	1135.2560000000267	32.300000000000004	0.5	Probable_Truth	RIGHT	RIGHT	3	679.3244232226	115	2020-02-11 12:26:34.519412
79	Self	S200211	0.6666666666666666	2	1	2	1	0.2	1283.3333359	1433.3333362	2066.6666708	2500.000005	Minor	Good_deeds	26	You have taken part in burglary	C2_50	0.55	Easy	I1_42	42	Afghan Hound is the first cloned cat	0.888888888888889	Yes	LEFT	224.24510000018927	RIGHT	837.6444000000447	LEFT	1024.2121000001134	LEFT	1935.0342000002456	32.1	0.2	Probable_Lie	RIGHT	RIGHT	2	1090.1729000001978	116	2020-02-11 12:26:59.487514
23	Self	S200211	0.6666666666666666	1	2	2	1	0.5	1433.3333362	1500.000003	1933.3333372	1933.3333372	Minor	Wrong_doings	37	You have complimented others for good work	C2_37	0.95	Hard	I1_28	24	A square has 3 corners	0.0	Yes	RIGHT	437.0519999997669	RIGHT	88.1918999998561	RIGHT	856.2636999999995	LEFT	1276.418599999943	32.6	0.5	Probable_Lie	LEFT	LEFT	4	1143.5793000000558	117	2020-02-11 12:27:22.663434
4	Self	S200211	0.5	1	2	2	1	0.8	1500.000003	1066.6666688	1783.3333369	1783.3333369	Minor	Wrong_doings	18	You have shown your appreciation to your teachers	C1_9	0.05	Easy	I1_58	58	Statute of Liberty is in New York	0.0	No	RIGHT	98.26590000011493	RIGHT	344.6019999996679	RIGHT	1543.7968000001092	RIGHT	931.4322000000176	33.4	0.8	Probable_Lie	LEFT	RIGHT	2	623.9709999999832	118	2020-02-11 12:27:44.911680
9	Self	S200211	0.5	2	1	1	2	0.3	1350.0000027	1216.6666691	2066.6666708	2216.6666711000003	Major	Good_deeds	46	You have claimed doing things that you never did	C1_8	0.05	Hard	I1_9	52	Africa is the continent with the least rainfall	0.666666666666667	Yes	RIGHT	735.1932999999917	RIGHT	206.28139999962517	LEFT	1345.5165999998826	RIGHT	1495.172299999922	33.7	0.3	Probable_Truth	LEFT	LEFT	2	871.0071999998945	119	2020-02-11 12:28:08.992306
75	Self	S200211	0.6666666666666666	2	1	1	2	0.8	1433.3333362	1000.000002	1933.3333372	2066.6666708	Major	Good_deeds	47	You have sign up to sponsor a needy child	C2_42	0.0	Hard	I1_17	31	Singapore is a poor country	0.0	No	RIGHT	184.64590000030512	RIGHT	173.81569999997737	LEFT	1887.9236999996465	LEFT	1486.7580999998609	34.49999999999999	0.8	Probable_Truth	RIGHT	RIGHT	5	570.6396000000495	120	2020-02-11 12:28:32.303818
76	Self	S200211	0.6666666666666666	2	1	2	1	0.6	1216.6666691	1500.000003	1650.0000033	2216.6666711000003	Major	Wrong_doings	28	You have gossiped about your best friend	C1_27	1.0	Easy	I2_6	12	Beef comes from cows	0.777777777777778	Yes	RIGHT	240.01880000014356	RIGHT	487.7894000001106	LEFT	1272.3873999998432	RIGHT	2199.3297999997594	35.099999999999994	0.6	Probable_Truth	RIGHT	RIGHT	4	801.3366000000133	121	2020-02-11 12:28:56.463947
77	Self	S200211	0.6666666666666666	2	1	2	1	0.5	1350.0000027	1350.0000027	2350.0000047	2350.0000047	Major	Good_deeds	27	You have helped others to pick up their belongings	C1_47	0.0	Easy	I1_31	6	Dutch is the 6th Europe's most widely spoken language	0.0555555555555556	No	RIGHT	135.7468000001063	RIGHT	579.1798000000199	RIGHT	831.4586000001327	RIGHT	1899.8474999998507	35.599999999999994	0.5	Probable_Truth	LEFT	LEFT	2	722.171200000048	122	2020-02-11 12:29:20.609172
118	Computer	S200211	0.6666666666666666	1	2	2	1	0.1	1433.3333362	1066.6666688	2350.0000047	1650.0000033	Major	Good_deeds	38	You have violated a traffic law	C2_13	0.8	Hard	I1_11	28	Polish is 20th most spoken language in the World	0.944444444444444	Yes	RIGHT	724.0880999997898	LEFT	639.5504000001893	LEFT	992.1054999999797	RIGHT	4166.326200000185	35.599999999999994	0.1	Probable_Truth	RIGHT	RIGHT	3	901.7841005711682	123	2020-02-11 12:29:47.103689
135	Computer	S200211	0.8333333333333334	1	2	2	1	0.6	1500.000003	1283.3333359	1783.3333369	2500.000005	Minor	Good_deeds	57	You have a non-judgmental attitude towards everyone	C2_6	0.95	Hard	I1_37	38	Christmas Day is in March	0.0	Yes	RIGHT	649.0584999996827	LEFT	88.24039999990418	RIGHT	1791.5910000001531	LEFT	1173.7401000000318	35.599999999999994	0.6	Probable_Truth	RIGHT	RIGHT	2	553.5752913995649	124	2020-02-11 12:30:10.991579
73	Self	S200211	0.6666666666666666	2	1	1	2	0.3	1066.6666688	1216.6666691	1783.3333369	1933.3333372	Major	Wrong_doings	50	You have used a fake name online	C2_2	0.05	Hard	I2_52	33	Last day of the year is 30th December	0.0555555555555556	No	RIGHT	8.177700000032928	RIGHT	59.18180000026041	LEFT	1532.6822000001812	LEFT	1527.061300000241	35.89999999999999	0.3	Probable_Truth	RIGHT	RIGHT	6	857.1428999998716	125	2020-02-11 12:30:33.552253
111	Computer	S200211	0.5	2	1	2	1	0.7	1350.0000027	1350.0000027	1650.0000033	1933.3333372	Minor	Wrong_doings	17	You have made someone cry	C2_48	0.05	Hard	I2_23	36	December is the last month of the year	0.611111111111111	No	LEFT	80.47689999966678	LEFT	521.4370000003328	LEFT	975.6132000002252	RIGHT	1196.8578999999409	35.89999999999999	0.7	Probable_Lie	RIGHT	RIGHT	3	769.2654810220888	126	2020-02-11 12:30:55.951722
116	Computer	S200211	0.6666666666666666	1	2	2	1	0.6	1350.0000027	1350.0000027	1783.3333369	2216.6666711000003	Major	Wrong_doings	59	You have sold illegal drugs	C1_11	0.0	Easy	I2_13	41	Vegetarians can eat vegetable products	0.0	No	RIGHT	590.3659000000516	LEFT	328.57190000004266	LEFT	672.1033999997417	RIGHT	1602.3072999996657	35.89999999999999	0.6	Probable_Truth	RIGHT	LEFT	2	679.6298032559598	127	2020-02-11 12:31:19.095871
87	Self	S200211	0.8333333333333334	1	2	2	1	0.6	1000.000002	1150.0000023	2350.0000047	1783.3333369	Minor	Wrong_doings	5	You have started a hotline for victims of bully	C1_36	1.0	Hard	I1_8	54	The first Grammy awards was held in 1959	0.777777777777778	No	RIGHT	26.32859999994253	RIGHT	48.141299999770126	LEFT	3120.9876000002623	LEFT	1297.2371000000749	36.49999999999999	0.6	Probable_Lie	LEFT	LEFT	5	529.7144999999546	128	2020-02-11 12:31:42.975623
1	Self	S200211	0.5	1	2	1	2	0.3	1433.3333362	1283.3333359	1933.3333372	1500.000003	Major	Good_deeds	33	You have downloaded pirated movies	C1_48	1.0	Easy	I2_48	40	A triangle has three sides	0.0	No	RIGHT	197.0182999998542	RIGHT	279.06599999960235	LEFT	1303.3672000001388	RIGHT	975.4655000001547	36.79999999999999	0.3	Probable_Lie	LEFT	RIGHT	3	751.7544999996062	129	2020-02-11 12:32:05.207698
40	Self	S200211	0.8333333333333334	2	1	1	2	0.8	1433.3333362	1066.6666688	1500.000003	1933.3333372	Minor	Good_deeds	54	You have thrown your trash into the bin	C2_1	0.0	Hard	I1_15	50	The Franco-Prussian War occurred in the 19th century	0.111111111111111	No	RIGHT	48.25830000027054	RIGHT	315.8134999998765	RIGHT	1947.5161000000296	LEFT	1376.1538000003384	37.59999999999999	0.8	Probable_Truth	RIGHT	RIGHT	2	662.8593999998884	130	2020-02-11 12:32:28.087863
11	Self	S200211	0.5	2	1	1	2	0.2	1216.6666691	1000.000002	1500.000003	2350.0000047	Minor	Good_deeds	23	You have rescued others from a catastrophe	C2_17	0.95	Easy	I1_52	10	French is Singapore's official language	0.0	Yes	RIGHT	271.97160000014264	RIGHT	155.41339999981574	RIGHT	1531.3177999996697	LEFT	1239.6495000002687	37.79999999999999	0.2	Probable_Truth	LEFT	LEFT	2	683.7249000000156	131	2020-02-11 12:32:50.616143
81	Self	S200211	0.8333333333333334	1	2	1	2	0.8	1066.6666688	1500.000003	2216.6666711000003	1650.0000033	Major	Wrong_doings	51	You have confessed to your mistake	C1_17	0.0	Easy	I2_51	21	The Eiffel Tower is in Paris	0.0	Yes	RIGHT	95.53699999969469	RIGHT	112.0760000003429	RIGHT	1254.7036000000844	RIGHT	1231.5637000001516	38.59999999999999	0.8	Probable_Lie	LEFT	LEFT	5	845.320399999764	132	2020-02-11 12:33:13.168033
54	Self	S200211	0.5	1	2	2	1	0.7	1350.0000027	1066.6666688	2350.0000047	1500.000003	Major	Wrong_doings	14	You have faked an illness	C2_25	1.0	Hard	I1_33	2	Mexico's National Day is September 16	0.833333333333333	No	RIGHT	314.3700999999055	RIGHT	64.23180000001594	LEFT	1431.145000000015	LEFT	1947.0062000000323	39.29999999999999	0.7	Probable_Truth	RIGHT	RIGHT	6	1381.6071000001102	133	2020-02-11 12:33:37.150471
39	Self	S200211	0.8333333333333334	1	2	2	1	0.6	1433.3333362	1150.0000023	2216.6666711000003	1650.0000033	Minor	Good_deeds	57	You have a non-judgmental attitude towards everyone	C2_6	0.95	Hard	I1_37	38	Christmas Day is in March	0.0	Yes	RIGHT	464.1128000002937	RIGHT	152.25699999973585	RIGHT	1233.2111999999142	LEFT	944.5353000000978	39.89999999999999	0.6	Probable_Truth	LEFT	LEFT	1	636.7073999999775	134	2020-02-11 12:33:59.606579
51	Self	S200211	0.5	1	2	1	2	0.8	1066.6666688	1150.0000023	1650.0000033	1783.3333369	Minor	Good_deeds	25	You have taken responsibility for your actions	C2_14	0.85	Hard	I1_24	33	Penguin can fly with their wings	0.944444444444444	Yes	RIGHT	247.52379999972615	RIGHT	112.77010000003428	RIGHT	1092.0725000000857	LEFT	1623.389699999734	40.69999999999999	0.8	Probable_Truth	RIGHT	LEFT	2	1225.9383000000523	135	2020-02-11 12:34:22.135669
41	Self	S200211	0.8333333333333334	2	1	1	2	0.1	1216.6666691	1283.3333359	2350.0000047	1783.3333369	Minor	Wrong_doings	29	You have watched a pirated movie	C2_54	0.05	Easy	I2_49	53	South East Asia is currently free from polio	0.777777777777778	No	LEFT	303.54150000039226	RIGHT	946.8959999999242	LEFT	683.7350999999217	RIGHT	1232.0309000001544	40.59999999999999	0.1	Probable_Lie	RIGHT	RIGHT	1	751.6977999998744	136	2020-02-11 12:34:45.263571
44	Self	S200211	0.8333333333333334	2	1	2	1	0.2	1283.3333359	1433.3333362	1933.3333372	2350.0000047	Major	Good_deeds	44	You have lied to your parents	C1_33	0.0	Easy	I1_39	38	The first Olympic Games was held in the 5th century B.C	0.888888888888889	No	RIGHT	545.1758000003792	RIGHT	268.5320000000502	LEFT	991.0115000002406	LEFT	1733.77789999995	40.79999999999999	0.2	Probable_Lie	LEFT	LEFT	2	521.7178000002605	137	2020-02-11 12:35:08.895841
121	Computer	S200211	0.6666666666666666	2	1	1	2	0.7	1500.000003	1350.0000027	2066.6666708	1650.0000033	Major	Good_deeds	9	You have kept your promises	C1_4	0.9	Hard	I2_39	18	Red is a color	0.166666666666667	No	RIGHT	136.9499000002179	LEFT	879.4004999999743	RIGHT	1144.2876999999498	RIGHT	623.5735000000204	40.79999999999999	0.7	Probable_Truth	RIGHT	LEFT	1	518.6507247380873	138	2020-02-11 12:35:31.335814
59	Self	S200211	0.5	2	1	1	2	0.2	1283.3333359	1500.000003	2216.6666711000003	1933.3333372	Major	Good_deeds	1	You have been donating all your excess food to a food bank	C1_22	0.8	Hard	I1_50	50	It is 20th Century now	0.0	Yes	RIGHT	1.0944000000563392	RIGHT	576.224700000239	RIGHT	2658.7155000001985	LEFT	833.228500000132	40.99999999999999	0.2	Probable_Lie	LEFT	RIGHT	2	548.6840000003212	139	2020-02-11 12:35:55.462523
89	Self	S200211	0.8333333333333334	2	1	1	2	0.5	1216.6666691	1283.3333359	1500.000003	1783.3333369	Major	Wrong_doings	24	You have bought cigarettes for a minor	C2_57	0.7	Easy	I2_42	5	"Statue of Liberty is 151 feet tall"	0.0555555555555556	No	RIGHT	217.083200000161	RIGHT	302.0490999997492	LEFT	1162.8496000002997	RIGHT	1560.3707999998733	41.49999999999999	0.5	Probable_Lie	RIGHT	RIGHT	1	569.9856000001091	140	2020-02-11 12:36:17.631691
12	Self	S200211	0.5	2	1	2	1	0.4	1283.3333359	1433.3333362	2216.6666711000003	1933.3333372	Minor	Good_deeds	10	You have offered a listening ear to a friend	C2_10	0.0	Easy	I1_10	9	The sun rises at night	0.0	Yes	RIGHT	192.5719000000754	RIGHT	240.05170000009457	RIGHT	936.1822000000756	LEFT	900.796999999784	41.89999999999999	0.4	Probable_Lie	LEFT	LEFT	6	730.6133000001864	141	2020-02-11 12:36:40.071250
94	Self	S200211	0.8333333333333334	2	1	2	1	0.8	1066.6666688	1066.6666688	1933.3333372	2066.6666708	Minor	Good_deeds	6	You have cursed at your loved ones	C1_45	0.05	Hard	I1_40	42	Brazil is in South America	0.833333333333333	Yes	RIGHT	193.02650000008725	RIGHT	268.36249999996653	LEFT	960.9152000002724	LEFT	1647.7030000000923	42.69999999999999	0.8	Probable_Lie	LEFT	LEFT	5	527.3419999998623	142	2020-02-11 12:37:02.375459
18	Self	S200211	0.6666666666666666	1	2	1	2	0.6	1283.3333359	1066.6666688	2500.000005	2500.000005	Minor	Good_deeds	13	You have been physically hurt to protect others	C1_20	0.2	Easy	I2_4	4	There are 6000 spoken languages in the World	0.0	Yes	RIGHT	276.1382999997295	RIGHT	312.41769999996905	RIGHT	1357.9215999998269	RIGHT	1448.4893000003467	43.29999999999999	0.6	Probable_Lie	LEFT	LEFT	5	655.2118999998129	143	2020-02-11 12:37:26.350489
