Participant	Task	Stimulus_Side	Response	RT	ITI	Previous_Response	Previous_RT	Trial_Onset	Trial_End	Trial_Order	Duration	Conflict	Cue_Response	Cue_Response_RT	Stop_Signal	Stop_Signal_RT
S200211	Conflict_Resolution	LEFT	LEFT	487.634899999989	950.0000019	n/a	n/a	2020-02-11 11:19:16.317135	2020-02-11 11:19:17.013973	1	6.00171296666667	False	n/a	n/a	n/a	n/a
S200211	Conflict_Resolution	RIGHT	RIGHT	473.6951000001	1266.6666692	n/a	n/a	2020-02-11 11:19:18.299076	2020-02-11 11:19:18.981274	2	6.00171296666667	True	n/a	n/a	n/a	n/a
S200211	Conflict_Resolution	LEFT	LEFT	381.344899999931	1366.6666694	n/a	n/a	2020-02-11 11:19:20.367654	2020-02-11 11:19:20.956597	3	6.00171296666667	False	n/a	n/a	n/a	n/a
S200211	Conflict_Resolution	LEFT	LEFT	392.199699999992	516.6666677	n/a	n/a	2020-02-11 11:19:21.492183	2020-02-11 11:19:22.092632	4	6.00171296666667	False	n/a	n/a	n/a	n/a
S200211	Conflict_Resolution	RIGHT	RIGHT	436.546300000032	850.0000017	n/a	n/a	2020-02-11 11:19:22.960200	2020-02-11 11:19:23.604962	5	6.00171296666667	True	n/a	n/a	n/a	n/a
S200211	Conflict_Resolution	RIGHT	RIGHT	372.342099999969	800.0000016	n/a	n/a	2020-02-11 11:19:24.424550	2020-02-11 11:19:25.005339	6	6.00171296666667	True	n/a	n/a	n/a	n/a
S200211	Conflict_Resolution	RIGHT	RIGHT	458.651599999939	1466.6666696	n/a	n/a	2020-02-11 11:19:26.490248	2020-02-11 11:19:27.156593	7	6.00171296666667	True	n/a	n/a	n/a	n/a
S200211	Conflict_Resolution	RIGHT	RIGHT	302.996399999984	550.0000011	n/a	n/a	2020-02-11 11:19:27.725317	2020-02-11 11:19:28.236909	8	6.00171296666667	True	n/a	n/a	n/a	n/a
S200211	Conflict_Resolution	RIGHT	RIGHT	356.112099999905	650.0000013	n/a	n/a	2020-02-11 11:19:28.904747	2020-02-11 11:19:29.468222	9	6.00171296666667	True	n/a	n/a	n/a	n/a
S200211	Conflict_Resolution	RIGHT	RIGHT	475.809700000013	683.3333347	n/a	n/a	2020-02-11 11:19:30.168349	2020-02-11 11:19:30.852406	10	6.00171296666667	True	n/a	n/a	n/a	n/a
S200211	Conflict_Resolution	LEFT	RIGHT	391.345300000012	1150.0000023	n/a	n/a	2020-02-11 11:19:32.021381	2020-02-11 11:19:32.621157	11	6.00171296666667	True	n/a	n/a	n/a	n/a
S200211	Conflict_Resolution	LEFT	LEFT	474.103300000024	1450.0000029	n/a	n/a	2020-02-11 11:19:34.090880	2020-02-11 11:19:34.772375	12	6.00171296666667	True	n/a	n/a	n/a	n/a
S200211	Conflict_Resolution	LEFT	LEFT	361.06570000004	1500.000003	n/a	n/a	2020-02-11 11:19:36.291224	2020-02-11 11:19:36.862475	13	6.00171296666667	False	n/a	n/a	n/a	n/a
S200211	Conflict_Resolution	RIGHT	RIGHT	445.325799999978	933.3333352	n/a	n/a	2020-02-11 11:19:37.815229	2020-02-11 11:19:38.468179	14	6.00171296666667	True	n/a	n/a	n/a	n/a
S200211	Conflict_Resolution	RIGHT	RIGHT	388.088599999946	1050.0000021	n/a	n/a	2020-02-11 11:19:39.536744	2020-02-11 11:19:40.132081	15	6.00171296666667	False	n/a	n/a	n/a	n/a
S200211	Conflict_Resolution	LEFT	LEFT	419.527199999948	850.0000017	n/a	n/a	2020-02-11 11:19:41.000726	2020-02-11 11:19:41.628841	16	6.00171296666667	False	n/a	n/a	n/a	n/a
S200211	Conflict_Resolution	RIGHT	RIGHT	442.936299999928	1433.3333362	n/a	n/a	2020-02-11 11:19:43.081694	2020-02-11 11:19:43.732804	17	6.00171296666667	True	n/a	n/a	n/a	n/a
S200211	Conflict_Resolution	RIGHT	RIGHT	425.674299999969	850.0000017	n/a	n/a	2020-02-11 11:19:44.603437	2020-02-11 11:19:45.236948	18	6.00171296666667	False	n/a	n/a	n/a	n/a
S200211	Conflict_Resolution	LEFT	LEFT	526.632699999936	583.3333345	n/a	n/a	2020-02-11 11:19:45.838511	2020-02-11 11:19:46.573105	19	6.00171296666667	True	n/a	n/a	n/a	n/a
S200211	Conflict_Resolution	LEFT	RIGHT	358.302600000002	966.6666686	n/a	n/a	2020-02-11 11:19:47.558086	2020-02-11 11:19:48.124616	20	6.00171296666667	True	n/a	n/a	n/a	n/a
S200211	Conflict_Resolution	LEFT	LEFT	467.452200000025	1050.0000021	n/a	n/a	2020-02-11 11:19:49.192941	2020-02-11 11:19:49.869176	21	6.00171296666667	True	n/a	n/a	n/a	n/a
S200211	Conflict_Resolution	RIGHT	RIGHT	395.187399999941	1233.3333358	n/a	n/a	2020-02-11 11:19:51.121709	2020-02-11 11:19:51.725099	22	6.00171296666667	False	n/a	n/a	n/a	n/a
S200211	Conflict_Resolution	LEFT	LEFT	473.070000000007	1250.0000025	n/a	n/a	2020-02-11 11:19:52.995377	2020-02-11 11:19:53.676351	23	6.00171296666667	True	n/a	n/a	n/a	n/a
S200211	Conflict_Resolution	RIGHT	RIGHT	421.865400000002	800.0000016	n/a	n/a	2020-02-11 11:19:54.494761	2020-02-11 11:19:55.124595	24	6.00171296666667	False	n/a	n/a	n/a	n/a
S200211	Conflict_Resolution	LEFT	LEFT	537.909899999931	1300.0000026	n/a	n/a	2020-02-11 11:19:56.442683	2020-02-11 11:19:57.189732	25	6.00171296666667	True	n/a	n/a	n/a	n/a
S200211	Conflict_Resolution	LEFT	LEFT	462.95699999996	533.3333344	n/a	n/a	2020-02-11 11:19:57.742065	2020-02-11 11:19:58.412250	26	6.00171296666667	True	n/a	n/a	n/a	n/a
S200211	Conflict_Resolution	LEFT	LEFT	376.992399999949	916.6666685	n/a	n/a	2020-02-11 11:19:59.347941	2020-02-11 11:19:59.932665	27	6.00171296666667	False	n/a	n/a	n/a	n/a
S200211	Conflict_Resolution	RIGHT	RIGHT	415.242400000011	533.3333344	n/a	n/a	2020-02-11 11:20:00.485495	2020-02-11 11:20:01.108229	28	6.00171296666667	False	n/a	n/a	n/a	n/a
S200211	Conflict_Resolution	LEFT	LEFT	487.525399999981	1350.0000027	n/a	n/a	2020-02-11 11:20:02.476785	2020-02-11 11:20:03.172919	29	6.00171296666667	True	n/a	n/a	n/a	n/a
S200211	Conflict_Resolution	RIGHT	RIGHT	490.65829999995	650.0000013	n/a	n/a	2020-02-11 11:20:03.842220	2020-02-11 11:20:04.540319	30	6.00171296666667	False	n/a	n/a	n/a	n/a
S200211	Conflict_Resolution	RIGHT	RIGHT	721.25200000005	883.3333351	n/a	n/a	2020-02-11 11:20:05.443027	2020-02-11 11:20:06.372351	31	6.00171296666667	True	n/a	n/a	n/a	n/a
S200211	Conflict_Resolution	LEFT	LEFT	551.962600000024	733.3333348	n/a	n/a	2020-02-11 11:20:07.124302	2020-02-11 11:20:07.884426	32	6.00171296666667	True	n/a	n/a	n/a	n/a
S200211	Conflict_Resolution	RIGHT	RIGHT	449.74609999997	683.3333347	n/a	n/a	2020-02-11 11:20:08.587108	2020-02-11 11:20:09.245710	33	6.00171296666667	False	n/a	n/a	n/a	n/a
S200211	Conflict_Resolution	RIGHT	RIGHT	539.824199999998	833.333335	n/a	n/a	2020-02-11 11:20:10.096950	2020-02-11 11:20:10.844942	34	6.00171296666667	True	n/a	n/a	n/a	n/a
S200211	Conflict_Resolution	LEFT	LEFT	486.166799999978	1000.000002	n/a	n/a	2020-02-11 11:20:11.862639	2020-02-11 11:20:12.557430	35	6.00171296666667	True	n/a	n/a	n/a	n/a
S200211	Conflict_Resolution	RIGHT	RIGHT	413.779399999953	1183.3333357	n/a	n/a	2020-02-11 11:20:13.758700	2020-02-11 11:20:14.380433	36	6.00171296666667	False	n/a	n/a	n/a	n/a
S200211	Conflict_Resolution	LEFT	LEFT	416.563099999962	1116.6666689	n/a	n/a	2020-02-11 11:20:15.516404	2020-02-11 11:20:16.140465	37	6.00171296666667	False	n/a	n/a	n/a	n/a
S200211	Conflict_Resolution	RIGHT	RIGHT	521.331299999929	733.3333348	n/a	n/a	2020-02-11 11:20:16.891506	2020-02-11 11:20:17.620926	38	6.00171296666667	True	n/a	n/a	n/a	n/a
S200211	Conflict_Resolution	RIGHT	RIGHT	347.212399999989	1466.6666696	n/a	n/a	2020-02-11 11:20:19.105423	2020-02-11 11:20:19.660791	39	6.00171296666667	False	n/a	n/a	n/a	n/a
S200211	Conflict_Resolution	LEFT	LEFT	459.11650000005	850.0000017	n/a	n/a	2020-02-11 11:20:20.529895	2020-02-11 11:20:21.196010	40	6.00171296666667	True	n/a	n/a	n/a	n/a
S200211	Conflict_Resolution	RIGHT	RIGHT	362.65400000002	1433.3333362	n/a	n/a	2020-02-11 11:20:22.649841	2020-02-11 11:20:23.221004	41	6.00171296666667	False	n/a	n/a	n/a	n/a
S200211	Conflict_Resolution	RIGHT	RIGHT	525.977000000012	1383.3333361	n/a	n/a	2020-02-11 11:20:24.623001	2020-02-11 11:20:25.356405	42	6.00171296666667	True	n/a	n/a	n/a	n/a
S200211	Conflict_Resolution	RIGHT	RIGHT	386.07669999999	1483.3333363	n/a	n/a	2020-02-11 11:20:26.859012	2020-02-11 11:20:27.452235	43	6.00171296666667	False	n/a	n/a	n/a	n/a
S200211	Conflict_Resolution	RIGHT	RIGHT	336.241800000039	933.3333352	n/a	n/a	2020-02-11 11:20:28.404136	2020-02-11 11:20:28.948968	44	6.00171296666667	False	n/a	n/a	n/a	n/a
S200211	Conflict_Resolution	LEFT	LEFT	409.670900000037	1266.6666692	n/a	n/a	2020-02-11 11:20:30.234729	2020-02-11 11:20:30.853887	45	6.00171296666667	False	n/a	n/a	n/a	n/a
S200211	Conflict_Resolution	LEFT	LEFT	486.096199999906	716.6666681	n/a	n/a	2020-02-11 11:20:31.590507	2020-02-11 11:20:32.285018	46	6.00171296666667	True	n/a	n/a	n/a	n/a
S200211	Conflict_Resolution	RIGHT	RIGHT	650.024299999927	1033.3333354	n/a	n/a	2020-02-11 11:20:33.338230	2020-02-11 11:20:34.196277	47	6.00171296666667	True	n/a	n/a	n/a	n/a
S200211	Conflict_Resolution	LEFT	LEFT	434.291799999983	866.6666684	n/a	n/a	2020-02-11 11:20:35.082683	2020-02-11 11:20:35.724791	48	6.00171296666667	True	n/a	n/a	n/a	n/a
S200211	Conflict_Resolution	LEFT	LEFT	384.974700000043	1100.0000022	n/a	n/a	2020-02-11 11:20:36.843887	2020-02-11 11:20:37.437052	49	6.00171296666667	False	n/a	n/a	n/a	n/a
S200211	Conflict_Resolution	LEFT	LEFT	413.375200000019	616.6666679	n/a	n/a	2020-02-11 11:20:38.071358	2020-02-11 11:20:38.692520	50	6.00171296666667	True	n/a	n/a	n/a	n/a
S200211	Conflict_Resolution	LEFT	LEFT	506.693699999914	1466.6666696	n/a	n/a	2020-02-11 11:20:40.177612	2020-02-11 11:20:40.893058	51	6.00171296666667	True	n/a	n/a	n/a	n/a
S200211	Conflict_Resolution	RIGHT	RIGHT	344.1957	1266.6666692	n/a	n/a	2020-02-11 11:20:42.180838	2020-02-11 11:20:42.732878	52	6.00171296666667	False	n/a	n/a	n/a	n/a
S200211	Conflict_Resolution	RIGHT	RIGHT	461.490799999979	783.3333349	n/a	n/a	2020-02-11 11:20:43.534790	2020-02-11 11:20:44.205090	53	6.00171296666667	True	n/a	n/a	n/a	n/a
S200211	Conflict_Resolution	LEFT	LEFT	610.677500000065	633.3333346	n/a	n/a	2020-02-11 11:20:44.858082	2020-02-11 11:20:45.676579	54	6.00171296666667	True	n/a	n/a	n/a	n/a
S200211	Conflict_Resolution	LEFT	LEFT	390.209099999993	1200.0000024	n/a	n/a	2020-02-11 11:20:46.894048	2020-02-11 11:20:47.492401	55	6.00171296666667	False	n/a	n/a	n/a	n/a
S200211	Conflict_Resolution	LEFT	LEFT	349.315700000034	633.3333346	n/a	n/a	2020-02-11 11:20:48.143305	2020-02-11 11:20:48.700471	56	6.00171296666667	False	n/a	n/a	n/a	n/a
S200211	Conflict_Resolution	RIGHT	RIGHT	286.191799999983	950.0000019	n/a	n/a	2020-02-11 11:20:49.670681	2020-02-11 11:20:50.164396	57	6.00171296666667	False	n/a	n/a	n/a	n/a
S200211	Conflict_Resolution	LEFT	LEFT	329.255900000021	900.0000018	n/a	n/a	2020-02-11 11:20:51.083320	2020-02-11 11:20:51.621077	58	6.00171296666667	False	n/a	n/a	n/a	n/a
S200211	Conflict_Resolution	RIGHT	RIGHT	383.222899999964	1366.6666694	n/a	n/a	2020-02-11 11:20:53.005569	2020-02-11 11:20:53.596529	59	6.00171296666667	False	n/a	n/a	n/a	n/a
S200211	Conflict_Resolution	LEFT	LEFT	497.849499999916	900.0000018	n/a	n/a	2020-02-11 11:20:54.514659	2020-02-11 11:20:55.220410	60	6.00171296666667	True	n/a	n/a	n/a	n/a
S200211	Conflict_Resolution	RIGHT	RIGHT	480.726899999922	1083.3333355	n/a	n/a	2020-02-11 11:20:56.323576	2020-02-11 11:20:57.014033	61	6.00171296666667	True	n/a	n/a	n/a	n/a
S200211	Conflict_Resolution	RIGHT	RIGHT	416.022300000009	900.0000018	n/a	n/a	2020-02-11 11:20:57.932620	2020-02-11 11:20:58.556768	62	6.00171296666667	True	n/a	n/a	n/a	n/a
S200211	Conflict_Resolution	LEFT	LEFT	537.191399999983	1500.000003	n/a	n/a	2020-02-11 11:21:00.075172	2020-02-11 11:21:00.821001	63	6.00171296666667	True	n/a	n/a	n/a	n/a
S200211	Conflict_Resolution	LEFT	LEFT	385.575399999993	1266.6666692	n/a	n/a	2020-02-11 11:21:02.106826	2020-02-11 11:21:02.700997	64	6.00171296666667	True	n/a	n/a	n/a	n/a
S200211	Conflict_Resolution	RIGHT	LEFT	390.654599999948	750.0000015	n/a	n/a	2020-02-11 11:21:03.469518	2020-02-11 11:21:04.067709	65	6.00171296666667	True	n/a	n/a	n/a	n/a
S200211	Conflict_Resolution	RIGHT	RIGHT	362.710500000048	1083.3333355	n/a	n/a	2020-02-11 11:21:05.169642	2020-02-11 11:21:05.740241	66	6.00171296666667	False	n/a	n/a	n/a	n/a
S200211	Conflict_Resolution	RIGHT	RIGHT	339.466899999934	1283.3333359	n/a	n/a	2020-02-11 11:21:07.040974	2020-02-11 11:21:07.587515	67	6.00171296666667	False	n/a	n/a	n/a	n/a
S200211	Conflict_Resolution	LEFT	LEFT	516.37530000005	666.666668	n/a	n/a	2020-02-11 11:21:08.271975	2020-02-11 11:21:08.996540	68	6.00171296666667	True	n/a	n/a	n/a	n/a
S200211	Conflict_Resolution	LEFT	LEFT	357.168099999967	1000.000002	n/a	n/a	2020-02-11 11:21:10.015374	2020-02-11 11:21:10.580896	69	6.00171296666667	False	n/a	n/a	n/a	n/a
S200211	Conflict_Resolution	LEFT	RIGHT	363.842299999988	816.6666683	n/a	n/a	2020-02-11 11:21:11.416898	2020-02-11 11:21:11.988594	70	6.00171296666667	True	n/a	n/a	n/a	n/a
S200211	Conflict_Resolution	RIGHT	RIGHT	453.555400000027	1183.3333357	n/a	n/a	2020-02-11 11:21:13.190800	2020-02-11 11:21:13.851244	71	6.00171296666667	True	n/a	n/a	n/a	n/a
S200211	Conflict_Resolution	RIGHT	RIGHT	560.275100000013	1150.0000023	n/a	n/a	2020-02-11 11:21:15.019879	2020-02-11 11:21:15.788531	72	6.00171296666667	True	n/a	n/a	n/a	n/a
S200211	Conflict_Resolution	LEFT	LEFT	518.517000000088	766.6666682	n/a	n/a	2020-02-11 11:21:16.573790	2020-02-11 11:21:17.301412	73	6.00171296666667	True	n/a	n/a	n/a	n/a
S200211	Conflict_Resolution	RIGHT	RIGHT	467.427000000043	1216.6666691	n/a	n/a	2020-02-11 11:21:18.536785	2020-02-11 11:21:19.213091	74	6.00171296666667	False	n/a	n/a	n/a	n/a
S200211	Conflict_Resolution	LEFT	LEFT	494.099799999958	1366.6666694	n/a	n/a	2020-02-11 11:21:20.598976	2020-02-11 11:21:21.300422	75	6.00171296666667	True	n/a	n/a	n/a	n/a
S200211	Conflict_Resolution	LEFT	LEFT	399.123599999939	1150.0000023	n/a	n/a	2020-02-11 11:21:22.469324	2020-02-11 11:21:23.077212	76	6.00171296666667	False	n/a	n/a	n/a	n/a
S200211	Conflict_Resolution	RIGHT	RIGHT	539.066300000059	633.3333346	n/a	n/a	2020-02-11 11:21:23.729431	2020-02-11 11:21:24.476464	77	6.00171296666667	False	n/a	n/a	n/a	n/a
S200211	Conflict_Resolution	LEFT	LEFT	445.771100000002	583.3333345	n/a	n/a	2020-02-11 11:21:25.078515	2020-02-11 11:21:25.732858	78	6.00171296666667	False	n/a	n/a	n/a	n/a
S200211	Conflict_Resolution	LEFT	RIGHT	342.905900000005	1316.6666693	n/a	n/a	2020-02-11 11:21:27.069353	2020-02-11 11:21:27.620911	79	6.00171296666667	True	n/a	n/a	n/a	n/a
S200211	Conflict_Resolution	RIGHT	RIGHT	391.485799999941	1316.6666693	n/a	n/a	2020-02-11 11:21:28.957475	2020-02-11 11:21:29.557079	80	6.00171296666667	False	n/a	n/a	n/a	n/a
S200211	Conflict_Resolution	LEFT	LEFT	599.761999999942	516.6666677	n/a	n/a	2020-02-11 11:21:30.092650	2020-02-11 11:21:30.900556	81	6.00171296666667	True	n/a	n/a	n/a	n/a
S200211	Conflict_Resolution	RIGHT	RIGHT	378.28669999999	500.000001	n/a	n/a	2020-02-11 11:21:31.418183	2020-02-11 11:21:32.004788	82	6.00171296666667	False	n/a	n/a	n/a	n/a
S200211	Conflict_Resolution	RIGHT	RIGHT	389.602500000024	983.3333353	n/a	n/a	2020-02-11 11:21:33.006680	2020-02-11 11:21:33.606067	83	6.00171296666667	False	n/a	n/a	n/a	n/a
S200211	Conflict_Resolution	RIGHT	RIGHT	388.493100000005	783.3333349	n/a	n/a	2020-02-11 11:21:34.408482	2020-02-11 11:21:35.004393	84	6.00171296666667	False	n/a	n/a	n/a	n/a
S200211	Conflict_Resolution	LEFT	LEFT	466.911900000014	1050.0000021	n/a	n/a	2020-02-11 11:21:36.074110	2020-02-11 11:21:36.748580	85	6.00171296666667	False	n/a	n/a	n/a	n/a
S200211	Conflict_Resolution	LEFT	LEFT	504.546799999957	916.6666685	n/a	n/a	2020-02-11 11:21:37.683736	2020-02-11 11:21:38.396720	86	6.00171296666667	True	n/a	n/a	n/a	n/a
S200211	Conflict_Resolution	RIGHT	LEFT	399.985900000047	1316.6666693	n/a	n/a	2020-02-11 11:21:39.732465	2020-02-11 11:21:40.340225	87	6.00171296666667	True	n/a	n/a	n/a	n/a
S200211	Conflict_Resolution	LEFT	LEFT	560.323299999936	566.6666678	n/a	n/a	2020-02-11 11:21:40.924758	2020-02-11 11:21:41.692350	88	6.00171296666667	True	n/a	n/a	n/a	n/a
S200211	Conflict_Resolution	RIGHT	RIGHT	470.504000000005	1366.6666694	n/a	n/a	2020-02-11 11:21:43.077719	2020-02-11 11:21:43.757037	89	6.00171296666667	True	n/a	n/a	n/a	n/a
S200211	Conflict_Resolution	RIGHT	RIGHT	553.282700000068	1483.3333363	n/a	n/a	2020-02-11 11:21:45.259656	2020-02-11 11:21:46.020435	90	6.00171296666667	True	n/a	n/a	n/a	n/a
S200211	Conflict_Resolution	RIGHT	RIGHT	428.363500000046	600.0000012	n/a	n/a	2020-02-11 11:21:46.640380	2020-02-11 11:21:47.276710	91	6.00171296666667	True	n/a	n/a	n/a	n/a
S200211	Conflict_Resolution	LEFT	LEFT	426.997700000015	1400.0000028	n/a	n/a	2020-02-11 11:21:48.697528	2020-02-11 11:21:49.332753	92	6.00171296666667	False	n/a	n/a	n/a	n/a
S200211	Conflict_Resolution	LEFT	LEFT	500.364699999977	1200.0000024	n/a	n/a	2020-02-11 11:21:50.552167	2020-02-11 11:21:51.260831	93	6.00171296666667	True	n/a	n/a	n/a	n/a
S200211	Conflict_Resolution	RIGHT	RIGHT	397.207600000002	1416.6666695	n/a	n/a	2020-02-11 11:21:52.695670	2020-02-11 11:21:53.300601	94	6.00171296666667	False	n/a	n/a	n/a	n/a
S200211	Conflict_Resolution	RIGHT	RIGHT	433.139399999959	700.0000014	n/a	n/a	2020-02-11 11:21:54.019169	2020-02-11 11:21:54.660812	95	6.00171296666667	True	n/a	n/a	n/a	n/a
S200211	Conflict_Resolution	LEFT	LEFT	408.013300000107	1316.6666693	n/a	n/a	2020-02-11 11:21:55.996204	2020-02-11 11:21:56.612182	96	6.00171296666667	False	n/a	n/a	n/a	n/a
S200211	Conflict_Resolution	LEFT	LEFT	383.2807	1350.0000027	n/a	n/a	2020-02-11 11:21:57.981410	2020-02-11 11:21:58.572458	97	6.00171296666667	False	n/a	n/a	n/a	n/a
S200211	Conflict_Resolution	RIGHT	RIGHT	461.341800000014	633.3333346	n/a	n/a	2020-02-11 11:21:59.222990	2020-02-11 11:21:59.892403	98	6.00171296666667	True	n/a	n/a	n/a	n/a
S200211	Conflict_Resolution	LEFT	LEFT	434.455700000058	1066.6666688	n/a	n/a	2020-02-11 11:22:00.978451	2020-02-11 11:22:01.620481	99	6.00171296666667	True	n/a	n/a	n/a	n/a
S200211	Conflict_Resolution	RIGHT	RIGHT	444.268299999976	1050.0000021	n/a	n/a	2020-02-11 11:22:02.688189	2020-02-11 11:22:03.340544	100	6.00171296666667	True	n/a	n/a	n/a	n/a
S200211	Conflict_Resolution	LEFT	LEFT	471.502299999997	533.3333344	n/a	n/a	2020-02-11 11:22:03.893637	2020-02-11 11:22:04.572043	101	6.00171296666667	False	n/a	n/a	n/a	n/a
S200211	Conflict_Resolution	RIGHT	RIGHT	382.396900000003	583.3333345	n/a	n/a	2020-02-11 11:22:05.174435	2020-02-11 11:22:05.764244	102	6.00171296666667	False	n/a	n/a	n/a	n/a
S200211	Conflict_Resolution	RIGHT	RIGHT	378.68990000004	900.0000018	n/a	n/a	2020-02-11 11:22:06.682246	2020-02-11 11:22:07.267852	103	6.00171296666667	False	n/a	n/a	n/a	n/a
S200211	Conflict_Resolution	RIGHT	RIGHT	304.573000000005	733.3333348	n/a	n/a	2020-02-11 11:22:08.019913	2020-02-11 11:22:08.532558	104	6.00171296666667	False	n/a	n/a	n/a	n/a
S200211	Conflict_Resolution	RIGHT	LEFT	381.725899999992	983.3333353	n/a	n/a	2020-02-11 11:22:09.534508	2020-02-11 11:22:10.125110	105	6.00171296666667	True	n/a	n/a	n/a	n/a
S200211	Conflict_Resolution	RIGHT	RIGHT	635.903399999961	1216.6666691	n/a	n/a	2020-02-11 11:22:11.360460	2020-02-11 11:22:12.203950	106	6.00171296666667	True	n/a	n/a	n/a	n/a
S200211	Conflict_Resolution	RIGHT	RIGHT	388.092900000061	1033.3333354	n/a	n/a	2020-02-11 11:22:13.256224	2020-02-11 11:22:13.853018	107	6.00171296666667	False	n/a	n/a	n/a	n/a
S200211	Conflict_Resolution	RIGHT	RIGHT	415.401299999985	1333.333336	n/a	n/a	2020-02-11 11:22:15.204942	2020-02-11 11:22:15.828457	108	6.00171296666667	False	n/a	n/a	n/a	n/a
S200211	Conflict_Resolution	RIGHT	RIGHT	382.038299999977	1383.3333361	n/a	n/a	2020-02-11 11:22:17.231043	2020-02-11 11:22:17.821020	109	6.00171296666667	False	n/a	n/a	n/a	n/a
S200211	Conflict_Resolution	RIGHT	RIGHT	461.589000000004	1416.6666695	n/a	n/a	2020-02-11 11:22:19.255466	2020-02-11 11:22:19.924676	110	6.00171296666667	True	n/a	n/a	n/a	n/a
S200211	Conflict_Resolution	LEFT	LEFT	532.567000000085	1416.6666695	n/a	n/a	2020-02-11 11:22:21.360311	2020-02-11 11:22:22.100482	111	6.00171296666667	True	n/a	n/a	n/a	n/a
S200211	Conflict_Resolution	LEFT	LEFT	465.879299999983	1116.6666689	n/a	n/a	2020-02-11 11:22:23.234895	2020-02-11 11:22:23.907965	112	6.00171296666667	True	n/a	n/a	n/a	n/a
S200211	Conflict_Resolution	RIGHT	RIGHT	582.565300000056	1150.0000023	n/a	n/a	2020-02-11 11:22:25.077880	2020-02-11 11:22:25.868867	113	6.00171296666667	False	n/a	n/a	n/a	n/a
S200211	Conflict_Resolution	LEFT	LEFT	411.369799999989	816.6666683	n/a	n/a	2020-02-11 11:22:26.705729	2020-02-11 11:22:27.323576	114	6.00171296666667	False	n/a	n/a	n/a	n/a
S200211	Conflict_Resolution	LEFT	LEFT	375.661400000013	966.6666686	n/a	n/a	2020-02-11 11:22:28.308609	2020-02-11 11:22:28.892724	115	6.00171296666667	False	n/a	n/a	n/a	n/a
S200211	Conflict_Resolution	RIGHT	RIGHT	408.814200000052	1333.333336	n/a	n/a	2020-02-11 11:22:30.243915	2020-02-11 11:22:30.861137	116	6.00171296666667	True	n/a	n/a	n/a	n/a
S200211	Conflict_Resolution	RIGHT	RIGHT	510.613499999977	950.0000019	n/a	n/a	2020-02-11 11:22:31.830197	2020-02-11 11:22:32.547848	117	6.00171296666667	True	n/a	n/a	n/a	n/a
S200211	Conflict_Resolution	LEFT	LEFT	494.453799999974	783.3333349	n/a	n/a	2020-02-11 11:22:33.349858	2020-02-11 11:22:34.053907	118	6.00171296666667	True	n/a	n/a	n/a	n/a
S200211	Conflict_Resolution	RIGHT	RIGHT	401.515200000063	700.0000014	n/a	n/a	2020-02-11 11:22:34.770989	2020-02-11 11:22:35.380316	119	6.00171296666667	False	n/a	n/a	n/a	n/a
S200211	Conflict_Resolution	RIGHT	RIGHT	431.025200000022	1133.3333356	n/a	n/a	2020-02-11 11:22:36.533812	2020-02-11 11:22:37.172784	120	6.00171296666667	True	n/a	n/a	n/a	n/a
S200211	Conflict_Resolution	LEFT	RIGHT	313.733700000057	683.3333347	n/a	n/a	2020-02-11 11:22:37.875171	2020-02-11 11:22:38.396774	121	6.00171296666667	True	n/a	n/a	n/a	n/a
S200211	Conflict_Resolution	LEFT	LEFT	480.916199999911	683.3333347	n/a	n/a	2020-02-11 11:22:39.099859	2020-02-11 11:22:39.787618	122	6.00171296666667	False	n/a	n/a	n/a	n/a
S200211	Conflict_Resolution	LEFT	LEFT	349.311300000068	1216.6666691	n/a	n/a	2020-02-11 11:22:41.023664	2020-02-11 11:22:41.580768	123	6.00171296666667	False	n/a	n/a	n/a	n/a
S200211	Conflict_Resolution	LEFT	RIGHT	366.247200000089	1400.0000028	n/a	n/a	2020-02-11 11:22:42.997834	2020-02-11 11:22:43.573037	124	6.00171296666667	True	n/a	n/a	n/a	n/a
S200211	Conflict_Resolution	LEFT	LEFT	376.911500000006	866.6666684	n/a	n/a	2020-02-11 11:22:44.459296	2020-02-11 11:22:45.045695	125	6.00171296666667	False	n/a	n/a	n/a	n/a
S200211	Conflict_Resolution	LEFT	LEFT	457.60580000001	1450.0000029	n/a	n/a	2020-02-11 11:22:46.515319	2020-02-11 11:22:47.180484	126	6.00171296666667	False	n/a	n/a	n/a	n/a
S200211	Conflict_Resolution	RIGHT	RIGHT	408.010200000035	1133.3333356	n/a	n/a	2020-02-11 11:22:48.332366	2020-02-11 11:22:48.948245	127	6.00171296666667	False	n/a	n/a	n/a	n/a
S200211	Conflict_Resolution	RIGHT	RIGHT	541.471000000001	1000.000002	n/a	n/a	2020-02-11 11:22:49.966814	2020-02-11 11:22:50.716760	128	6.00171296666667	True	n/a	n/a	n/a	n/a
S200211	Conflict_Resolution	LEFT	LEFT	459.94410000003	566.6666678	n/a	n/a	2020-02-11 11:22:51.304759	2020-02-11 11:22:51.972098	129	6.00171296666667	False	n/a	n/a	n/a	n/a
S200211	Conflict_Resolution	RIGHT	RIGHT	423.89490000005	750.0000015	n/a	n/a	2020-02-11 11:22:52.741200	2020-02-11 11:22:53.371580	130	6.00171296666667	False	n/a	n/a	n/a	n/a
S200211	Conflict_Resolution	RIGHT	RIGHT	352.058899999975	550.0000011	n/a	n/a	2020-02-11 11:22:53.940067	2020-02-11 11:22:54.499489	131	6.00171296666667	False	n/a	n/a	n/a	n/a
S200211	Conflict_Resolution	LEFT	LEFT	397.800099999927	1066.6666688	n/a	n/a	2020-02-11 11:22:55.584046	2020-02-11 11:22:56.189224	132	6.00171296666667	False	n/a	n/a	n/a	n/a
S200211	Conflict_Resolution	LEFT	LEFT	462.072400000011	1166.666669	n/a	n/a	2020-02-11 11:22:57.374883	2020-02-11 11:22:58.045600	133	6.00171296666667	True	n/a	n/a	n/a	n/a
S200211	Conflict_Resolution	RIGHT	RIGHT	483.596600000055	1233.3333358	n/a	n/a	2020-02-11 11:22:59.296812	2020-02-11 11:22:59.987412	134	6.00171296666667	True	n/a	n/a	n/a	n/a
S200211	Conflict_Resolution	RIGHT	RIGHT	378.324399999997	1100.0000022	n/a	n/a	2020-02-11 11:23:01.106287	2020-02-11 11:23:01.692475	135	6.00171296666667	False	n/a	n/a	n/a	n/a
S200211	Conflict_Resolution	RIGHT	RIGHT	341.852700000004	1000.000002	n/a	n/a	2020-02-11 11:23:02.710273	2020-02-11 11:23:03.260258	136	6.00171296666667	False	n/a	n/a	n/a	n/a
S200211	Conflict_Resolution	RIGHT	RIGHT	357.173699999976	833.333335	n/a	n/a	2020-02-11 11:23:04.111011	2020-02-11 11:23:04.675844	137	6.00171296666667	False	n/a	n/a	n/a	n/a
S200211	Conflict_Resolution	LEFT	LEFT	395.691300000067	1250.0000025	n/a	n/a	2020-02-11 11:23:05.944766	2020-02-11 11:23:06.548554	138	6.00171296666667	False	n/a	n/a	n/a	n/a
S200211	Conflict_Resolution	RIGHT	RIGHT	639.935899999955	533.3333344	n/a	n/a	2020-02-11 11:23:07.100922	2020-02-11 11:23:07.948739	139	6.00171296666667	True	n/a	n/a	n/a	n/a
S200211	Conflict_Resolution	LEFT	LEFT	614.072700000065	950.0000019	n/a	n/a	2020-02-11 11:23:08.918194	2020-02-11 11:23:09.741149	140	6.00171296666667	True	n/a	n/a	n/a	n/a
S200211	Conflict_Resolution	LEFT	LEFT	419.5686999999	1016.6666687	n/a	n/a	2020-02-11 11:23:10.776586	2020-02-11 11:23:11.405040	141	6.00171296666667	False	n/a	n/a	n/a	n/a
S200211	Conflict_Resolution	RIGHT	RIGHT	393.081100000018	883.3333351	n/a	n/a	2020-02-11 11:23:12.307869	2020-02-11 11:23:12.908865	142	6.00171296666667	False	n/a	n/a	n/a	n/a
S200211	Conflict_Resolution	RIGHT	RIGHT	541.806599999973	583.3333345	n/a	n/a	2020-02-11 11:23:13.510803	2020-02-11 11:23:14.261194	143	6.00171296666667	True	n/a	n/a	n/a	n/a
S200211	Conflict_Resolution	LEFT	LEFT	403.351199999975	616.6666679	n/a	n/a	2020-02-11 11:23:14.897532	2020-02-11 11:23:15.508028	144	6.00171296666667	False	n/a	n/a	n/a	n/a
S200211	Conflict_Resolution	LEFT	LEFT	391.902699999946	716.6666681	n/a	n/a	2020-02-11 11:23:16.244267	2020-02-11 11:23:16.844376	145	6.00171296666667	False	n/a	n/a	n/a	n/a
S200211	Conflict_Resolution	RIGHT	RIGHT	365.626300000031	600.0000012	n/a	n/a	2020-02-11 11:23:17.463253	2020-02-11 11:23:18.036713	146	6.00171296666667	False	n/a	n/a	n/a	n/a
S200211	Conflict_Resolution	LEFT	LEFT	386.27919999999	666.666668	n/a	n/a	2020-02-11 11:23:18.721963	2020-02-11 11:23:19.317034	147	6.00171296666667	False	n/a	n/a	n/a	n/a
S200211	Conflict_Resolution	LEFT	LEFT	499.702800000023	1016.6666687	n/a	n/a	2020-02-11 11:23:20.353282	2020-02-11 11:23:21.061165	148	6.00171296666667	True	n/a	n/a	n/a	n/a
S200211	Conflict_Resolution	RIGHT	RIGHT	432.446300000038	500.000001	n/a	n/a	2020-02-11 11:23:21.579746	2020-02-11 11:23:22.220279	149	6.00171296666667	True	n/a	n/a	n/a	n/a
S200211	Conflict_Resolution	LEFT	LEFT	462.042999999994	766.6666682	n/a	n/a	2020-02-11 11:23:23.006793	2020-02-11 11:23:23.676647	150	6.00171296666667	False	n/a	n/a	n/a	n/a
S200211	Conflict_Resolution	LEFT	RIGHT	384.997199999816	1100.0000022	n/a	n/a	2020-02-11 11:23:24.795737	2020-02-11 11:23:25.388316	151	6.00171296666667	True	n/a	n/a	n/a	n/a
S200211	Conflict_Resolution	LEFT	LEFT	423.356700000113	783.3333349	n/a	n/a	2020-02-11 11:23:26.189328	2020-02-11 11:23:26.820846	152	6.00171296666667	False	n/a	n/a	n/a	n/a
S200211	Conflict_Resolution	LEFT	LEFT	385.877899999969	1466.6666696	n/a	n/a	2020-02-11 11:23:28.306622	2020-02-11 11:23:28.901013	153	6.00171296666667	False	n/a	n/a	n/a	n/a
S200211	Conflict_Resolution	LEFT	LEFT	391.115099999979	1300.0000026	n/a	n/a	2020-02-11 11:23:30.221007	2020-02-11 11:23:30.820521	154	6.00171296666667	False	n/a	n/a	n/a	n/a
S200211	Conflict_Resolution	LEFT	LEFT	532.21869999993	1416.6666695	n/a	n/a	2020-02-11 11:23:32.256830	2020-02-11 11:23:32.996673	155	6.00171296666667	False	n/a	n/a	n/a	n/a
S200211	Conflict_Resolution	RIGHT	RIGHT	522.135599999956	1100.0000022	n/a	n/a	2020-02-11 11:23:34.114466	2020-02-11 11:23:34.844651	156	6.00171296666667	True	n/a	n/a	n/a	n/a
S200211	Conflict_Resolution	LEFT	LEFT	541.498500000216	1216.6666691	n/a	n/a	2020-02-11 11:23:36.078549	2020-02-11 11:23:36.827327	157	6.00171296666667	True	n/a	n/a	n/a	n/a
S200211	Conflict_Resolution	RIGHT	RIGHT	516.698299999916	1283.3333359	n/a	n/a	2020-02-11 11:23:38.128049	2020-02-11 11:23:38.852653	158	6.00171296666667	True	n/a	n/a	n/a	n/a
S200211	Conflict_Resolution	LEFT	LEFT	414.466200000106	733.3333348	n/a	n/a	2020-02-11 11:23:39.606335	2020-02-11 11:23:40.227908	159	6.00171296666667	False	n/a	n/a	n/a	n/a
S200211	Conflict_Resolution	LEFT	LEFT	358.92919999992	1166.666669	n/a	n/a	2020-02-11 11:23:41.413911	2020-02-11 11:23:41.980955	160	6.00171296666667	False	n/a	n/a	n/a	n/a
