"Participant"	"Task"	"Stimulus_Side"	"Response"	"RT"	"ITI"	"Previous_Response"	"Previous_RT"	"Stop_Signal"	"Stop_Signal_RT"	"Conflict"	"Cue_Response"	"Cue_Response_RT"	"Trial_Onset"	"Trial_End"	"Trial_Order"	"Duration"
"S200211"	"Conflict_Resolution"	"LEFT"	"LEFT"	487.634899999989	950.0000019	n/a	n/a	n/a	n/a	"False"	n/a	n/a	"2020-02-11 11:19:16.317135"	"2020-02-11 11:19:17.013973"	1	6.00171296666667
"S200211"	"Conflict_Resolution"	"RIGHT"	"RIGHT"	473.6951000001	1266.6666692	n/a	n/a	n/a	n/a	"True"	n/a	n/a	"2020-02-11 11:19:18.299076"	"2020-02-11 11:19:18.981274"	2	6.00171296666667
"S200211"	"Conflict_Resolution"	"LEFT"	"LEFT"	381.344899999931	1366.6666694	n/a	n/a	n/a	n/a	"False"	n/a	n/a	"2020-02-11 11:19:20.367654"	"2020-02-11 11:19:20.956597"	3	6.00171296666667
"S200211"	"Conflict_Resolution"	"LEFT"	"LEFT"	392.199699999992	516.6666677	n/a	n/a	n/a	n/a	"False"	n/a	n/a	"2020-02-11 11:19:21.492183"	"2020-02-11 11:19:22.092632"	4	6.00171296666667
"S200211"	"Conflict_Resolution"	"RIGHT"	"RIGHT"	436.546300000032	850.0000017	n/a	n/a	n/a	n/a	"True"	n/a	n/a	"2020-02-11 11:19:22.960200"	"2020-02-11 11:19:23.604962"	5	6.00171296666667
"S200211"	"Conflict_Resolution"	"RIGHT"	"RIGHT"	372.342099999969	800.0000016	n/a	n/a	n/a	n/a	"True"	n/a	n/a	"2020-02-11 11:19:24.424550"	"2020-02-11 11:19:25.005339"	6	6.00171296666667
"S200211"	"Conflict_Resolution"	"RIGHT"	"RIGHT"	458.651599999939	1466.6666696	n/a	n/a	n/a	n/a	"True"	n/a	n/a	"2020-02-11 11:19:26.490248"	"2020-02-11 11:19:27.156593"	7	6.00171296666667
"S200211"	"Conflict_Resolution"	"RIGHT"	"RIGHT"	302.996399999984	550.0000011	n/a	n/a	n/a	n/a	"True"	n/a	n/a	"2020-02-11 11:19:27.725317"	"2020-02-11 11:19:28.236909"	8	6.00171296666667
"S200211"	"Conflict_Resolution"	"RIGHT"	"RIGHT"	356.112099999905	650.0000013	n/a	n/a	n/a	n/a	"True"	n/a	n/a	"2020-02-11 11:19:28.904747"	"2020-02-11 11:19:29.468222"	9	6.00171296666667
"S200211"	"Conflict_Resolution"	"RIGHT"	"RIGHT"	475.809700000013	683.3333347	n/a	n/a	n/a	n/a	"True"	n/a	n/a	"2020-02-11 11:19:30.168349"	"2020-02-11 11:19:30.852406"	10	6.00171296666667
"S200211"	"Conflict_Resolution"	"LEFT"	"RIGHT"	391.345300000012	1150.0000023	n/a	n/a	n/a	n/a	"True"	n/a	n/a	"2020-02-11 11:19:32.021381"	"2020-02-11 11:19:32.621157"	11	6.00171296666667
"S200211"	"Conflict_Resolution"	"LEFT"	"LEFT"	474.103300000024	1450.0000029	n/a	n/a	n/a	n/a	"True"	n/a	n/a	"2020-02-11 11:19:34.090880"	"2020-02-11 11:19:34.772375"	12	6.00171296666667
"S200211"	"Conflict_Resolution"	"LEFT"	"LEFT"	361.06570000004	1500.000003	n/a	n/a	n/a	n/a	"False"	n/a	n/a	"2020-02-11 11:19:36.291224"	"2020-02-11 11:19:36.862475"	13	6.00171296666667
"S200211"	"Conflict_Resolution"	"RIGHT"	"RIGHT"	445.325799999978	933.3333352	n/a	n/a	n/a	n/a	"True"	n/a	n/a	"2020-02-11 11:19:37.815229"	"2020-02-11 11:19:38.468179"	14	6.00171296666667
"S200211"	"Conflict_Resolution"	"RIGHT"	"RIGHT"	388.088599999946	1050.0000021	n/a	n/a	n/a	n/a	"False"	n/a	n/a	"2020-02-11 11:19:39.536744"	"2020-02-11 11:19:40.132081"	15	6.00171296666667
"S200211"	"Conflict_Resolution"	"LEFT"	"LEFT"	419.527199999948	850.0000017	n/a	n/a	n/a	n/a	"False"	n/a	n/a	"2020-02-11 11:19:41.000726"	"2020-02-11 11:19:41.628841"	16	6.00171296666667
"S200211"	"Conflict_Resolution"	"RIGHT"	"RIGHT"	442.936299999928	1433.3333362	n/a	n/a	n/a	n/a	"True"	n/a	n/a	"2020-02-11 11:19:43.081694"	"2020-02-11 11:19:43.732804"	17	6.00171296666667
"S200211"	"Conflict_Resolution"	"RIGHT"	"RIGHT"	425.674299999969	850.0000017	n/a	n/a	n/a	n/a	"False"	n/a	n/a	"2020-02-11 11:19:44.603437"	"2020-02-11 11:19:45.236948"	18	6.00171296666667
"S200211"	"Conflict_Resolution"	"LEFT"	"LEFT"	526.632699999936	583.3333345	n/a	n/a	n/a	n/a	"True"	n/a	n/a	"2020-02-11 11:19:45.838511"	"2020-02-11 11:19:46.573105"	19	6.00171296666667
"S200211"	"Conflict_Resolution"	"LEFT"	"RIGHT"	358.302600000002	966.6666686	n/a	n/a	n/a	n/a	"True"	n/a	n/a	"2020-02-11 11:19:47.558086"	"2020-02-11 11:19:48.124616"	20	6.00171296666667
"S200211"	"Conflict_Resolution"	"LEFT"	"LEFT"	467.452200000025	1050.0000021	n/a	n/a	n/a	n/a	"True"	n/a	n/a	"2020-02-11 11:19:49.192941"	"2020-02-11 11:19:49.869176"	21	6.00171296666667
"S200211"	"Conflict_Resolution"	"RIGHT"	"RIGHT"	395.187399999941	1233.3333358	n/a	n/a	n/a	n/a	"False"	n/a	n/a	"2020-02-11 11:19:51.121709"	"2020-02-11 11:19:51.725099"	22	6.00171296666667
"S200211"	"Conflict_Resolution"	"LEFT"	"LEFT"	473.070000000007	1250.0000025	n/a	n/a	n/a	n/a	"True"	n/a	n/a	"2020-02-11 11:19:52.995377"	"2020-02-11 11:19:53.676351"	23	6.00171296666667
"S200211"	"Conflict_Resolution"	"RIGHT"	"RIGHT"	421.865400000002	800.0000016	n/a	n/a	n/a	n/a	"False"	n/a	n/a	"2020-02-11 11:19:54.494761"	"2020-02-11 11:19:55.124595"	24	6.00171296666667
"S200211"	"Conflict_Resolution"	"LEFT"	"LEFT"	537.909899999931	1300.0000026	n/a	n/a	n/a	n/a	"True"	n/a	n/a	"2020-02-11 11:19:56.442683"	"2020-02-11 11:19:57.189732"	25	6.00171296666667
"S200211"	"Conflict_Resolution"	"LEFT"	"LEFT"	462.95699999996	533.3333344	n/a	n/a	n/a	n/a	"True"	n/a	n/a	"2020-02-11 11:19:57.742065"	"2020-02-11 11:19:58.412250"	26	6.00171296666667
"S200211"	"Conflict_Resolution"	"LEFT"	"LEFT"	376.992399999949	916.6666685	n/a	n/a	n/a	n/a	"False"	n/a	n/a	"2020-02-11 11:19:59.347941"	"2020-02-11 11:19:59.932665"	27	6.00171296666667
"S200211"	"Conflict_Resolution"	"RIGHT"	"RIGHT"	415.242400000011	533.3333344	n/a	n/a	n/a	n/a	"False"	n/a	n/a	"2020-02-11 11:20:00.485495"	"2020-02-11 11:20:01.108229"	28	6.00171296666667
"S200211"	"Conflict_Resolution"	"LEFT"	"LEFT"	487.525399999981	1350.0000027	n/a	n/a	n/a	n/a	"True"	n/a	n/a	"2020-02-11 11:20:02.476785"	"2020-02-11 11:20:03.172919"	29	6.00171296666667
"S200211"	"Conflict_Resolution"	"RIGHT"	"RIGHT"	490.65829999995	650.0000013	n/a	n/a	n/a	n/a	"False"	n/a	n/a	"2020-02-11 11:20:03.842220"	"2020-02-11 11:20:04.540319"	30	6.00171296666667
"S200211"	"Conflict_Resolution"	"RIGHT"	"RIGHT"	721.25200000005	883.3333351	n/a	n/a	n/a	n/a	"True"	n/a	n/a	"2020-02-11 11:20:05.443027"	"2020-02-11 11:20:06.372351"	31	6.00171296666667
"S200211"	"Conflict_Resolution"	"LEFT"	"LEFT"	551.962600000024	733.3333348	n/a	n/a	n/a	n/a	"True"	n/a	n/a	"2020-02-11 11:20:07.124302"	"2020-02-11 11:20:07.884426"	32	6.00171296666667
"S200211"	"Conflict_Resolution"	"RIGHT"	"RIGHT"	449.74609999997	683.3333347	n/a	n/a	n/a	n/a	"False"	n/a	n/a	"2020-02-11 11:20:08.587108"	"2020-02-11 11:20:09.245710"	33	6.00171296666667
"S200211"	"Conflict_Resolution"	"RIGHT"	"RIGHT"	539.824199999998	833.333335	n/a	n/a	n/a	n/a	"True"	n/a	n/a	"2020-02-11 11:20:10.096950"	"2020-02-11 11:20:10.844942"	34	6.00171296666667
"S200211"	"Conflict_Resolution"	"LEFT"	"LEFT"	486.166799999978	1000.000002	n/a	n/a	n/a	n/a	"True"	n/a	n/a	"2020-02-11 11:20:11.862639"	"2020-02-11 11:20:12.557430"	35	6.00171296666667
"S200211"	"Conflict_Resolution"	"RIGHT"	"RIGHT"	413.779399999953	1183.3333357	n/a	n/a	n/a	n/a	"False"	n/a	n/a	"2020-02-11 11:20:13.758700"	"2020-02-11 11:20:14.380433"	36	6.00171296666667
"S200211"	"Conflict_Resolution"	"LEFT"	"LEFT"	416.563099999962	1116.6666689	n/a	n/a	n/a	n/a	"False"	n/a	n/a	"2020-02-11 11:20:15.516404"	"2020-02-11 11:20:16.140465"	37	6.00171296666667
"S200211"	"Conflict_Resolution"	"RIGHT"	"RIGHT"	521.331299999929	733.3333348	n/a	n/a	n/a	n/a	"True"	n/a	n/a	"2020-02-11 11:20:16.891506"	"2020-02-11 11:20:17.620926"	38	6.00171296666667
"S200211"	"Conflict_Resolution"	"RIGHT"	"RIGHT"	347.212399999989	1466.6666696	n/a	n/a	n/a	n/a	"False"	n/a	n/a	"2020-02-11 11:20:19.105423"	"2020-02-11 11:20:19.660791"	39	6.00171296666667
"S200211"	"Conflict_Resolution"	"LEFT"	"LEFT"	459.11650000005	850.0000017	n/a	n/a	n/a	n/a	"True"	n/a	n/a	"2020-02-11 11:20:20.529895"	"2020-02-11 11:20:21.196010"	40	6.00171296666667
"S200211"	"Conflict_Resolution"	"RIGHT"	"RIGHT"	362.65400000002	1433.3333362	n/a	n/a	n/a	n/a	"False"	n/a	n/a	"2020-02-11 11:20:22.649841"	"2020-02-11 11:20:23.221004"	41	6.00171296666667
"S200211"	"Conflict_Resolution"	"RIGHT"	"RIGHT"	525.977000000012	1383.3333361	n/a	n/a	n/a	n/a	"True"	n/a	n/a	"2020-02-11 11:20:24.623001"	"2020-02-11 11:20:25.356405"	42	6.00171296666667
"S200211"	"Conflict_Resolution"	"RIGHT"	"RIGHT"	386.07669999999	1483.3333363	n/a	n/a	n/a	n/a	"False"	n/a	n/a	"2020-02-11 11:20:26.859012"	"2020-02-11 11:20:27.452235"	43	6.00171296666667
"S200211"	"Conflict_Resolution"	"RIGHT"	"RIGHT"	336.241800000039	933.3333352	n/a	n/a	n/a	n/a	"False"	n/a	n/a	"2020-02-11 11:20:28.404136"	"2020-02-11 11:20:28.948968"	44	6.00171296666667
"S200211"	"Conflict_Resolution"	"LEFT"	"LEFT"	409.670900000037	1266.6666692	n/a	n/a	n/a	n/a	"False"	n/a	n/a	"2020-02-11 11:20:30.234729"	"2020-02-11 11:20:30.853887"	45	6.00171296666667
"S200211"	"Conflict_Resolution"	"LEFT"	"LEFT"	486.096199999906	716.6666681	n/a	n/a	n/a	n/a	"True"	n/a	n/a	"2020-02-11 11:20:31.590507"	"2020-02-11 11:20:32.285018"	46	6.00171296666667
"S200211"	"Conflict_Resolution"	"RIGHT"	"RIGHT"	650.024299999927	1033.3333354	n/a	n/a	n/a	n/a	"True"	n/a	n/a	"2020-02-11 11:20:33.338230"	"2020-02-11 11:20:34.196277"	47	6.00171296666667
"S200211"	"Conflict_Resolution"	"LEFT"	"LEFT"	434.291799999983	866.6666684	n/a	n/a	n/a	n/a	"True"	n/a	n/a	"2020-02-11 11:20:35.082683"	"2020-02-11 11:20:35.724791"	48	6.00171296666667
"S200211"	"Conflict_Resolution"	"LEFT"	"LEFT"	384.974700000043	1100.0000022	n/a	n/a	n/a	n/a	"False"	n/a	n/a	"2020-02-11 11:20:36.843887"	"2020-02-11 11:20:37.437052"	49	6.00171296666667
"S200211"	"Conflict_Resolution"	"LEFT"	"LEFT"	413.375200000019	616.6666679	n/a	n/a	n/a	n/a	"True"	n/a	n/a	"2020-02-11 11:20:38.071358"	"2020-02-11 11:20:38.692520"	50	6.00171296666667
"S200211"	"Conflict_Resolution"	"LEFT"	"LEFT"	506.693699999914	1466.6666696	n/a	n/a	n/a	n/a	"True"	n/a	n/a	"2020-02-11 11:20:40.177612"	"2020-02-11 11:20:40.893058"	51	6.00171296666667
"S200211"	"Conflict_Resolution"	"RIGHT"	"RIGHT"	344.1957	1266.6666692	n/a	n/a	n/a	n/a	"False"	n/a	n/a	"2020-02-11 11:20:42.180838"	"2020-02-11 11:20:42.732878"	52	6.00171296666667
"S200211"	"Conflict_Resolution"	"RIGHT"	"RIGHT"	461.490799999979	783.3333349	n/a	n/a	n/a	n/a	"True"	n/a	n/a	"2020-02-11 11:20:43.534790"	"2020-02-11 11:20:44.205090"	53	6.00171296666667
"S200211"	"Conflict_Resolution"	"LEFT"	"LEFT"	610.677500000065	633.3333346	n/a	n/a	n/a	n/a	"True"	n/a	n/a	"2020-02-11 11:20:44.858082"	"2020-02-11 11:20:45.676579"	54	6.00171296666667
"S200211"	"Conflict_Resolution"	"LEFT"	"LEFT"	390.209099999993	1200.0000024	n/a	n/a	n/a	n/a	"False"	n/a	n/a	"2020-02-11 11:20:46.894048"	"2020-02-11 11:20:47.492401"	55	6.00171296666667
"S200211"	"Conflict_Resolution"	"LEFT"	"LEFT"	349.315700000034	633.3333346	n/a	n/a	n/a	n/a	"False"	n/a	n/a	"2020-02-11 11:20:48.143305"	"2020-02-11 11:20:48.700471"	56	6.00171296666667
"S200211"	"Conflict_Resolution"	"RIGHT"	"RIGHT"	286.191799999983	950.0000019	n/a	n/a	n/a	n/a	"False"	n/a	n/a	"2020-02-11 11:20:49.670681"	"2020-02-11 11:20:50.164396"	57	6.00171296666667
"S200211"	"Conflict_Resolution"	"LEFT"	"LEFT"	329.255900000021	900.0000018	n/a	n/a	n/a	n/a	"False"	n/a	n/a	"2020-02-11 11:20:51.083320"	"2020-02-11 11:20:51.621077"	58	6.00171296666667
"S200211"	"Conflict_Resolution"	"RIGHT"	"RIGHT"	383.222899999964	1366.6666694	n/a	n/a	n/a	n/a	"False"	n/a	n/a	"2020-02-11 11:20:53.005569"	"2020-02-11 11:20:53.596529"	59	6.00171296666667
"S200211"	"Conflict_Resolution"	"LEFT"	"LEFT"	497.849499999916	900.0000018	n/a	n/a	n/a	n/a	"True"	n/a	n/a	"2020-02-11 11:20:54.514659"	"2020-02-11 11:20:55.220410"	60	6.00171296666667
"S200211"	"Conflict_Resolution"	"RIGHT"	"RIGHT"	480.726899999922	1083.3333355	n/a	n/a	n/a	n/a	"True"	n/a	n/a	"2020-02-11 11:20:56.323576"	"2020-02-11 11:20:57.014033"	61	6.00171296666667
"S200211"	"Conflict_Resolution"	"RIGHT"	"RIGHT"	416.022300000009	900.0000018	n/a	n/a	n/a	n/a	"True"	n/a	n/a	"2020-02-11 11:20:57.932620"	"2020-02-11 11:20:58.556768"	62	6.00171296666667
"S200211"	"Conflict_Resolution"	"LEFT"	"LEFT"	537.191399999983	1500.000003	n/a	n/a	n/a	n/a	"True"	n/a	n/a	"2020-02-11 11:21:00.075172"	"2020-02-11 11:21:00.821001"	63	6.00171296666667
"S200211"	"Conflict_Resolution"	"LEFT"	"LEFT"	385.575399999993	1266.6666692	n/a	n/a	n/a	n/a	"True"	n/a	n/a	"2020-02-11 11:21:02.106826"	"2020-02-11 11:21:02.700997"	64	6.00171296666667
"S200211"	"Conflict_Resolution"	"RIGHT"	"LEFT"	390.654599999948	750.0000015	n/a	n/a	n/a	n/a	"True"	n/a	n/a	"2020-02-11 11:21:03.469518"	"2020-02-11 11:21:04.067709"	65	6.00171296666667
"S200211"	"Conflict_Resolution"	"RIGHT"	"RIGHT"	362.710500000048	1083.3333355	n/a	n/a	n/a	n/a	"False"	n/a	n/a	"2020-02-11 11:21:05.169642"	"2020-02-11 11:21:05.740241"	66	6.00171296666667
"S200211"	"Conflict_Resolution"	"RIGHT"	"RIGHT"	339.466899999934	1283.3333359	n/a	n/a	n/a	n/a	"False"	n/a	n/a	"2020-02-11 11:21:07.040974"	"2020-02-11 11:21:07.587515"	67	6.00171296666667
"S200211"	"Conflict_Resolution"	"LEFT"	"LEFT"	516.37530000005	666.666668	n/a	n/a	n/a	n/a	"True"	n/a	n/a	"2020-02-11 11:21:08.271975"	"2020-02-11 11:21:08.996540"	68	6.00171296666667
"S200211"	"Conflict_Resolution"	"LEFT"	"LEFT"	357.168099999967	1000.000002	n/a	n/a	n/a	n/a	"False"	n/a	n/a	"2020-02-11 11:21:10.015374"	"2020-02-11 11:21:10.580896"	69	6.00171296666667
"S200211"	"Conflict_Resolution"	"LEFT"	"RIGHT"	363.842299999988	816.6666683	n/a	n/a	n/a	n/a	"True"	n/a	n/a	"2020-02-11 11:21:11.416898"	"2020-02-11 11:21:11.988594"	70	6.00171296666667
"S200211"	"Conflict_Resolution"	"RIGHT"	"RIGHT"	453.555400000027	1183.3333357	n/a	n/a	n/a	n/a	"True"	n/a	n/a	"2020-02-11 11:21:13.190800"	"2020-02-11 11:21:13.851244"	71	6.00171296666667
"S200211"	"Conflict_Resolution"	"RIGHT"	"RIGHT"	560.275100000013	1150.0000023	n/a	n/a	n/a	n/a	"True"	n/a	n/a	"2020-02-11 11:21:15.019879"	"2020-02-11 11:21:15.788531"	72	6.00171296666667
"S200211"	"Conflict_Resolution"	"LEFT"	"LEFT"	518.517000000088	766.6666682	n/a	n/a	n/a	n/a	"True"	n/a	n/a	"2020-02-11 11:21:16.573790"	"2020-02-11 11:21:17.301412"	73	6.00171296666667
"S200211"	"Conflict_Resolution"	"RIGHT"	"RIGHT"	467.427000000043	1216.6666691	n/a	n/a	n/a	n/a	"False"	n/a	n/a	"2020-02-11 11:21:18.536785"	"2020-02-11 11:21:19.213091"	74	6.00171296666667
"S200211"	"Conflict_Resolution"	"LEFT"	"LEFT"	494.099799999958	1366.6666694	n/a	n/a	n/a	n/a	"True"	n/a	n/a	"2020-02-11 11:21:20.598976"	"2020-02-11 11:21:21.300422"	75	6.00171296666667
"S200211"	"Conflict_Resolution"	"LEFT"	"LEFT"	399.123599999939	1150.0000023	n/a	n/a	n/a	n/a	"False"	n/a	n/a	"2020-02-11 11:21:22.469324"	"2020-02-11 11:21:23.077212"	76	6.00171296666667
"S200211"	"Conflict_Resolution"	"RIGHT"	"RIGHT"	539.066300000059	633.3333346	n/a	n/a	n/a	n/a	"False"	n/a	n/a	"2020-02-11 11:21:23.729431"	"2020-02-11 11:21:24.476464"	77	6.00171296666667
"S200211"	"Conflict_Resolution"	"LEFT"	"LEFT"	445.771100000002	583.3333345	n/a	n/a	n/a	n/a	"False"	n/a	n/a	"2020-02-11 11:21:25.078515"	"2020-02-11 11:21:25.732858"	78	6.00171296666667
"S200211"	"Conflict_Resolution"	"LEFT"	"RIGHT"	342.905900000005	1316.6666693	n/a	n/a	n/a	n/a	"True"	n/a	n/a	"2020-02-11 11:21:27.069353"	"2020-02-11 11:21:27.620911"	79	6.00171296666667
"S200211"	"Conflict_Resolution"	"RIGHT"	"RIGHT"	391.485799999941	1316.6666693	n/a	n/a	n/a	n/a	"False"	n/a	n/a	"2020-02-11 11:21:28.957475"	"2020-02-11 11:21:29.557079"	80	6.00171296666667
"S200211"	"Conflict_Resolution"	"LEFT"	"LEFT"	599.761999999942	516.6666677	n/a	n/a	n/a	n/a	"True"	n/a	n/a	"2020-02-11 11:21:30.092650"	"2020-02-11 11:21:30.900556"	81	6.00171296666667
"S200211"	"Conflict_Resolution"	"RIGHT"	"RIGHT"	378.28669999999	500.000001	n/a	n/a	n/a	n/a	"False"	n/a	n/a	"2020-02-11 11:21:31.418183"	"2020-02-11 11:21:32.004788"	82	6.00171296666667
"S200211"	"Conflict_Resolution"	"RIGHT"	"RIGHT"	389.602500000024	983.3333353	n/a	n/a	n/a	n/a	"False"	n/a	n/a	"2020-02-11 11:21:33.006680"	"2020-02-11 11:21:33.606067"	83	6.00171296666667
"S200211"	"Conflict_Resolution"	"RIGHT"	"RIGHT"	388.493100000005	783.3333349	n/a	n/a	n/a	n/a	"False"	n/a	n/a	"2020-02-11 11:21:34.408482"	"2020-02-11 11:21:35.004393"	84	6.00171296666667
"S200211"	"Conflict_Resolution"	"LEFT"	"LEFT"	466.911900000014	1050.0000021	n/a	n/a	n/a	n/a	"False"	n/a	n/a	"2020-02-11 11:21:36.074110"	"2020-02-11 11:21:36.748580"	85	6.00171296666667
"S200211"	"Conflict_Resolution"	"LEFT"	"LEFT"	504.546799999957	916.6666685	n/a	n/a	n/a	n/a	"True"	n/a	n/a	"2020-02-11 11:21:37.683736"	"2020-02-11 11:21:38.396720"	86	6.00171296666667
"S200211"	"Conflict_Resolution"	"RIGHT"	"LEFT"	399.985900000047	1316.6666693	n/a	n/a	n/a	n/a	"True"	n/a	n/a	"2020-02-11 11:21:39.732465"	"2020-02-11 11:21:40.340225"	87	6.00171296666667
"S200211"	"Conflict_Resolution"	"LEFT"	"LEFT"	560.323299999936	566.6666678	n/a	n/a	n/a	n/a	"True"	n/a	n/a	"2020-02-11 11:21:40.924758"	"2020-02-11 11:21:41.692350"	88	6.00171296666667
"S200211"	"Conflict_Resolution"	"RIGHT"	"RIGHT"	470.504000000005	1366.6666694	n/a	n/a	n/a	n/a	"True"	n/a	n/a	"2020-02-11 11:21:43.077719"	"2020-02-11 11:21:43.757037"	89	6.00171296666667
"S200211"	"Conflict_Resolution"	"RIGHT"	"RIGHT"	553.282700000068	1483.3333363	n/a	n/a	n/a	n/a	"True"	n/a	n/a	"2020-02-11 11:21:45.259656"	"2020-02-11 11:21:46.020435"	90	6.00171296666667
"S200211"	"Conflict_Resolution"	"RIGHT"	"RIGHT"	428.363500000046	600.0000012	n/a	n/a	n/a	n/a	"True"	n/a	n/a	"2020-02-11 11:21:46.640380"	"2020-02-11 11:21:47.276710"	91	6.00171296666667
"S200211"	"Conflict_Resolution"	"LEFT"	"LEFT"	426.997700000015	1400.0000028	n/a	n/a	n/a	n/a	"False"	n/a	n/a	"2020-02-11 11:21:48.697528"	"2020-02-11 11:21:49.332753"	92	6.00171296666667
"S200211"	"Conflict_Resolution"	"LEFT"	"LEFT"	500.364699999977	1200.0000024	n/a	n/a	n/a	n/a	"True"	n/a	n/a	"2020-02-11 11:21:50.552167"	"2020-02-11 11:21:51.260831"	93	6.00171296666667
"S200211"	"Conflict_Resolution"	"RIGHT"	"RIGHT"	397.207600000002	1416.6666695	n/a	n/a	n/a	n/a	"False"	n/a	n/a	"2020-02-11 11:21:52.695670"	"2020-02-11 11:21:53.300601"	94	6.00171296666667
"S200211"	"Conflict_Resolution"	"RIGHT"	"RIGHT"	433.139399999959	700.0000014	n/a	n/a	n/a	n/a	"True"	n/a	n/a	"2020-02-11 11:21:54.019169"	"2020-02-11 11:21:54.660812"	95	6.00171296666667
"S200211"	"Conflict_Resolution"	"LEFT"	"LEFT"	408.013300000107	1316.6666693	n/a	n/a	n/a	n/a	"False"	n/a	n/a	"2020-02-11 11:21:55.996204"	"2020-02-11 11:21:56.612182"	96	6.00171296666667
"S200211"	"Conflict_Resolution"	"LEFT"	"LEFT"	383.2807	1350.0000027	n/a	n/a	n/a	n/a	"False"	n/a	n/a	"2020-02-11 11:21:57.981410"	"2020-02-11 11:21:58.572458"	97	6.00171296666667
"S200211"	"Conflict_Resolution"	"RIGHT"	"RIGHT"	461.341800000014	633.3333346	n/a	n/a	n/a	n/a	"True"	n/a	n/a	"2020-02-11 11:21:59.222990"	"2020-02-11 11:21:59.892403"	98	6.00171296666667
"S200211"	"Conflict_Resolution"	"LEFT"	"LEFT"	434.455700000058	1066.6666688	n/a	n/a	n/a	n/a	"True"	n/a	n/a	"2020-02-11 11:22:00.978451"	"2020-02-11 11:22:01.620481"	99	6.00171296666667
"S200211"	"Conflict_Resolution"	"RIGHT"	"RIGHT"	444.268299999976	1050.0000021	n/a	n/a	n/a	n/a	"True"	n/a	n/a	"2020-02-11 11:22:02.688189"	"2020-02-11 11:22:03.340544"	100	6.00171296666667
"S200211"	"Conflict_Resolution"	"LEFT"	"LEFT"	471.502299999997	533.3333344	n/a	n/a	n/a	n/a	"False"	n/a	n/a	"2020-02-11 11:22:03.893637"	"2020-02-11 11:22:04.572043"	101	6.00171296666667
"S200211"	"Conflict_Resolution"	"RIGHT"	"RIGHT"	382.396900000003	583.3333345	n/a	n/a	n/a	n/a	"False"	n/a	n/a	"2020-02-11 11:22:05.174435"	"2020-02-11 11:22:05.764244"	102	6.00171296666667
"S200211"	"Conflict_Resolution"	"RIGHT"	"RIGHT"	378.68990000004	900.0000018	n/a	n/a	n/a	n/a	"False"	n/a	n/a	"2020-02-11 11:22:06.682246"	"2020-02-11 11:22:07.267852"	103	6.00171296666667
"S200211"	"Conflict_Resolution"	"RIGHT"	"RIGHT"	304.573000000005	733.3333348	n/a	n/a	n/a	n/a	"False"	n/a	n/a	"2020-02-11 11:22:08.019913"	"2020-02-11 11:22:08.532558"	104	6.00171296666667
"S200211"	"Conflict_Resolution"	"RIGHT"	"LEFT"	381.725899999992	983.3333353	n/a	n/a	n/a	n/a	"True"	n/a	n/a	"2020-02-11 11:22:09.534508"	"2020-02-11 11:22:10.125110"	105	6.00171296666667
"S200211"	"Conflict_Resolution"	"RIGHT"	"RIGHT"	635.903399999961	1216.6666691	n/a	n/a	n/a	n/a	"True"	n/a	n/a	"2020-02-11 11:22:11.360460"	"2020-02-11 11:22:12.203950"	106	6.00171296666667
"S200211"	"Conflict_Resolution"	"RIGHT"	"RIGHT"	388.092900000061	1033.3333354	n/a	n/a	n/a	n/a	"False"	n/a	n/a	"2020-02-11 11:22:13.256224"	"2020-02-11 11:22:13.853018"	107	6.00171296666667
"S200211"	"Conflict_Resolution"	"RIGHT"	"RIGHT"	415.401299999985	1333.333336	n/a	n/a	n/a	n/a	"False"	n/a	n/a	"2020-02-11 11:22:15.204942"	"2020-02-11 11:22:15.828457"	108	6.00171296666667
"S200211"	"Conflict_Resolution"	"RIGHT"	"RIGHT"	382.038299999977	1383.3333361	n/a	n/a	n/a	n/a	"False"	n/a	n/a	"2020-02-11 11:22:17.231043"	"2020-02-11 11:22:17.821020"	109	6.00171296666667
"S200211"	"Conflict_Resolution"	"RIGHT"	"RIGHT"	461.589000000004	1416.6666695	n/a	n/a	n/a	n/a	"True"	n/a	n/a	"2020-02-11 11:22:19.255466"	"2020-02-11 11:22:19.924676"	110	6.00171296666667
"S200211"	"Conflict_Resolution"	"LEFT"	"LEFT"	532.567000000085	1416.6666695	n/a	n/a	n/a	n/a	"True"	n/a	n/a	"2020-02-11 11:22:21.360311"	"2020-02-11 11:22:22.100482"	111	6.00171296666667
"S200211"	"Conflict_Resolution"	"LEFT"	"LEFT"	465.879299999983	1116.6666689	n/a	n/a	n/a	n/a	"True"	n/a	n/a	"2020-02-11 11:22:23.234895"	"2020-02-11 11:22:23.907965"	112	6.00171296666667
"S200211"	"Conflict_Resolution"	"RIGHT"	"RIGHT"	582.565300000056	1150.0000023	n/a	n/a	n/a	n/a	"False"	n/a	n/a	"2020-02-11 11:22:25.077880"	"2020-02-11 11:22:25.868867"	113	6.00171296666667
"S200211"	"Conflict_Resolution"	"LEFT"	"LEFT"	411.369799999989	816.6666683	n/a	n/a	n/a	n/a	"False"	n/a	n/a	"2020-02-11 11:22:26.705729"	"2020-02-11 11:22:27.323576"	114	6.00171296666667
"S200211"	"Conflict_Resolution"	"LEFT"	"LEFT"	375.661400000013	966.6666686	n/a	n/a	n/a	n/a	"False"	n/a	n/a	"2020-02-11 11:22:28.308609"	"2020-02-11 11:22:28.892724"	115	6.00171296666667
"S200211"	"Conflict_Resolution"	"RIGHT"	"RIGHT"	408.814200000052	1333.333336	n/a	n/a	n/a	n/a	"True"	n/a	n/a	"2020-02-11 11:22:30.243915"	"2020-02-11 11:22:30.861137"	116	6.00171296666667
"S200211"	"Conflict_Resolution"	"RIGHT"	"RIGHT"	510.613499999977	950.0000019	n/a	n/a	n/a	n/a	"True"	n/a	n/a	"2020-02-11 11:22:31.830197"	"2020-02-11 11:22:32.547848"	117	6.00171296666667
"S200211"	"Conflict_Resolution"	"LEFT"	"LEFT"	494.453799999974	783.3333349	n/a	n/a	n/a	n/a	"True"	n/a	n/a	"2020-02-11 11:22:33.349858"	"2020-02-11 11:22:34.053907"	118	6.00171296666667
"S200211"	"Conflict_Resolution"	"RIGHT"	"RIGHT"	401.515200000063	700.0000014	n/a	n/a	n/a	n/a	"False"	n/a	n/a	"2020-02-11 11:22:34.770989"	"2020-02-11 11:22:35.380316"	119	6.00171296666667
"S200211"	"Conflict_Resolution"	"RIGHT"	"RIGHT"	431.025200000022	1133.3333356	n/a	n/a	n/a	n/a	"True"	n/a	n/a	"2020-02-11 11:22:36.533812"	"2020-02-11 11:22:37.172784"	120	6.00171296666667
"S200211"	"Conflict_Resolution"	"LEFT"	"RIGHT"	313.733700000057	683.3333347	n/a	n/a	n/a	n/a	"True"	n/a	n/a	"2020-02-11 11:22:37.875171"	"2020-02-11 11:22:38.396774"	121	6.00171296666667
"S200211"	"Conflict_Resolution"	"LEFT"	"LEFT"	480.916199999911	683.3333347	n/a	n/a	n/a	n/a	"False"	n/a	n/a	"2020-02-11 11:22:39.099859"	"2020-02-11 11:22:39.787618"	122	6.00171296666667
"S200211"	"Conflict_Resolution"	"LEFT"	"LEFT"	349.311300000068	1216.6666691	n/a	n/a	n/a	n/a	"False"	n/a	n/a	"2020-02-11 11:22:41.023664"	"2020-02-11 11:22:41.580768"	123	6.00171296666667
"S200211"	"Conflict_Resolution"	"LEFT"	"RIGHT"	366.247200000089	1400.0000028	n/a	n/a	n/a	n/a	"True"	n/a	n/a	"2020-02-11 11:22:42.997834"	"2020-02-11 11:22:43.573037"	124	6.00171296666667
"S200211"	"Conflict_Resolution"	"LEFT"	"LEFT"	376.911500000006	866.6666684	n/a	n/a	n/a	n/a	"False"	n/a	n/a	"2020-02-11 11:22:44.459296"	"2020-02-11 11:22:45.045695"	125	6.00171296666667
"S200211"	"Conflict_Resolution"	"LEFT"	"LEFT"	457.60580000001	1450.0000029	n/a	n/a	n/a	n/a	"False"	n/a	n/a	"2020-02-11 11:22:46.515319"	"2020-02-11 11:22:47.180484"	126	6.00171296666667
"S200211"	"Conflict_Resolution"	"RIGHT"	"RIGHT"	408.010200000035	1133.3333356	n/a	n/a	n/a	n/a	"False"	n/a	n/a	"2020-02-11 11:22:48.332366"	"2020-02-11 11:22:48.948245"	127	6.00171296666667
"S200211"	"Conflict_Resolution"	"RIGHT"	"RIGHT"	541.471000000001	1000.000002	n/a	n/a	n/a	n/a	"True"	n/a	n/a	"2020-02-11 11:22:49.966814"	"2020-02-11 11:22:50.716760"	128	6.00171296666667
"S200211"	"Conflict_Resolution"	"LEFT"	"LEFT"	459.94410000003	566.6666678	n/a	n/a	n/a	n/a	"False"	n/a	n/a	"2020-02-11 11:22:51.304759"	"2020-02-11 11:22:51.972098"	129	6.00171296666667
"S200211"	"Conflict_Resolution"	"RIGHT"	"RIGHT"	423.89490000005	750.0000015	n/a	n/a	n/a	n/a	"False"	n/a	n/a	"2020-02-11 11:22:52.741200"	"2020-02-11 11:22:53.371580"	130	6.00171296666667
"S200211"	"Conflict_Resolution"	"RIGHT"	"RIGHT"	352.058899999975	550.0000011	n/a	n/a	n/a	n/a	"False"	n/a	n/a	"2020-02-11 11:22:53.940067"	"2020-02-11 11:22:54.499489"	131	6.00171296666667
"S200211"	"Conflict_Resolution"	"LEFT"	"LEFT"	397.800099999927	1066.6666688	n/a	n/a	n/a	n/a	"False"	n/a	n/a	"2020-02-11 11:22:55.584046"	"2020-02-11 11:22:56.189224"	132	6.00171296666667
"S200211"	"Conflict_Resolution"	"LEFT"	"LEFT"	462.072400000011	1166.666669	n/a	n/a	n/a	n/a	"True"	n/a	n/a	"2020-02-11 11:22:57.374883"	"2020-02-11 11:22:58.045600"	133	6.00171296666667
"S200211"	"Conflict_Resolution"	"RIGHT"	"RIGHT"	483.596600000055	1233.3333358	n/a	n/a	n/a	n/a	"True"	n/a	n/a	"2020-02-11 11:22:59.296812"	"2020-02-11 11:22:59.987412"	134	6.00171296666667
"S200211"	"Conflict_Resolution"	"RIGHT"	"RIGHT"	378.324399999997	1100.0000022	n/a	n/a	n/a	n/a	"False"	n/a	n/a	"2020-02-11 11:23:01.106287"	"2020-02-11 11:23:01.692475"	135	6.00171296666667
"S200211"	"Conflict_Resolution"	"RIGHT"	"RIGHT"	341.852700000004	1000.000002	n/a	n/a	n/a	n/a	"False"	n/a	n/a	"2020-02-11 11:23:02.710273"	"2020-02-11 11:23:03.260258"	136	6.00171296666667
"S200211"	"Conflict_Resolution"	"RIGHT"	"RIGHT"	357.173699999976	833.333335	n/a	n/a	n/a	n/a	"False"	n/a	n/a	"2020-02-11 11:23:04.111011"	"2020-02-11 11:23:04.675844"	137	6.00171296666667
"S200211"	"Conflict_Resolution"	"LEFT"	"LEFT"	395.691300000067	1250.0000025	n/a	n/a	n/a	n/a	"False"	n/a	n/a	"2020-02-11 11:23:05.944766"	"2020-02-11 11:23:06.548554"	138	6.00171296666667
"S200211"	"Conflict_Resolution"	"RIGHT"	"RIGHT"	639.935899999955	533.3333344	n/a	n/a	n/a	n/a	"True"	n/a	n/a	"2020-02-11 11:23:07.100922"	"2020-02-11 11:23:07.948739"	139	6.00171296666667
"S200211"	"Conflict_Resolution"	"LEFT"	"LEFT"	614.072700000065	950.0000019	n/a	n/a	n/a	n/a	"True"	n/a	n/a	"2020-02-11 11:23:08.918194"	"2020-02-11 11:23:09.741149"	140	6.00171296666667
"S200211"	"Conflict_Resolution"	"LEFT"	"LEFT"	419.5686999999	1016.6666687	n/a	n/a	n/a	n/a	"False"	n/a	n/a	"2020-02-11 11:23:10.776586"	"2020-02-11 11:23:11.405040"	141	6.00171296666667
"S200211"	"Conflict_Resolution"	"RIGHT"	"RIGHT"	393.081100000018	883.3333351	n/a	n/a	n/a	n/a	"False"	n/a	n/a	"2020-02-11 11:23:12.307869"	"2020-02-11 11:23:12.908865"	142	6.00171296666667
"S200211"	"Conflict_Resolution"	"RIGHT"	"RIGHT"	541.806599999973	583.3333345	n/a	n/a	n/a	n/a	"True"	n/a	n/a	"2020-02-11 11:23:13.510803"	"2020-02-11 11:23:14.261194"	143	6.00171296666667
"S200211"	"Conflict_Resolution"	"LEFT"	"LEFT"	403.351199999975	616.6666679	n/a	n/a	n/a	n/a	"False"	n/a	n/a	"2020-02-11 11:23:14.897532"	"2020-02-11 11:23:15.508028"	144	6.00171296666667
"S200211"	"Conflict_Resolution"	"LEFT"	"LEFT"	391.902699999946	716.6666681	n/a	n/a	n/a	n/a	"False"	n/a	n/a	"2020-02-11 11:23:16.244267"	"2020-02-11 11:23:16.844376"	145	6.00171296666667
"S200211"	"Conflict_Resolution"	"RIGHT"	"RIGHT"	365.626300000031	600.0000012	n/a	n/a	n/a	n/a	"False"	n/a	n/a	"2020-02-11 11:23:17.463253"	"2020-02-11 11:23:18.036713"	146	6.00171296666667
"S200211"	"Conflict_Resolution"	"LEFT"	"LEFT"	386.27919999999	666.666668	n/a	n/a	n/a	n/a	"False"	n/a	n/a	"2020-02-11 11:23:18.721963"	"2020-02-11 11:23:19.317034"	147	6.00171296666667
"S200211"	"Conflict_Resolution"	"LEFT"	"LEFT"	499.702800000023	1016.6666687	n/a	n/a	n/a	n/a	"True"	n/a	n/a	"2020-02-11 11:23:20.353282"	"2020-02-11 11:23:21.061165"	148	6.00171296666667
"S200211"	"Conflict_Resolution"	"RIGHT"	"RIGHT"	432.446300000038	500.000001	n/a	n/a	n/a	n/a	"True"	n/a	n/a	"2020-02-11 11:23:21.579746"	"2020-02-11 11:23:22.220279"	149	6.00171296666667
"S200211"	"Conflict_Resolution"	"LEFT"	"LEFT"	462.042999999994	766.6666682	n/a	n/a	n/a	n/a	"False"	n/a	n/a	"2020-02-11 11:23:23.006793"	"2020-02-11 11:23:23.676647"	150	6.00171296666667
"S200211"	"Conflict_Resolution"	"LEFT"	"RIGHT"	384.997199999816	1100.0000022	n/a	n/a	n/a	n/a	"True"	n/a	n/a	"2020-02-11 11:23:24.795737"	"2020-02-11 11:23:25.388316"	151	6.00171296666667
"S200211"	"Conflict_Resolution"	"LEFT"	"LEFT"	423.356700000113	783.3333349	n/a	n/a	n/a	n/a	"False"	n/a	n/a	"2020-02-11 11:23:26.189328"	"2020-02-11 11:23:26.820846"	152	6.00171296666667
"S200211"	"Conflict_Resolution"	"LEFT"	"LEFT"	385.877899999969	1466.6666696	n/a	n/a	n/a	n/a	"False"	n/a	n/a	"2020-02-11 11:23:28.306622"	"2020-02-11 11:23:28.901013"	153	6.00171296666667
"S200211"	"Conflict_Resolution"	"LEFT"	"LEFT"	391.115099999979	1300.0000026	n/a	n/a	n/a	n/a	"False"	n/a	n/a	"2020-02-11 11:23:30.221007"	"2020-02-11 11:23:30.820521"	154	6.00171296666667
"S200211"	"Conflict_Resolution"	"LEFT"	"LEFT"	532.21869999993	1416.6666695	n/a	n/a	n/a	n/a	"False"	n/a	n/a	"2020-02-11 11:23:32.256830"	"2020-02-11 11:23:32.996673"	155	6.00171296666667
"S200211"	"Conflict_Resolution"	"RIGHT"	"RIGHT"	522.135599999956	1100.0000022	n/a	n/a	n/a	n/a	"True"	n/a	n/a	"2020-02-11 11:23:34.114466"	"2020-02-11 11:23:34.844651"	156	6.00171296666667
"S200211"	"Conflict_Resolution"	"LEFT"	"LEFT"	541.498500000216	1216.6666691	n/a	n/a	n/a	n/a	"True"	n/a	n/a	"2020-02-11 11:23:36.078549"	"2020-02-11 11:23:36.827327"	157	6.00171296666667
"S200211"	"Conflict_Resolution"	"RIGHT"	"RIGHT"	516.698299999916	1283.3333359	n/a	n/a	n/a	n/a	"True"	n/a	n/a	"2020-02-11 11:23:38.128049"	"2020-02-11 11:23:38.852653"	158	6.00171296666667
"S200211"	"Conflict_Resolution"	"LEFT"	"LEFT"	414.466200000106	733.3333348	n/a	n/a	n/a	n/a	"False"	n/a	n/a	"2020-02-11 11:23:39.606335"	"2020-02-11 11:23:40.227908"	159	6.00171296666667
"S200211"	"Conflict_Resolution"	"LEFT"	"LEFT"	358.92919999992	1166.666669	n/a	n/a	n/a	n/a	"False"	n/a	n/a	"2020-02-11 11:23:41.413911"	"2020-02-11 11:23:41.980955"	160	6.00171296666667
"S200211"	"Processing_Speed"	"LEFT"	"DOWN"	446.660500000007	1050.0000021	n/a	n/a	n/a	n/a	n/a	n/a	n/a	"2020-02-11 11:08:25.694574"	"2020-02-11 11:08:26.360569"	1	2.05954468333333
"S200211"	"Processing_Speed"	"LEFT"	"DOWN"	263.856099999998	500.000001	n/a	n/a	n/a	n/a	n/a	n/a	n/a	"2020-02-11 11:08:26.869207"	"2020-02-11 11:08:27.340432"	2	2.05954468333333
"S200211"	"Processing_Speed"	"RIGHT"	"DOWN"	228.637200000009	1300.0000026	n/a	n/a	n/a	n/a	n/a	n/a	n/a	"2020-02-11 11:08:28.648429"	"2020-02-11 11:08:29.084830"	3	2.05954468333333
"S200211"	"Processing_Speed"	"LEFT"	"DOWN"	241.100700000004	566.6666678	n/a	n/a	n/a	n/a	n/a	n/a	n/a	"2020-02-11 11:08:29.660192"	"2020-02-11 11:08:30.108251"	4	2.05954468333333
"S200211"	"Processing_Speed"	"LEFT"	"DOWN"	256.874499999981	983.3333353	n/a	n/a	n/a	n/a	n/a	n/a	n/a	"2020-02-11 11:08:31.100929"	"2020-02-11 11:08:31.565255"	5	2.05954468333333
"S200211"	"Processing_Speed"	"RIGHT"	"DOWN"	234.080300000016	1333.333336	n/a	n/a	n/a	n/a	n/a	n/a	n/a	"2020-02-11 11:08:32.907528"	"2020-02-11 11:08:33.348448"	6	2.05954468333333
"S200211"	"Processing_Speed"	"RIGHT"	"DOWN"	272.837799999991	783.3333349	n/a	n/a	n/a	n/a	n/a	n/a	n/a	"2020-02-11 11:08:34.139967"	"2020-02-11 11:08:34.622058"	7	2.05954468333333
"S200211"	"Processing_Speed"	"LEFT"	"DOWN"	230.015600000002	1016.6666687	n/a	n/a	n/a	n/a	n/a	n/a	n/a	"2020-02-11 11:08:35.646925"	"2020-02-11 11:08:36.085250"	8	2.05954468333333
"S200211"	"Processing_Speed"	"LEFT"	"DOWN"	307.438300000001	1466.6666696	n/a	n/a	n/a	n/a	n/a	n/a	n/a	"2020-02-11 11:08:37.561851"	"2020-02-11 11:08:38.077156"	9	2.05954468333333
"S200211"	"Processing_Speed"	"RIGHT"	"DOWN"	320.945899999998	566.6666678	n/a	n/a	n/a	n/a	n/a	n/a	n/a	"2020-02-11 11:08:38.652621"	"2020-02-11 11:08:39.182154"	10	2.05954468333333
"S200211"	"Processing_Speed"	"LEFT"	"DOWN"	251.205300000009	666.666668	n/a	n/a	n/a	n/a	n/a	n/a	n/a	"2020-02-11 11:08:39.857930"	"2020-02-11 11:08:40.316456"	11	2.05954468333333
"S200211"	"Processing_Speed"	"RIGHT"	"DOWN"	222.719799999993	633.3333346	n/a	n/a	n/a	n/a	n/a	n/a	n/a	"2020-02-11 11:08:40.958296"	"2020-02-11 11:08:41.388333"	12	2.05954468333333
"S200211"	"Processing_Speed"	"LEFT"	"DOWN"	282.956600000006	533.3333344	n/a	n/a	n/a	n/a	n/a	n/a	n/a	"2020-02-11 11:08:41.930192"	"2020-02-11 11:08:42.421887"	13	2.05954468333333
"S200211"	"Processing_Speed"	"LEFT"	"DOWN"	250.183600000014	1116.6666689	n/a	n/a	n/a	n/a	n/a	n/a	n/a	"2020-02-11 11:08:43.547271"	"2020-02-11 11:08:44.005831"	14	2.05954468333333
"S200211"	"Processing_Speed"	"RIGHT"	"DOWN"	255.538000000001	1183.3333357	n/a	n/a	n/a	n/a	n/a	n/a	n/a	"2020-02-11 11:08:45.197798"	"2020-02-11 11:08:45.660914"	15	2.05954468333333
"S200211"	"Processing_Speed"	"LEFT"	"DOWN"	243.288100000001	916.6666685	n/a	n/a	n/a	n/a	n/a	n/a	n/a	"2020-02-11 11:08:46.585685"	"2020-02-11 11:08:47.038082"	16	2.05954468333333
"S200211"	"Processing_Speed"	"RIGHT"	"DOWN"	249.142399999982	533.3333344	n/a	n/a	n/a	n/a	n/a	n/a	n/a	"2020-02-11 11:08:47.580489"	"2020-02-11 11:08:48.038161"	17	2.05954468333333
"S200211"	"Processing_Speed"	"LEFT"	"DOWN"	237.7745	816.6666683	n/a	n/a	n/a	n/a	n/a	n/a	n/a	"2020-02-11 11:08:48.863319"	"2020-02-11 11:08:49.310122"	18	2.05954468333333
"S200211"	"Processing_Speed"	"LEFT"	"DOWN"	234.68729999999	1300.0000026	n/a	n/a	n/a	n/a	n/a	n/a	n/a	"2020-02-11 11:08:50.618326"	"2020-02-11 11:08:51.062140"	19	2.05954468333333
"S200211"	"Processing_Speed"	"LEFT"	"DOWN"	287.255500000015	783.3333349	n/a	n/a	n/a	n/a	n/a	n/a	n/a	"2020-02-11 11:08:51.853616"	"2020-02-11 11:08:52.349283"	20	2.05954468333333
"S200211"	"Processing_Speed"	"LEFT"	"DOWN"	239.217200000013	600.0000012	n/a	n/a	n/a	n/a	n/a	n/a	n/a	"2020-02-11 11:08:52.957690"	"2020-02-11 11:08:53.404510"	21	2.05954468333333
"S200211"	"Processing_Speed"	"LEFT"	"DOWN"	234.069599999998	1150.0000023	n/a	n/a	n/a	n/a	n/a	n/a	n/a	"2020-02-11 11:08:54.563454"	"2020-02-11 11:08:55.005184"	22	2.05954468333333
"S200211"	"Processing_Speed"	"RIGHT"	"DOWN"	225.497900000022	950.0000019	n/a	n/a	n/a	n/a	n/a	n/a	n/a	"2020-02-11 11:08:55.963414"	"2020-02-11 11:08:56.396652"	23	2.05954468333333
"S200211"	"Processing_Speed"	"RIGHT"	"DOWN"	223.288599999989	1216.6666691	n/a	n/a	n/a	n/a	n/a	n/a	n/a	"2020-02-11 11:08:57.621716"	"2020-02-11 11:08:58.052255"	24	2.05954468333333
"S200211"	"Processing_Speed"	"LEFT"	"DOWN"	234.605700000003	950.0000019	n/a	n/a	n/a	n/a	n/a	n/a	n/a	"2020-02-11 11:08:59.010297"	"2020-02-11 11:08:59.454043"	25	2.05954468333333
"S200211"	"Processing_Speed"	"LEFT"	"DOWN"	223.311699999982	1183.3333357	n/a	n/a	n/a	n/a	n/a	n/a	n/a	"2020-02-11 11:09:00.645363"	"2020-02-11 11:09:01.077839"	26	2.05954468333333
"S200211"	"Processing_Speed"	"RIGHT"	"DOWN"	250.693100000007	1500.000003	n/a	n/a	n/a	n/a	n/a	n/a	n/a	"2020-02-11 11:09:02.586534"	"2020-02-11 11:09:03.044700"	27	2.05954468333333
"S200211"	"Processing_Speed"	"RIGHT"	"DOWN"	268.090199999989	700.0000014	n/a	n/a	n/a	n/a	n/a	n/a	n/a	"2020-02-11 11:09:03.752808"	"2020-02-11 11:09:04.228860"	28	2.05954468333333
"S200211"	"Processing_Speed"	"LEFT"	"DOWN"	223.22410000001	1216.6666691	n/a	n/a	n/a	n/a	n/a	n/a	n/a	"2020-02-11 11:09:05.453873"	"2020-02-11 11:09:05.886071"	29	2.05954468333333
"S200211"	"Processing_Speed"	"RIGHT"	"DOWN"	265.747500000003	500.000001	n/a	n/a	n/a	n/a	n/a	n/a	n/a	"2020-02-11 11:09:06.395782"	"2020-02-11 11:09:06.868783"	30	2.05954468333333
"S200211"	"Processing_Speed"	"RIGHT"	"DOWN"	239.826800000003	1400.0000028	n/a	n/a	n/a	n/a	n/a	n/a	n/a	"2020-02-11 11:09:08.276982"	"2020-02-11 11:09:08.725813"	31	2.05954468333333
"S200211"	"Processing_Speed"	"RIGHT"	"DOWN"	313.614299999983	733.3333348	n/a	n/a	n/a	n/a	n/a	n/a	n/a	"2020-02-11 11:09:09.467498"	"2020-02-11 11:09:09.989890"	32	2.05954468333333
"S200211"	"Processing_Speed"	"RIGHT"	"DOWN"	223.863899999998	1366.6666694	n/a	n/a	n/a	n/a	n/a	n/a	n/a	"2020-02-11 11:09:11.365543"	"2020-02-11 11:09:11.797162"	33	2.05954468333333
"S200211"	"Processing_Speed"	"RIGHT"	"DOWN"	245.551399999982	850.0000017	n/a	n/a	n/a	n/a	n/a	n/a	n/a	"2020-02-11 11:09:12.655381"	"2020-02-11 11:09:13.108823"	34	2.05954468333333
"S200211"	"Processing_Speed"	"RIGHT"	"DOWN"	253.388400000006	1266.6666692	n/a	n/a	n/a	n/a	n/a	n/a	n/a	"2020-02-11 11:09:14.384191"	"2020-02-11 11:09:14.845107"	35	2.05954468333333
"S200211"	"Processing_Speed"	"LEFT"	"DOWN"	236.540700000006	883.3333351	n/a	n/a	n/a	n/a	n/a	n/a	n/a	"2020-02-11 11:09:15.736910"	"2020-02-11 11:09:16.181562"	36	2.05954468333333
"S200211"	"Processing_Speed"	"RIGHT"	"DOWN"	350.935900000025	600.0000012	n/a	n/a	n/a	n/a	n/a	n/a	n/a	"2020-02-11 11:09:16.789984"	"2020-02-11 11:09:17.350578"	37	2.05954468333333
"S200211"	"Processing_Speed"	"LEFT"	"DOWN"	303.334400000011	1366.6666694	n/a	n/a	n/a	n/a	n/a	n/a	n/a	"2020-02-11 11:09:18.726010"	"2020-02-11 11:09:19.236704"	38	2.05954468333333
"S200211"	"Processing_Speed"	"RIGHT"	"DOWN"	260.176900000005	1083.3333355	n/a	n/a	n/a	n/a	n/a	n/a	n/a	"2020-02-11 11:09:20.329351"	"2020-02-11 11:09:20.797668"	39	2.05954468333333
"S200211"	"Processing_Speed"	"RIGHT"	"DOWN"	234.339299999988	1116.6666689	n/a	n/a	n/a	n/a	n/a	n/a	n/a	"2020-02-11 11:09:21.922720"	"2020-02-11 11:09:22.365719"	40	2.05954468333333
"S200211"	"Processing_Speed"	"LEFT"	"DOWN"	225.506599999989	733.3333348	n/a	n/a	n/a	n/a	n/a	n/a	n/a	"2020-02-11 11:09:23.108004"	"2020-02-11 11:09:23.541630"	41	2.05954468333333
"S200211"	"Processing_Speed"	"LEFT"	"DOWN"	229.659699999985	1433.3333362	n/a	n/a	n/a	n/a	n/a	n/a	n/a	"2020-02-11 11:09:24.983954"	"2020-02-11 11:09:25.422092"	42	2.05954468333333
"S200211"	"Processing_Speed"	"LEFT"	"DOWN"	244.524499999983	850.0000017	n/a	n/a	n/a	n/a	n/a	n/a	n/a	"2020-02-11 11:09:26.280311"	"2020-02-11 11:09:26.733163"	43	2.05954468333333
"S200211"	"Processing_Speed"	"RIGHT"	"DOWN"	232.179299999984	983.3333353	n/a	n/a	n/a	n/a	n/a	n/a	n/a	"2020-02-11 11:09:27.724606"	"2020-02-11 11:09:28.165878"	44	2.05954468333333
"S200211"	"Processing_Speed"	"RIGHT"	"DOWN"	236.701100000005	1050.0000021	n/a	n/a	n/a	n/a	n/a	n/a	n/a	"2020-02-11 11:09:29.224721"	"2020-02-11 11:09:29.668331"	45	2.05954468333333
"S200211"	"Processing_Speed"	"LEFT"	"DOWN"	232.298299999997	1400.0000028	n/a	n/a	n/a	n/a	n/a	n/a	n/a	"2020-02-11 11:09:31.076828"	"2020-02-11 11:09:31.516919"	46	2.05954468333333
"S200211"	"Processing_Speed"	"LEFT"	"DOWN"	228.330499999998	1083.3333355	n/a	n/a	n/a	n/a	n/a	n/a	n/a	"2020-02-11 11:09:32.608515"	"2020-02-11 11:09:33.044237"	47	2.05954468333333
"S200211"	"Processing_Speed"	"RIGHT"	"DOWN"	231.453899999991	1433.3333362	n/a	n/a	n/a	n/a	n/a	n/a	n/a	"2020-02-11 11:09:34.485522"	"2020-02-11 11:09:34.924730"	48	2.05954468333333
"S200211"	"Processing_Speed"	"LEFT"	"DOWN"	276.117400000004	1500.000003	n/a	n/a	n/a	n/a	n/a	n/a	n/a	"2020-02-11 11:09:36.432725"	"2020-02-11 11:09:36.917069"	49	2.05954468333333
"S200211"	"Processing_Speed"	"RIGHT"	"DOWN"	364.880600000021	666.666668	n/a	n/a	n/a	n/a	n/a	n/a	n/a	"2020-02-11 11:09:37.592272"	"2020-02-11 11:09:38.164577"	50	2.05954468333333
"S200211"	"Processing_Speed"	"LEFT"	"DOWN"	229.246499999988	1266.6666692	n/a	n/a	n/a	n/a	n/a	n/a	n/a	"2020-02-11 11:09:39.439585"	"2020-02-11 11:09:39.876305"	51	2.05954468333333
"S200211"	"Processing_Speed"	"RIGHT"	"DOWN"	233.885100000009	1150.0000023	n/a	n/a	n/a	n/a	n/a	n/a	n/a	"2020-02-11 11:09:41.035724"	"2020-02-11 11:09:41.477893"	52	2.05954468333333
"S200211"	"Processing_Speed"	"LEFT"	"DOWN"	233.371699999992	1333.333336	n/a	n/a	n/a	n/a	n/a	n/a	n/a	"2020-02-11 11:09:42.819238"	"2020-02-11 11:09:43.261414"	53	2.05954468333333
"S200211"	"Processing_Speed"	"RIGHT"	"DOWN"	222.48350000001	1016.6666687	n/a	n/a	n/a	n/a	n/a	n/a	n/a	"2020-02-11 11:09:44.286314"	"2020-02-11 11:09:44.716484"	54	2.05954468333333
"S200211"	"Processing_Speed"	"LEFT"	"DOWN"	236.279600000017	700.0000014	n/a	n/a	n/a	n/a	n/a	n/a	n/a	"2020-02-11 11:09:45.424449"	"2020-02-11 11:09:45.868591"	55	2.05954468333333
"S200211"	"Processing_Speed"	"RIGHT"	"DOWN"	211.452500000007	916.6666685	n/a	n/a	n/a	n/a	n/a	n/a	n/a	"2020-02-11 11:09:46.793414"	"2020-02-11 11:09:47.212879"	56	2.05954468333333
"S200211"	"Processing_Speed"	"LEFT"	"DOWN"	246.740899999992	633.3333346	n/a	n/a	n/a	n/a	n/a	n/a	n/a	"2020-02-11 11:09:47.854220"	"2020-02-11 11:09:48.308916"	57	2.05954468333333
"S200211"	"Processing_Speed"	"RIGHT"	"DOWN"	286.964899999987	816.6666683	n/a	n/a	n/a	n/a	n/a	n/a	n/a	"2020-02-11 11:09:49.134328"	"2020-02-11 11:09:49.628331"	58	2.05954468333333
"S200211"	"Processing_Speed"	"RIGHT"	"DOWN"	237.6893	1466.6666696	n/a	n/a	n/a	n/a	n/a	n/a	n/a	"2020-02-11 11:09:51.102977"	"2020-02-11 11:09:51.549414"	59	2.05954468333333
"S200211"	"Processing_Speed"	"RIGHT"	"DOWN"	235.934200000003	883.3333351	n/a	n/a	n/a	n/a	n/a	n/a	n/a	"2020-02-11 11:09:52.441158"	"2020-02-11 11:09:52.884358"	60	2.05954468333333
"S200211"	"Response_Inhibition"	"LEFT"	"LEFT"	307.530799999995	983.3333353	n/a	n/a	n/a	n/a	n/a	n/a	n/a	"2020-02-11 11:13:06.913299"	"2020-02-11 11:13:07.429058"	1	5.12738438333333
"S200211"	"Response_Inhibition"	"LEFT"	"LEFT"	276.2594337	1000.000002	n/a	n/a	n/a	n/a	n/a	n/a	n/a	"2020-02-11 11:13:08.437922"	"2020-02-11 11:13:08.925441"	2	5.12738438333333
"S200211"	"Response_Inhibition"	"LEFT"	"LEFT"	274.233400000014	1316.6666693	n/a	n/a	n/a	n/a	n/a	n/a	n/a	"2020-02-11 11:13:10.251171"	"2020-02-11 11:13:10.733255"	3	5.12738438333333
"S200211"	"Response_Inhibition"	"RIGHT"	"RIGHT"	297.545767199993	1450.0000029	n/a	n/a	n/a	n/a	n/a	n/a	n/a	"2020-02-11 11:13:12.191967"	"2020-02-11 11:13:12.702185"	4	5.12738438333333
"S200211"	"Response_Inhibition"	"LEFT"	"LEFT"	276.411899999971	1050.0000021	n/a	n/a	n/a	n/a	n/a	n/a	n/a	"2020-02-11 11:13:13.760588"	"2020-02-11 11:13:14.244614"	5	5.12738438333333
"S200211"	"Response_Inhibition"	"RIGHT"	"RIGHT"	460.322299999973	1500.000003	n/a	n/a	n/a	n/a	n/a	n/a	n/a	"2020-02-11 11:13:15.752997"	"2020-02-11 11:13:16.420570"	6	5.12738438333333
"S200211"	"Response_Inhibition"	"LEFT"	"LEFT"	238.877000400014	950.0000019	n/a	n/a	n/a	n/a	n/a	n/a	n/a	"2020-02-11 11:13:17.379225"	"2020-02-11 11:13:17.828362"	7	5.12738438333333
"S200211"	"Response_Inhibition"	"RIGHT"	"RIGHT"	286.19580000003	1050.0000021	n/a	n/a	n/a	n/a	n/a	n/a	n/a	"2020-02-11 11:13:18.886586"	"2020-02-11 11:13:19.382123"	8	5.12738438333333
"S200211"	"Response_Inhibition"	"RIGHT"	"RIGHT"	294.19230000002	600.0000012	n/a	n/a	n/a	n/a	n/a	n/a	n/a	"2020-02-11 11:13:19.990784"	"2020-02-11 11:13:20.493383"	9	5.12738438333333
"S200211"	"Response_Inhibition"	"LEFT"	"LEFT"	257.617299999993	1333.333336	n/a	n/a	n/a	n/a	n/a	n/a	n/a	"2020-02-11 11:13:21.835310"	"2020-02-11 11:13:22.300909"	10	5.12738438333333
"S200211"	"Response_Inhibition"	"LEFT"	"LEFT"	321.523500000012	1150.0000023	n/a	n/a	n/a	n/a	n/a	n/a	n/a	"2020-02-11 11:13:23.459292"	"2020-02-11 11:13:23.988694"	11	5.12738438333333
"S200211"	"Response_Inhibition"	"LEFT"	"LEFT"	279.432600000007	616.6666679	n/a	n/a	n/a	n/a	n/a	n/a	n/a	"2020-02-11 11:13:24.614025"	"2020-02-11 11:13:25.101443"	12	5.12738438333333
"S200211"	"Response_Inhibition"	"LEFT"	"LEFT"	252.140267099989	1183.3333357	n/a	n/a	n/a	n/a	n/a	n/a	n/a	"2020-02-11 11:13:26.293477"	"2020-02-11 11:13:26.757105"	13	5.12738438333333
"S200211"	"Response_Inhibition"	"LEFT"	"LEFT"	258.243800000002	1133.3333356	n/a	n/a	n/a	n/a	n/a	n/a	n/a	"2020-02-11 11:13:27.898658"	"2020-02-11 11:13:28.365369"	14	5.12738438333333
"S200211"	"Response_Inhibition"	"RIGHT"	"RIGHT"	228.57369999997	1266.6666692	n/a	n/a	n/a	n/a	n/a	n/a	n/a	"2020-02-11 11:13:29.640425"	"2020-02-11 11:13:30.078050"	15	5.12738438333333
"S200211"	"Response_Inhibition"	"RIGHT"	"RIGHT"	217.604599999959	1116.6666689	n/a	n/a	n/a	n/a	n/a	n/a	n/a	"2020-02-11 11:13:31.203520"	"2020-02-11 11:13:31.628478"	16	5.12738438333333
"S200211"	"Response_Inhibition"	"LEFT"	"LEFT"	266.216900000018	716.6666681	n/a	n/a	n/a	n/a	n/a	n/a	n/a	"2020-02-11 11:13:32.355066"	"2020-02-11 11:13:32.829742"	17	5.12738438333333
"S200211"	"Response_Inhibition"	"LEFT"	"LEFT"	249.09220030003	1466.6666696	n/a	n/a	n/a	n/a	n/a	n/a	n/a	"2020-02-11 11:13:34.305057"	"2020-02-11 11:13:34.764791"	18	5.12738438333333
"S200211"	"Response_Inhibition"	"LEFT"	"LEFT"	276.937200199998	583.3333345	n/a	n/a	n/a	n/a	n/a	n/a	n/a	"2020-02-11 11:13:35.357102"	"2020-02-11 11:13:35.845801"	19	5.12738438333333
"S200211"	"Response_Inhibition"	"RIGHT"	"RIGHT"	255.120999999974	583.3333345	n/a	n/a	n/a	n/a	n/a	n/a	n/a	"2020-02-11 11:13:36.437834"	"2020-02-11 11:13:36.902134"	20	5.12738438333333
"S200211"	"Response_Inhibition"	"LEFT"	"LEFT"	245.01170000002	816.6666683	n/a	n/a	n/a	n/a	n/a	n/a	n/a	"2020-02-11 11:13:37.727920"	"2020-02-11 11:13:38.180991"	21	5.12738438333333
"S200211"	"Response_Inhibition"	"RIGHT"	"RIGHT"	266.64169999998	716.6666681	n/a	n/a	n/a	n/a	n/a	n/a	n/a	"2020-02-11 11:13:38.906506"	"2020-02-11 11:13:39.381143"	22	5.12738438333333
"S200211"	"Response_Inhibition"	"LEFT"	"LEFT"	237.326200000041	1050.0000021	n/a	n/a	n/a	n/a	n/a	n/a	n/a	"2020-02-11 11:13:40.439557"	"2020-02-11 11:13:40.885759"	23	5.12738438333333
"S200211"	"Response_Inhibition"	"RIGHT"	"RIGHT"	283.638499999995	683.3333347	n/a	n/a	n/a	n/a	n/a	n/a	n/a	"2020-02-11 11:13:41.577569"	"2020-02-11 11:13:42.068493"	24	5.12738438333333
"S200211"	"Response_Inhibition"	"RIGHT"	"RIGHT"	273.702800000024	933.3333352	n/a	n/a	n/a	n/a	n/a	n/a	n/a	"2020-02-11 11:13:43.011023"	"2020-02-11 11:13:43.492617"	25	5.12738438333333
"S200211"	"Response_Inhibition"	"LEFT"	"LEFT"	266.834399999993	733.3333348	n/a	n/a	n/a	n/a	n/a	n/a	n/a	"2020-02-11 11:13:44.234157"	"2020-02-11 11:13:44.708833"	26	5.12738438333333
"S200211"	"Response_Inhibition"	"LEFT"	"LEFT"	231.704900000011	783.3333349	n/a	n/a	n/a	n/a	n/a	n/a	n/a	"2020-02-11 11:13:45.501641"	"2020-02-11 11:13:45.940675"	27	5.12738438333333
"S200211"	"Response_Inhibition"	"RIGHT"	"RIGHT"	219.176500099992	1233.3333358	n/a	n/a	n/a	n/a	n/a	n/a	n/a	"2020-02-11 11:13:47.182903"	"2020-02-11 11:13:47.613322"	28	5.12738438333333
"S200211"	"Response_Inhibition"	"RIGHT"	"RIGHT"	303.26713389999	1100.0000022	n/a	n/a	n/a	n/a	n/a	n/a	n/a	"2020-02-11 11:13:48.722412"	"2020-02-11 11:13:49.238033"	29	5.12738438333333
"S200211"	"Response_Inhibition"	"LEFT"	"LEFT"	246.754399999986	800.0000016	n/a	n/a	n/a	n/a	n/a	n/a	n/a	"2020-02-11 11:13:50.046415"	"2020-02-11 11:13:50.500715"	30	5.12738438333333
"S200211"	"Response_Inhibition"	"RIGHT"	"RIGHT"	251.875666899975	816.6666683	n/a	n/a	n/a	n/a	n/a	n/a	n/a	"2020-02-11 11:13:51.325520"	"2020-02-11 11:13:51.788751"	31	5.12738438333333
"S200211"	"Response_Inhibition"	"LEFT"	"LEFT"	267.529500499966	1216.6666691	n/a	n/a	n/a	n/a	n/a	n/a	n/a	"2020-02-11 11:13:53.014495"	"2020-02-11 11:13:53.494139"	32	5.12738438333333
"S200211"	"Response_Inhibition"	"LEFT"	"LEFT"	305.004533700037	650.0000013	n/a	n/a	n/a	n/a	n/a	n/a	n/a	"2020-02-11 11:13:54.152469"	"2020-02-11 11:13:54.669024"	33	5.12738438333333
"S200211"	"Response_Inhibition"	"RIGHT"	"RIGHT"	240.218000000027	983.3333353	n/a	n/a	n/a	n/a	n/a	n/a	n/a	"2020-02-11 11:13:55.661044"	"2020-02-11 11:13:56.108225"	34	5.12738438333333
"S200211"	"Response_Inhibition"	"LEFT"	"LEFT"	322.304400500007	666.666668	n/a	n/a	n/a	n/a	n/a	n/a	n/a	"2020-02-11 11:13:56.783424"	"2020-02-11 11:13:57.317200"	35	5.12738438333333
"S200211"	"Response_Inhibition"	"RIGHT"	"RIGHT"	255.178700499988	1316.6666693	n/a	n/a	n/a	n/a	n/a	n/a	n/a	"2020-02-11 11:13:58.643105"	"2020-02-11 11:13:59.109972"	36	5.12738438333333
"S200211"	"Response_Inhibition"	"LEFT"	"LEFT"	237.815300000022	1016.6666687	n/a	n/a	n/a	n/a	n/a	n/a	n/a	"2020-02-11 11:14:00.135150"	"2020-02-11 11:14:00.580572"	37	5.12738438333333
"S200211"	"Response_Inhibition"	"RIGHT"	"RIGHT"	244.234000000006	1283.3333359	n/a	n/a	n/a	n/a	n/a	n/a	n/a	"2020-02-11 11:14:01.872894"	"2020-02-11 11:14:02.325677"	38	5.12738438333333
"S200211"	"Response_Inhibition"	"RIGHT"	"RIGHT"	269.549999999981	633.3333346	n/a	n/a	n/a	n/a	n/a	n/a	n/a	"2020-02-11 11:14:02.967078"	"2020-02-11 11:14:03.445446"	39	5.12738438333333
"S200211"	"Response_Inhibition"	"RIGHT"	"RIGHT"	257.650733800029	850.0000017	n/a	n/a	n/a	n/a	n/a	n/a	n/a	"2020-02-11 11:14:04.304262"	"2020-02-11 11:14:04.773345"	40	5.12738438333333
"S200211"	"Response_Inhibition"	"LEFT"	"LEFT"	272.165400000006	583.3333345	n/a	n/a	n/a	n/a	n/a	n/a	n/a	"2020-02-11 11:14:05.365242"	"2020-02-11 11:14:05.845002"	41	5.12738438333333
"S200211"	"Response_Inhibition"	"LEFT"	"LEFT"	398.788267200005	533.3333344	n/a	n/a	n/a	n/a	n/a	n/a	n/a	"2020-02-11 11:14:06.386534"	"2020-02-11 11:14:06.997556"	42	5.12738438333333
"S200211"	"Response_Inhibition"	"RIGHT"	"RIGHT"	363.546999999983	1083.3333355	n/a	n/a	n/a	n/a	n/a	n/a	n/a	"2020-02-11 11:14:08.089145"	"2020-02-11 11:14:08.661760"	43	5.12738438333333
"S200211"	"Response_Inhibition"	"RIGHT"	"RIGHT"	307.25259999997	866.6666684	n/a	n/a	n/a	n/a	n/a	n/a	n/a	"2020-02-11 11:14:09.537471"	"2020-02-11 11:14:10.052364"	44	5.12738438333333
"S200211"	"Response_Inhibition"	"LEFT"	"LEFT"	350.578199999973	633.3333346	n/a	n/a	n/a	n/a	n/a	n/a	n/a	"2020-02-11 11:14:10.694681"	"2020-02-11 11:14:11.254050"	45	5.12738438333333
"S200211"	"Response_Inhibition"	"LEFT"	"LEFT"	370.713899999998	1100.0000022	n/a	n/a	n/a	n/a	n/a	n/a	n/a	"2020-02-11 11:14:12.362339"	"2020-02-11 11:14:12.941185"	46	5.12738438333333
"S200211"	"Response_Inhibition"	"LEFT"	"LEFT"	343.16240000004	1400.0000028	n/a	n/a	n/a	n/a	n/a	n/a	n/a	"2020-02-11 11:14:14.349420"	"2020-02-11 11:14:14.901356"	47	5.12738438333333
"S200211"	"Response_Inhibition"	"RIGHT"	"RIGHT"	472.517000000039	566.6666678	n/a	n/a	n/a	n/a	n/a	n/a	n/a	"2020-02-11 11:14:15.476822"	"2020-02-11 11:14:16.156462"	48	5.12738438333333
"S200211"	"Response_Inhibition"	"LEFT"	"LEFT"	325.869400300011	1366.6666694	n/a	n/a	n/a	n/a	n/a	n/a	n/a	"2020-02-11 11:14:17.532183"	"2020-02-11 11:14:18.068278"	49	5.12738438333333
"S200211"	"Response_Inhibition"	"LEFT"	"LEFT"	458.192300000007	950.0000019	n/a	n/a	n/a	n/a	n/a	n/a	n/a	"2020-02-11 11:14:19.026750"	"2020-02-11 11:14:19.692560"	50	5.12738438333333
"S200211"	"Response_Inhibition"	"LEFT"	"LEFT"	364.588800000035	883.3333351	n/a	n/a	n/a	n/a	n/a	n/a	n/a	"2020-02-11 11:14:20.584786"	"2020-02-11 11:14:21.157313"	51	5.12738438333333
"S200211"	"Response_Inhibition"	"RIGHT"	"RIGHT"	419.708700000001	1466.6666696	n/a	n/a	n/a	n/a	n/a	n/a	n/a	"2020-02-11 11:14:22.633282"	"2020-02-11 11:14:23.260427"	52	5.12738438333333
"S200211"	"Response_Inhibition"	"LEFT"	"LEFT"	258.458900000051	1150.0000023	n/a	n/a	n/a	n/a	n/a	n/a	n/a	"2020-02-11 11:14:24.418487"	"2020-02-11 11:14:24.884869"	53	5.12738438333333
"S200211"	"Response_Inhibition"	"RIGHT"	"RIGHT"	314.891199999977	916.6666685	n/a	n/a	n/a	n/a	n/a	n/a	n/a	"2020-02-11 11:14:25.809923"	"2020-02-11 11:14:26.332439"	54	5.12738438333333
"S200211"	"Response_Inhibition"	"LEFT"	"LEFT"	296.753633599984	700.0000014	n/a	n/a	n/a	n/a	n/a	n/a	n/a	"2020-02-11 11:14:27.041281"	"2020-02-11 11:14:27.548215"	55	5.12738438333333
"S200211"	"Response_Inhibition"	"LEFT"	"LEFT"	464.728799999989	783.3333349	n/a	n/a	n/a	n/a	n/a	n/a	n/a	"2020-02-11 11:14:28.340639"	"2020-02-11 11:14:29.013016"	56	5.12738438333333
"S200211"	"Response_Inhibition"	"RIGHT"	"RIGHT"	675.065366799952	633.3333346	n/a	n/a	n/a	n/a	n/a	n/a	n/a	"2020-02-11 11:14:29.654380"	"2020-02-11 11:14:30.541038"	57	5.12738438333333
"S200211"	"Response_Inhibition"	"RIGHT"	"RIGHT"	525.205900000003	1250.0000025	n/a	n/a	n/a	n/a	n/a	n/a	n/a	"2020-02-11 11:14:31.800148"	"2020-02-11 11:14:32.533820"	58	5.12738438333333
"S200211"	"Response_Inhibition"	"LEFT"	"RIGHT"	345.015100000012	533.3333344	n/a	n/a	n/a	n/a	n/a	n/a	n/a	"2020-02-11 11:14:33.075976"	"2020-02-11 11:14:33.629026"	59	5.12738438333333
"S200211"	"Response_Inhibition"	"LEFT"	"LEFT"	375.085733599996	500.000001	n/a	n/a	n/a	n/a	n/a	n/a	n/a	"2020-02-11 11:14:34.138687"	"2020-02-11 11:14:34.725154"	60	5.12738438333333
"S200211"	"Response_Inhibition"	"RIGHT"	"RIGHT"	1102.42190000002	616.6666679	n/a	n/a	n/a	n/a	n/a	n/a	n/a	"2020-02-11 11:14:35.350381"	"2020-02-11 11:14:36.661215"	61	5.12738438333333
"S200211"	"Response_Inhibition"	"RIGHT"	"RIGHT"	487.706399999979	1383.3333361	n/a	n/a	n/a	n/a	n/a	n/a	n/a	"2020-02-11 11:14:38.053613"	"2020-02-11 11:14:38.748313"	62	5.12738438333333
"S200211"	"Response_Inhibition"	"RIGHT"	"RIGHT"	450.519199999974	533.3333344	n/a	n/a	n/a	n/a	n/a	n/a	n/a	"2020-02-11 11:14:39.290577"	"2020-02-11 11:14:39.948691"	63	5.12738438333333
"S200211"	"Response_Inhibition"	"RIGHT"	"RIGHT"	430.874500000016	1416.6666695	n/a	n/a	n/a	n/a	n/a	n/a	n/a	"2020-02-11 11:14:41.373945"	"2020-02-11 11:14:42.012707"	64	5.12738438333333
"S200211"	"Response_Inhibition"	"LEFT"	"LEFT"	467.595099999983	1100.0000022	n/a	n/a	n/a	n/a	n/a	n/a	n/a	"2020-02-11 11:14:43.121665"	"2020-02-11 11:14:43.797839"	65	5.12738438333333
"S200211"	"Response_Inhibition"	"RIGHT"	"RIGHT"	380.803967000004	1366.6666694	n/a	n/a	n/a	n/a	n/a	n/a	n/a	"2020-02-11 11:14:45.172509"	"2020-02-11 11:14:45.764567"	66	5.12738438333333
"S200211"	"Response_Inhibition"	"LEFT"	"LEFT"	475.581799999986	916.6666685	n/a	n/a	n/a	n/a	n/a	n/a	n/a	"2020-02-11 11:14:46.689713"	"2020-02-11 11:14:47.373901"	67	5.12738438333333
"S200211"	"Response_Inhibition"	"RIGHT"	"RIGHT"	534.028700000022	1216.6666691	n/a	n/a	n/a	n/a	n/a	n/a	n/a	"2020-02-11 11:14:48.599307"	"2020-02-11 11:14:49.340421"	68	5.12738438333333
"S200211"	"Response_Inhibition"	"LEFT"	"LEFT"	273.547000000008	1166.666669	n/a	n/a	n/a	n/a	n/a	n/a	n/a	"2020-02-11 11:14:50.515438"	"2020-02-11 11:14:50.996835"	69	5.12738438333333
"S200211"	"Response_Inhibition"	"RIGHT"	"RIGHT"	291.776599999935	1300.0000026	n/a	n/a	n/a	n/a	n/a	n/a	n/a	"2020-02-11 11:14:52.304937"	"2020-02-11 11:14:52.804936"	70	5.12738438333333
"S200211"	"Response_Inhibition"	"LEFT"	"LEFT"	371.523999999908	900.0000018	n/a	n/a	n/a	n/a	n/a	n/a	n/a	"2020-02-11 11:14:53.713777"	"2020-02-11 11:14:54.293808"	71	5.12738438333333
"S200211"	"Response_Inhibition"	"LEFT"	"LEFT"	372.306299999991	1450.0000029	n/a	n/a	n/a	n/a	n/a	n/a	n/a	"2020-02-11 11:14:55.753144"	"2020-02-11 11:14:56.332799"	72	5.12738438333333
"S200211"	"Response_Inhibition"	"RIGHT"	"RIGHT"	376.168300000018	1183.3333357	n/a	n/a	n/a	n/a	n/a	n/a	n/a	"2020-02-11 11:14:57.524804"	"2020-02-11 11:14:58.108698"	73	5.12738438333333
"S200211"	"Response_Inhibition"	"RIGHT"	"RIGHT"	350.544900000045	833.333335	n/a	n/a	n/a	n/a	n/a	n/a	n/a	"2020-02-11 11:14:58.950868"	"2020-02-11 11:14:59.508999"	74	5.12738438333333
"S200211"	"Response_Inhibition"	"RIGHT"	"RIGHT"	297.225200000071	1150.0000023	n/a	n/a	n/a	n/a	n/a	n/a	n/a	"2020-02-11 11:15:00.667894"	"2020-02-11 11:15:01.173130"	75	5.12738438333333
"S200211"	"Response_Inhibition"	"LEFT"	"Time_Max_Exceeded"	1500.05140010001	900.0000018	n/a	n/a	n/a	n/a	n/a	n/a	n/a	"2020-02-11 11:15:02.081260"	"2020-02-11 11:15:03.585296"	76	5.12738438333333
"S200211"	"Response_Inhibition"	"RIGHT"	"RIGHT"	360.253199999988	1466.6666696	n/a	n/a	n/a	n/a	n/a	n/a	n/a	"2020-02-11 11:15:05.060441"	"2020-02-11 11:15:05.628787"	77	5.12738438333333
"S200211"	"Response_Inhibition"	"RIGHT"	"RIGHT"	341.791467000049	1166.666669	n/a	n/a	n/a	n/a	n/a	n/a	n/a	"2020-02-11 11:15:06.803665"	"2020-02-11 11:15:07.357918"	78	5.12738438333333
"S200211"	"Response_Inhibition"	"LEFT"	"LEFT"	353.990400399998	1233.3333358	n/a	n/a	n/a	n/a	n/a	n/a	n/a	"2020-02-11 11:15:08.599621"	"2020-02-11 11:15:09.164923"	79	5.12738438333333
"S200211"	"Response_Inhibition"	"RIGHT"	"RIGHT"	647.145300000034	583.3333345	n/a	n/a	n/a	n/a	n/a	n/a	n/a	"2020-02-11 11:15:09.758110"	"2020-02-11 11:15:10.612670"	80	5.12738438333333
"S200211"	"Response_Inhibition"	"RIGHT"	"RIGHT"	517.000900000085	1266.6666692	n/a	n/a	n/a	n/a	n/a	n/a	n/a	"2020-02-11 11:15:11.888015"	"2020-02-11 11:15:12.612288"	81	5.12738438333333
"S200211"	"Response_Inhibition"	"RIGHT"	"RIGHT"	379.285199999913	1333.333336	n/a	n/a	n/a	n/a	n/a	n/a	n/a	"2020-02-11 11:15:13.953690"	"2020-02-11 11:15:14.541259"	82	5.12738438333333
"S200211"	"Response_Inhibition"	"RIGHT"	"Time_Max_Exceeded"	1500.0471337	783.3333349	n/a	n/a	n/a	n/a	n/a	n/a	n/a	"2020-02-11 11:15:15.332531"	"2020-02-11 11:15:16.836703"	83	5.12738438333333
"S200211"	"Response_Inhibition"	"RIGHT"	"RIGHT"	371.217399999978	1483.3333363	n/a	n/a	n/a	n/a	n/a	n/a	n/a	"2020-02-11 11:15:18.329937"	"2020-02-11 11:15:18.909090"	84	5.12738438333333
"S200211"	"Response_Inhibition"	"RIGHT"	"RIGHT"	341.698199999996	1433.3333362	n/a	n/a	n/a	n/a	n/a	n/a	n/a	"2020-02-11 11:15:20.351582"	"2020-02-11 11:15:20.900859"	85	5.12738438333333
"S200211"	"Response_Inhibition"	"LEFT"	"LEFT"	477.605700000026	850.0000017	n/a	n/a	n/a	n/a	n/a	n/a	n/a	"2020-02-11 11:15:21.759575"	"2020-02-11 11:15:22.445819"	86	5.12738438333333
"S200211"	"Response_Inhibition"	"LEFT"	"LEFT"	467.833700000028	866.6666684	n/a	n/a	n/a	n/a	n/a	n/a	n/a	"2020-02-11 11:15:23.321460"	"2020-02-11 11:15:23.996873"	87	5.12738438333333
"S200211"	"Response_Inhibition"	"LEFT"	"LEFT"	539.357400000085	1500.000003	n/a	n/a	n/a	n/a	n/a	n/a	n/a	"2020-02-11 11:15:25.505625"	"2020-02-11 11:15:26.252998"	88	5.12738438333333
"S200211"	"Response_Inhibition"	"LEFT"	"LEFT"	513.383400000066	1350.0000027	n/a	n/a	n/a	n/a	n/a	n/a	n/a	"2020-02-11 11:15:27.611070"	"2020-02-11 11:15:28.332738"	89	5.12738438333333
"S200211"	"Response_Inhibition"	"LEFT"	"LEFT"	566.345200000001	1033.3333354	n/a	n/a	n/a	n/a	n/a	n/a	n/a	"2020-02-11 11:15:29.374335"	"2020-02-11 11:15:30.148374"	90	5.12738438333333
"S200211"	"Response_Inhibition"	"LEFT"	"LEFT"	516.573300000005	683.3333347	n/a	n/a	n/a	n/a	n/a	n/a	n/a	"2020-02-11 11:15:30.840585"	"2020-02-11 11:15:31.565974"	91	5.12738438333333
"S200211"	"Response_Inhibition"	"LEFT"	"LEFT"	499.662200000103	1466.6666696	n/a	n/a	n/a	n/a	n/a	n/a	n/a	"2020-02-11 11:15:33.041304"	"2020-02-11 11:15:33.748759"	92	5.12738438333333
"S200211"	"Response_Inhibition"	"LEFT"	"LEFT"	381.03213360008	1383.3333361	n/a	n/a	n/a	n/a	n/a	n/a	n/a	"2020-02-11 11:15:35.140829"	"2020-02-11 11:15:35.732775"	93	5.12738438333333
"S200211"	"Response_Inhibition"	"RIGHT"	"RIGHT"	561.992300000043	733.3333348	n/a	n/a	n/a	n/a	n/a	n/a	n/a	"2020-02-11 11:15:36.474838"	"2020-02-11 11:15:37.246102"	94	5.12738438333333
"S200211"	"Response_Inhibition"	"RIGHT"	"RIGHT"	621.998700000063	1400.0000028	n/a	n/a	n/a	n/a	n/a	n/a	n/a	"2020-02-11 11:15:38.654748"	"2020-02-11 11:15:39.485187"	95	5.12738438333333
"S200211"	"Response_Inhibition"	"LEFT"	"LEFT"	330.016699999987	933.3333352	n/a	n/a	n/a	n/a	n/a	n/a	n/a	"2020-02-11 11:15:40.426919"	"2020-02-11 11:15:40.964344"	96	5.12738438333333
"S200211"	"Response_Inhibition"	"LEFT"	"LEFT"	504.373799999939	566.6666678	n/a	n/a	n/a	n/a	n/a	n/a	n/a	"2020-02-11 11:15:41.540723"	"2020-02-11 11:15:42.253813"	97	5.12738438333333
"S200211"	"Response_Inhibition"	"LEFT"	"Time_Max_Exceeded"	1500.05086679998	1266.6666692	n/a	n/a	n/a	n/a	n/a	n/a	n/a	"2020-02-11 11:15:43.529257"	"2020-02-11 11:15:45.032345"	98	5.12738438333333
"S200211"	"Response_Inhibition"	"RIGHT"	"RIGHT"	326.041433800095	1066.6666688	n/a	n/a	n/a	n/a	n/a	n/a	n/a	"2020-02-11 11:15:46.108192"	"2020-02-11 11:15:46.644837"	99	5.12738438333333
"S200211"	"Response_Inhibition"	"RIGHT"	"RIGHT"	431.856899999957	1000.000002	n/a	n/a	n/a	n/a	n/a	n/a	n/a	"2020-02-11 11:15:47.653256"	"2020-02-11 11:15:48.292821"	100	5.12738438333333
"S200211"	"Response_Inhibition"	"LEFT"	"LEFT"	494.560699999965	633.3333346	n/a	n/a	n/a	n/a	n/a	n/a	n/a	"2020-02-11 11:15:48.934264"	"2020-02-11 11:15:49.636376"	101	5.12738438333333
"S200211"	"Response_Inhibition"	"LEFT"	"LEFT"	483.314700000051	1316.6666693	n/a	n/a	n/a	n/a	n/a	n/a	n/a	"2020-02-11 11:15:50.961952"	"2020-02-11 11:15:51.652246"	102	5.12738438333333
"S200211"	"Response_Inhibition"	"RIGHT"	"RIGHT"	532.207500000027	900.0000018	n/a	n/a	n/a	n/a	n/a	n/a	n/a	"2020-02-11 11:15:52.560596"	"2020-02-11 11:15:53.301194"	103	5.12738438333333
"S200211"	"Response_Inhibition"	"RIGHT"	"RIGHT"	537.306100000023	550.0000011	n/a	n/a	n/a	n/a	n/a	n/a	n/a	"2020-02-11 11:15:53.859214"	"2020-02-11 11:15:54.604228"	104	5.12738438333333
"S200211"	"Response_Inhibition"	"LEFT"	"LEFT"	659.585700000093	516.6666677	n/a	n/a	n/a	n/a	n/a	n/a	n/a	"2020-02-11 11:15:55.129475"	"2020-02-11 11:15:55.997038"	105	5.12738438333333
"S200211"	"Response_Inhibition"	"RIGHT"	"RIGHT"	544.157300000052	783.3333349	n/a	n/a	n/a	n/a	n/a	n/a	n/a	"2020-02-11 11:15:56.788529"	"2020-02-11 11:15:57.540674"	106	5.12738438333333
"S200211"	"Response_Inhibition"	"RIGHT"	"Time_Max_Exceeded"	1500.05706690005	533.3333344	n/a	n/a	n/a	n/a	n/a	n/a	n/a	"2020-02-11 11:15:58.082209"	"2020-02-11 11:15:59.585691"	107	5.12738438333333
"S200211"	"Response_Inhibition"	"RIGHT"	"Time_Max_Exceeded"	1500.04823339994	1033.3333354	n/a	n/a	n/a	n/a	n/a	n/a	n/a	"2020-02-11 11:16:00.628072"	"2020-02-11 11:16:02.131615"	108	5.12738438333333
"S200211"	"Response_Inhibition"	"RIGHT"	"RIGHT"	515.580999999997	883.3333351	n/a	n/a	n/a	n/a	n/a	n/a	n/a	"2020-02-11 11:16:03.025795"	"2020-02-11 11:16:03.748441"	109	5.12738438333333
"S200211"	"Response_Inhibition"	"LEFT"	"LEFT"	415.373100000011	1216.6666691	n/a	n/a	n/a	n/a	n/a	n/a	n/a	"2020-02-11 11:16:04.973976"	"2020-02-11 11:16:05.597009"	110	5.12738438333333
"S200211"	"Response_Inhibition"	"RIGHT"	"RIGHT"	368.779899999936	966.6666686	n/a	n/a	n/a	n/a	n/a	n/a	n/a	"2020-02-11 11:16:06.572017"	"2020-02-11 11:16:07.148214"	111	5.12738438333333
"S200211"	"Response_Inhibition"	"RIGHT"	"RIGHT"	547.341699999947	516.6666677	n/a	n/a	n/a	n/a	n/a	n/a	n/a	"2020-02-11 11:16:07.673811"	"2020-02-11 11:16:08.430164"	112	5.12738438333333
"S200211"	"Response_Inhibition"	"LEFT"	"Time_Max_Exceeded"	1500.05503339999	1433.3333362	n/a	n/a	n/a	n/a	n/a	n/a	n/a	"2020-02-11 11:16:09.871632"	"2020-02-11 11:16:11.374945"	113	5.12738438333333
"S200211"	"Response_Inhibition"	"RIGHT"	"RIGHT"	319.960900000069	1316.6666693	n/a	n/a	n/a	n/a	n/a	n/a	n/a	"2020-02-11 11:16:12.701006"	"2020-02-11 11:16:13.229037"	114	5.12738438333333
"S200211"	"Response_Inhibition"	"LEFT"	"LEFT"	414.63710000005	1416.6666695	n/a	n/a	n/a	n/a	n/a	n/a	n/a	"2020-02-11 11:16:14.654585"	"2020-02-11 11:16:15.276692"	115	5.12738438333333
"S200211"	"Response_Inhibition"	"LEFT"	"LEFT"	394.356899999934	733.3333348	n/a	n/a	n/a	n/a	n/a	n/a	n/a	"2020-02-11 11:16:16.018846"	"2020-02-11 11:16:16.621216"	116	5.12738438333333
"S200211"	"Response_Inhibition"	"RIGHT"	"RIGHT"	454.083500000024	1216.6666691	n/a	n/a	n/a	n/a	n/a	n/a	n/a	"2020-02-11 11:16:17.846465"	"2020-02-11 11:16:18.508915"	117	5.12738438333333
"S200211"	"Response_Inhibition"	"LEFT"	"LEFT"	390.7635999999	1416.6666695	n/a	n/a	n/a	n/a	n/a	n/a	n/a	"2020-02-11 11:16:19.934581"	"2020-02-11 11:16:20.532733"	118	5.12738438333333
"S200211"	"Response_Inhibition"	"RIGHT"	"RIGHT"	402.137400000015	1133.3333356	n/a	n/a	n/a	n/a	n/a	n/a	n/a	"2020-02-11 11:16:21.675008"	"2020-02-11 11:16:22.284736"	119	5.12738438333333
"S200211"	"Response_Inhibition"	"RIGHT"	"RIGHT"	332.825999999955	666.666668	n/a	n/a	n/a	n/a	n/a	n/a	n/a	"2020-02-11 11:16:22.959513"	"2020-02-11 11:16:23.500302"	120	5.12738438333333
"S200211"	"Response_Inhibition"	"LEFT"	"Time_Max_Exceeded"	1500.05080009999	1000.000002	n/a	n/a	n/a	n/a	n/a	n/a	n/a	"2020-02-11 11:16:24.509078"	"2020-02-11 11:16:26.012584"	121	5.12738438333333
"S200211"	"Response_Inhibition"	"RIGHT"	"RIGHT"	360.307999999918	1366.6666694	n/a	n/a	n/a	n/a	n/a	n/a	n/a	"2020-02-11 11:16:27.388786"	"2020-02-11 11:16:27.956316"	122	5.12738438333333
"S200211"	"Response_Inhibition"	"RIGHT"	"RIGHT"	334.064966900013	950.0000019	n/a	n/a	n/a	n/a	n/a	n/a	n/a	"2020-02-11 11:16:28.915762"	"2020-02-11 11:16:29.460398"	123	5.12738438333333
"S200211"	"Response_Inhibition"	"RIGHT"	"Time_Max_Exceeded"	1500.05096670001	750.0000015	n/a	n/a	n/a	n/a	n/a	n/a	n/a	"2020-02-11 11:16:30.218474"	"2020-02-11 11:16:31.722436"	124	5.12738438333333
"S200211"	"Response_Inhibition"	"RIGHT"	"RIGHT"	403.562899999997	1150.0000023	n/a	n/a	n/a	n/a	n/a	n/a	n/a	"2020-02-11 11:16:32.881118"	"2020-02-11 11:16:33.492374"	125	5.12738438333333
"S200211"	"Response_Inhibition"	"LEFT"	"LEFT"	437.565300000074	1266.6666692	n/a	n/a	n/a	n/a	n/a	n/a	n/a	"2020-02-11 11:16:34.767145"	"2020-02-11 11:16:35.412967"	126	5.12738438333333
"S200211"	"Response_Inhibition"	"LEFT"	"Time_Max_Exceeded"	1500.09160040009	833.333335	n/a	n/a	n/a	n/a	n/a	n/a	n/a	"2020-02-11 11:16:36.255192"	"2020-02-11 11:16:37.758700"	127	5.12738438333333
"S200211"	"Response_Inhibition"	"LEFT"	"LEFT"	487.656600000037	550.0000011	n/a	n/a	n/a	n/a	n/a	n/a	n/a	"2020-02-11 11:16:38.317540"	"2020-02-11 11:16:39.012955"	128	5.12738438333333
"S200211"	"Response_Inhibition"	"LEFT"	"LEFT"	416.824799999972	1366.6666694	n/a	n/a	n/a	n/a	n/a	n/a	n/a	"2020-02-11 11:16:40.388038"	"2020-02-11 11:16:41.012691"	129	5.12738438333333
"S200211"	"Response_Inhibition"	"LEFT"	"LEFT"	433.000399999969	966.6666686	n/a	n/a	n/a	n/a	n/a	n/a	n/a	"2020-02-11 11:16:41.987666"	"2020-02-11 11:16:42.628733"	130	5.12738438333333
"S200211"	"Response_Inhibition"	"RIGHT"	"RIGHT"	679.605400000014	800.0000016	n/a	n/a	n/a	n/a	n/a	n/a	n/a	"2020-02-11 11:16:43.437413"	"2020-02-11 11:16:44.324772"	131	5.12738438333333
"S200211"	"Response_Inhibition"	"RIGHT"	"Time_Max_Exceeded"	1500.05023349998	900.0000018	n/a	n/a	n/a	n/a	n/a	n/a	n/a	"2020-02-11 11:16:45.233095"	"2020-02-11 11:16:46.736188"	132	5.12738438333333
"S200211"	"Response_Inhibition"	"RIGHT"	"Time_Max_Exceeded"	1500.05746670005	1350.0000027	n/a	n/a	n/a	n/a	n/a	n/a	n/a	"2020-02-11 11:16:48.096116"	"2020-02-11 11:16:49.599417"	133	5.12738438333333
"S200211"	"Response_Inhibition"	"LEFT"	"LEFT"	347.972133799966	1116.6666689	n/a	n/a	n/a	n/a	n/a	n/a	n/a	"2020-02-11 11:16:50.726016"	"2020-02-11 11:16:51.284881"	134	5.12738438333333
"S200211"	"Response_Inhibition"	"RIGHT"	"RIGHT"	538.28980000003	733.3333348	n/a	n/a	n/a	n/a	n/a	n/a	n/a	"2020-02-11 11:16:52.026956"	"2020-02-11 11:16:52.773243"	135	5.12738438333333
"S200211"	"Response_Inhibition"	"LEFT"	"LEFT"	325.216699999942	1250.0000025	n/a	n/a	n/a	n/a	n/a	n/a	n/a	"2020-02-11 11:16:54.031927"	"2020-02-11 11:16:54.564507"	136	5.12738438333333
"S200211"	"Response_Inhibition"	"RIGHT"	"Time_Max_Exceeded"	1500.05726670001	650.0000013	n/a	n/a	n/a	n/a	n/a	n/a	n/a	"2020-02-11 11:16:55.222961"	"2020-02-11 11:16:56.726639"	137	5.12738438333333
"S200211"	"Response_Inhibition"	"LEFT"	"LEFT"	513.411700000006	1300.0000026	n/a	n/a	n/a	n/a	n/a	n/a	n/a	"2020-02-11 11:16:58.035876"	"2020-02-11 11:16:58.756782"	138	5.12738438333333
"S200211"	"Response_Inhibition"	"RIGHT"	"Time_Max_Exceeded"	1500.05646699996	950.0000019	n/a	n/a	n/a	n/a	n/a	n/a	n/a	"2020-02-11 11:16:59.714836"	"2020-02-11 11:17:01.218838"	139	5.12738438333333
"S200211"	"Response_Inhibition"	"RIGHT"	"RIGHT"	533.097999999995	700.0000014	n/a	n/a	n/a	n/a	n/a	n/a	n/a	"2020-02-11 11:17:01.927489"	"2020-02-11 11:17:02.669143"	140	5.12738438333333
"S200211"	"Response_Inhibition"	"RIGHT"	"RIGHT"	412.303067099898	1200.0000024	n/a	n/a	n/a	n/a	n/a	n/a	n/a	"2020-02-11 11:17:03.877491"	"2020-02-11 11:17:04.500991"	141	5.12738438333333
"S200211"	"Response_Inhibition"	"LEFT"	"LEFT"	452.190900000005	683.3333347	n/a	n/a	n/a	n/a	n/a	n/a	n/a	"2020-02-11 11:17:05.192706"	"2020-02-11 11:17:05.852236"	142	5.12738438333333
"S200211"	"Response_Inhibition"	"RIGHT"	"Time_Max_Exceeded"	1500.0479002	500.000001	n/a	n/a	n/a	n/a	n/a	n/a	n/a	"2020-02-11 11:17:06.361151"	"2020-02-11 11:17:07.864166"	143	5.12738438333333
"S200211"	"Response_Inhibition"	"RIGHT"	"RIGHT"	441.280699999993	850.0000017	n/a	n/a	n/a	n/a	n/a	n/a	n/a	"2020-02-11 11:17:08.723763"	"2020-02-11 11:17:09.373026"	144	5.12738438333333
"S200211"	"Response_Inhibition"	"RIGHT"	"RIGHT"	479.322000000025	1000.000002	n/a	n/a	n/a	n/a	n/a	n/a	n/a	"2020-02-11 11:17:10.381401"	"2020-02-11 11:17:11.068518"	145	5.12738438333333
"S200211"	"Response_Inhibition"	"LEFT"	"LEFT"	617.777900000078	750.0000015	n/a	n/a	n/a	n/a	n/a	n/a	n/a	"2020-02-11 11:17:11.826580"	"2020-02-11 11:17:12.652840"	146	5.12738438333333
"S200211"	"Response_Inhibition"	"LEFT"	"LEFT"	460.307599999965	1283.3333359	n/a	n/a	n/a	n/a	n/a	n/a	n/a	"2020-02-11 11:17:13.944892"	"2020-02-11 11:17:14.613108"	147	5.12738438333333
"S200211"	"Response_Inhibition"	"LEFT"	"Time_Max_Exceeded"	1500.06209999992	850.0000017	n/a	n/a	n/a	n/a	n/a	n/a	n/a	"2020-02-11 11:17:15.471219"	"2020-02-11 11:17:16.971550"	148	5.12738438333333
"S200211"	"Response_Inhibition"	"LEFT"	"Time_Max_Exceeded"	1500.05590030003	1066.6666688	n/a	n/a	n/a	n/a	n/a	n/a	n/a	"2020-02-11 11:17:18.048080"	"2020-02-11 11:17:19.550888"	149	5.12738438333333
"S200211"	"Response_Inhibition"	"RIGHT"	"RIGHT"	577.365800000052	683.3333347	n/a	n/a	n/a	n/a	n/a	n/a	n/a	"2020-02-11 11:17:20.243206"	"2020-02-11 11:17:21.029490"	150	5.12738438333333
"S200211"	"Response_Inhibition"	"RIGHT"	"RIGHT"	498.945700000036	1100.0000022	n/a	n/a	n/a	n/a	n/a	n/a	n/a	"2020-02-11 11:17:22.138300"	"2020-02-11 11:17:22.844835"	151	5.12738438333333
"S200211"	"Response_Inhibition"	"LEFT"	"Time_Max_Exceeded"	1500.04663349997	1083.3333355	n/a	n/a	n/a	n/a	n/a	n/a	n/a	"2020-02-11 11:17:23.936466"	"2020-02-11 11:17:25.439972"	152	5.12738438333333
"S200211"	"Response_Inhibition"	"RIGHT"	"RIGHT"	453.525099999979	766.6666682	n/a	n/a	n/a	n/a	n/a	n/a	n/a	"2020-02-11 11:17:26.215973"	"2020-02-11 11:17:26.877829"	153	5.12738438333333
"S200211"	"Response_Inhibition"	"LEFT"	"Time_Max_Exceeded"	1500.04750020003	766.6666682	n/a	n/a	n/a	n/a	n/a	n/a	n/a	"2020-02-11 11:17:27.652660"	"2020-02-11 11:17:29.156025"	154	5.12738438333333
"S200211"	"Response_Inhibition"	"LEFT"	"LEFT"	479.121599999985	1200.0000024	n/a	n/a	n/a	n/a	n/a	n/a	n/a	"2020-02-11 11:17:30.365865"	"2020-02-11 11:17:31.052592"	155	5.12738438333333
"S200211"	"Response_Inhibition"	"RIGHT"	"RIGHT"	517.815300000052	1050.0000021	n/a	n/a	n/a	n/a	n/a	n/a	n/a	"2020-02-11 11:17:32.111406"	"2020-02-11 11:17:32.837151"	156	5.12738438333333
"S200211"	"Response_Inhibition"	"LEFT"	"LEFT"	435.714700000062	1483.3333363	n/a	n/a	n/a	n/a	n/a	n/a	n/a	"2020-02-11 11:17:34.329173"	"2020-02-11 11:17:34.972227"	157	5.12738438333333
"S200211"	"Response_Inhibition"	"RIGHT"	"Time_Max_Exceeded"	1500.05693340002	1416.6666695	n/a	n/a	n/a	n/a	n/a	n/a	n/a	"2020-02-11 11:17:36.396978"	"2020-02-11 11:17:37.900565"	158	5.12738438333333
"S200211"	"Response_Inhibition"	"LEFT"	"LEFT"	543.658599999958	600.0000012	n/a	n/a	n/a	n/a	n/a	n/a	n/a	"2020-02-11 11:17:38.508928"	"2020-02-11 11:17:39.260381"	159	5.12738438333333
"S200211"	"Response_Inhibition"	"RIGHT"	"Time_Max_Exceeded"	1500.07416680004	1016.6666687	n/a	n/a	n/a	n/a	n/a	n/a	n/a	"2020-02-11 11:17:40.285734"	"2020-02-11 11:17:41.788871"	160	5.12738438333333
"S200211"	"Response_Selection"	"LEFT"	"LEFT"	399.0455	800.0000016	n/a	n/a	n/a	n/a	n/a	n/a	n/a	"2020-02-11 11:10:33.198441"	"2020-02-11 11:10:33.805558"	1	2.65481035
"S200211"	"Response_Selection"	"RIGHT"	"RIGHT"	251.547500000015	683.3333347	n/a	n/a	n/a	n/a	n/a	n/a	n/a	"2020-02-11 11:10:34.497782"	"2020-02-11 11:10:34.957358"	2	2.65481035
"S200211"	"Response_Selection"	"LEFT"	"LEFT"	267.955499999971	1083.3333355	n/a	n/a	n/a	n/a	n/a	n/a	n/a	"2020-02-11 11:10:36.049048"	"2020-02-11 11:10:36.524566"	3	2.65481035
"S200211"	"Response_Selection"	"RIGHT"	"RIGHT"	298.143900000014	1350.0000027	n/a	n/a	n/a	n/a	n/a	n/a	n/a	"2020-02-11 11:10:37.882991"	"2020-02-11 11:10:38.388832"	4	2.65481035
"S200211"	"Response_Selection"	"RIGHT"	"RIGHT"	294.076200000006	650.0000013	n/a	n/a	n/a	n/a	n/a	n/a	n/a	"2020-02-11 11:10:39.047148"	"2020-02-11 11:10:39.550001"	5	2.65481035
"S200211"	"Response_Selection"	"LEFT"	"LEFT"	262.029799999993	1216.6666691	n/a	n/a	n/a	n/a	n/a	n/a	n/a	"2020-02-11 11:10:40.775302"	"2020-02-11 11:10:41.245317"	6	2.65481035
"S200211"	"Response_Selection"	"LEFT"	"LEFT"	339.241200000004	700.0000014	n/a	n/a	n/a	n/a	n/a	n/a	n/a	"2020-02-11 11:10:41.953932"	"2020-02-11 11:10:42.502082"	7	2.65481035
"S200211"	"Response_Selection"	"RIGHT"	"RIGHT"	255.542900000023	983.3333353	n/a	n/a	n/a	n/a	n/a	n/a	n/a	"2020-02-11 11:10:43.493383"	"2020-02-11 11:10:43.957740"	8	2.65481035
"S200211"	"Response_Selection"	"LEFT"	"LEFT"	416.154899999981	966.6666686	n/a	n/a	n/a	n/a	n/a	n/a	n/a	"2020-02-11 11:10:44.932865"	"2020-02-11 11:10:45.556442"	9	2.65481035
"S200211"	"Response_Selection"	"LEFT"	"LEFT"	304.980499999999	983.3333353	n/a	n/a	n/a	n/a	n/a	n/a	n/a	"2020-02-11 11:10:46.548253"	"2020-02-11 11:10:47.061900"	10	2.65481035
"S200211"	"Response_Selection"	"LEFT"	"LEFT"	260.114699999974	1466.6666696	n/a	n/a	n/a	n/a	n/a	n/a	n/a	"2020-02-11 11:10:48.536556"	"2020-02-11 11:10:49.005127"	11	2.65481035
"S200211"	"Response_Selection"	"LEFT"	"LEFT"	616.387599999996	550.0000011	n/a	n/a	n/a	n/a	n/a	n/a	n/a	"2020-02-11 11:10:49.565042"	"2020-02-11 11:10:50.388706"	12	2.65481035
"S200211"	"Response_Selection"	"LEFT"	"LEFT"	323.292699999968	1116.6666689	n/a	n/a	n/a	n/a	n/a	n/a	n/a	"2020-02-11 11:10:51.514257"	"2020-02-11 11:10:52.045358"	13	2.65481035
"S200211"	"Response_Selection"	"LEFT"	"LEFT"	318.632799999989	1416.6666695	n/a	n/a	n/a	n/a	n/a	n/a	n/a	"2020-02-11 11:10:53.470070"	"2020-02-11 11:10:53.996876"	14	2.65481035
"S200211"	"Response_Selection"	"LEFT"	"LEFT"	343.895400000008	600.0000012	n/a	n/a	n/a	n/a	n/a	n/a	n/a	"2020-02-11 11:10:54.605306"	"2020-02-11 11:10:55.157635"	15	2.65481035
"S200211"	"Response_Selection"	"LEFT"	"LEFT"	270.807000000048	1400.0000028	n/a	n/a	n/a	n/a	n/a	n/a	n/a	"2020-02-11 11:10:56.566564"	"2020-02-11 11:10:57.045018"	16	2.65481035
"S200211"	"Response_Selection"	"LEFT"	"LEFT"	287.807100000009	1200.0000024	n/a	n/a	n/a	n/a	n/a	n/a	n/a	"2020-02-11 11:10:58.253094"	"2020-02-11 11:10:58.748415"	17	2.65481035
"S200211"	"Response_Selection"	"LEFT"	"LEFT"	290.591399999983	1133.3333356	n/a	n/a	n/a	n/a	n/a	n/a	n/a	"2020-02-11 11:10:59.890553"	"2020-02-11 11:11:00.390039"	18	2.65481035
"S200211"	"Response_Selection"	"RIGHT"	"RIGHT"	310.585099999969	800.0000016	n/a	n/a	n/a	n/a	n/a	n/a	n/a	"2020-02-11 11:11:01.198731"	"2020-02-11 11:11:01.716637"	19	2.65481035
"S200211"	"Response_Selection"	"RIGHT"	"RIGHT"	266.606899999999	533.3333344	n/a	n/a	n/a	n/a	n/a	n/a	n/a	"2020-02-11 11:11:02.259002"	"2020-02-11 11:11:02.732580"	20	2.65481035
"S200211"	"Response_Selection"	"RIGHT"	"RIGHT"	409.976900000004	750.0000015	n/a	n/a	n/a	n/a	n/a	n/a	n/a	"2020-02-11 11:11:03.490844"	"2020-02-11 11:11:04.110033"	21	2.65481035
"S200211"	"Response_Selection"	"LEFT"	"LEFT"	307.139900000038	683.3333347	n/a	n/a	n/a	n/a	n/a	n/a	n/a	"2020-02-11 11:11:04.802343"	"2020-02-11 11:11:05.316663"	22	2.65481035
"S200211"	"Response_Selection"	"LEFT"	"LEFT"	350.178200000016	833.333335	n/a	n/a	n/a	n/a	n/a	n/a	n/a	"2020-02-11 11:11:06.158477"	"2020-02-11 11:11:06.716675"	23	2.65481035
"S200211"	"Response_Selection"	"RIGHT"	"RIGHT"	273.039899999958	966.6666686	n/a	n/a	n/a	n/a	n/a	n/a	n/a	"2020-02-11 11:11:07.692241"	"2020-02-11 11:11:08.173317"	24	2.65481035
"S200211"	"Response_Selection"	"RIGHT"	"RIGHT"	292.499599999985	1266.6666692	n/a	n/a	n/a	n/a	n/a	n/a	n/a	"2020-02-11 11:11:09.448282"	"2020-02-11 11:11:09.948271"	25	2.65481035
"S200211"	"Response_Selection"	"LEFT"	"RIGHT"	300.778100000002	500.000001	n/a	n/a	n/a	n/a	n/a	n/a	n/a	"2020-02-11 11:11:10.456766"	"2020-02-11 11:11:10.964659"	26	2.65481035
"S200211"	"Response_Selection"	"LEFT"	"LEFT"	321.642800000006	1350.0000027	n/a	n/a	n/a	n/a	n/a	n/a	n/a	"2020-02-11 11:11:12.323071"	"2020-02-11 11:11:12.852653"	27	2.65481035
"S200211"	"Response_Selection"	"LEFT"	"LEFT"	276.236899999958	883.3333351	n/a	n/a	n/a	n/a	n/a	n/a	n/a	"2020-02-11 11:11:13.744648"	"2020-02-11 11:11:14.228363"	28	2.65481035
"S200211"	"Response_Selection"	"RIGHT"	"RIGHT"	295.530600000006	1016.6666687	n/a	n/a	n/a	n/a	n/a	n/a	n/a	"2020-02-11 11:11:15.253490"	"2020-02-11 11:11:15.757845"	29	2.65481035
"S200211"	"Response_Selection"	"RIGHT"	"RIGHT"	291.480999999976	883.3333351	n/a	n/a	n/a	n/a	n/a	n/a	n/a	"2020-02-11 11:11:16.650059"	"2020-02-11 11:11:17.149653"	30	2.65481035
"S200211"	"Response_Selection"	"LEFT"	"LEFT"	278.282999999988	1016.6666687	n/a	n/a	n/a	n/a	n/a	n/a	n/a	"2020-02-11 11:11:18.175118"	"2020-02-11 11:11:18.661793"	31	2.65481035
"S200211"	"Response_Selection"	"LEFT"	"LEFT"	302.645499999983	783.3333349	n/a	n/a	n/a	n/a	n/a	n/a	n/a	"2020-02-11 11:11:19.454222"	"2020-02-11 11:11:19.964499"	32	2.65481035
"S200211"	"Response_Selection"	"RIGHT"	"RIGHT"	261.485999999991	1466.6666696	n/a	n/a	n/a	n/a	n/a	n/a	n/a	"2020-02-11 11:11:21.439851"	"2020-02-11 11:11:21.908512"	33	2.65481035
"S200211"	"Response_Selection"	"RIGHT"	"RIGHT"	278.794700000049	833.333335	n/a	n/a	n/a	n/a	n/a	n/a	n/a	"2020-02-11 11:11:22.749844"	"2020-02-11 11:11:23.236590"	34	2.65481035
"S200211"	"Response_Selection"	"RIGHT"	"RIGHT"	272.943800000007	1166.666669	n/a	n/a	n/a	n/a	n/a	n/a	n/a	"2020-02-11 11:11:24.412461"	"2020-02-11 11:11:24.893706"	35	2.65481035
"S200211"	"Response_Selection"	"LEFT"	"LEFT"	300.929800000006	650.0000013	n/a	n/a	n/a	n/a	n/a	n/a	n/a	"2020-02-11 11:11:25.552318"	"2020-02-11 11:11:26.061907"	36	2.65481035
"S200211"	"Response_Selection"	"RIGHT"	"RIGHT"	297.522800000024	933.3333352	n/a	n/a	n/a	n/a	n/a	n/a	n/a	"2020-02-11 11:11:27.003483"	"2020-02-11 11:11:27.508306"	37	2.65481035
"S200211"	"Response_Selection"	"LEFT"	"LEFT"	276.468399999999	1300.0000026	n/a	n/a	n/a	n/a	n/a	n/a	n/a	"2020-02-11 11:11:28.816624"	"2020-02-11 11:11:29.300289"	38	2.65481035
"S200211"	"Response_Selection"	"RIGHT"	"RIGHT"	280.955899999981	783.3333349	n/a	n/a	n/a	n/a	n/a	n/a	n/a	"2020-02-11 11:11:30.092171"	"2020-02-11 11:11:30.581696"	39	2.65481035
"S200211"	"Response_Selection"	"RIGHT"	"RIGHT"	315.70830000004	866.6666684	n/a	n/a	n/a	n/a	n/a	n/a	n/a	"2020-02-11 11:11:31.457335"	"2020-02-11 11:11:31.980402"	40	2.65481035
"S200211"	"Response_Selection"	"RIGHT"	"RIGHT"	310.734599999989	633.3333346	n/a	n/a	n/a	n/a	n/a	n/a	n/a	"2020-02-11 11:11:32.622411"	"2020-02-11 11:11:33.140440"	41	2.65481035
"S200211"	"Response_Selection"	"RIGHT"	"RIGHT"	308.53639999998	1083.3333355	n/a	n/a	n/a	n/a	n/a	n/a	n/a	"2020-02-11 11:11:34.232314"	"2020-02-11 11:11:34.750132"	42	2.65481035
"S200211"	"Response_Selection"	"RIGHT"	"RIGHT"	273.679300000026	916.6666685	n/a	n/a	n/a	n/a	n/a	n/a	n/a	"2020-02-11 11:11:35.675661"	"2020-02-11 11:11:36.156704"	43	2.65481035
"S200211"	"Response_Selection"	"RIGHT"	"RIGHT"	323.213299999964	1500.000003	n/a	n/a	n/a	n/a	n/a	n/a	n/a	"2020-02-11 11:11:37.665752"	"2020-02-11 11:11:38.197134"	44	2.65481035
"S200211"	"Response_Selection"	"LEFT"	"LEFT"	330.775399999993	916.6666685	n/a	n/a	n/a	n/a	n/a	n/a	n/a	"2020-02-11 11:11:39.122045"	"2020-02-11 11:11:39.661397"	45	2.65481035
"S200211"	"Response_Selection"	"RIGHT"	"RIGHT"	352.071099999989	583.3333345	n/a	n/a	n/a	n/a	n/a	n/a	n/a	"2020-02-11 11:11:40.253514"	"2020-02-11 11:11:40.813299"	46	2.65481035
"S200211"	"Response_Selection"	"RIGHT"	"RIGHT"	283.413900000028	500.000001	n/a	n/a	n/a	n/a	n/a	n/a	n/a	"2020-02-11 11:11:41.321982"	"2020-02-11 11:11:41.812313"	47	2.65481035
"S200211"	"Response_Selection"	"RIGHT"	"RIGHT"	271.701900000039	1216.6666691	n/a	n/a	n/a	n/a	n/a	n/a	n/a	"2020-02-11 11:11:43.037601"	"2020-02-11 11:11:43.517001"	48	2.65481035
"S200211"	"Response_Selection"	"LEFT"	"LEFT"	313.461500000017	750.0000015	n/a	n/a	n/a	n/a	n/a	n/a	n/a	"2020-02-11 11:11:44.275180"	"2020-02-11 11:11:44.797465"	49	2.65481035
"S200211"	"Response_Selection"	"LEFT"	"LEFT"	284.996599999999	1450.0000029	n/a	n/a	n/a	n/a	n/a	n/a	n/a	"2020-02-11 11:11:46.256391"	"2020-02-11 11:11:46.748691"	50	2.65481035
"S200211"	"Response_Selection"	"LEFT"	"LEFT"	275.98119999999	866.6666684	n/a	n/a	n/a	n/a	n/a	n/a	n/a	"2020-02-11 11:11:47.624930"	"2020-02-11 11:11:48.108507"	51	2.65481035
"S200211"	"Response_Selection"	"RIGHT"	"RIGHT"	310.718300000019	1033.3333354	n/a	n/a	n/a	n/a	n/a	n/a	n/a	"2020-02-11 11:11:49.149854"	"2020-02-11 11:11:49.668917"	52	2.65481035
"S200211"	"Response_Selection"	"RIGHT"	"RIGHT"	282.878600000004	1116.6666689	n/a	n/a	n/a	n/a	n/a	n/a	n/a	"2020-02-11 11:11:50.793926"	"2020-02-11 11:11:51.285097"	53	2.65481035
"S200211"	"Response_Selection"	"RIGHT"	"RIGHT"	244.981999999993	1250.0000025	n/a	n/a	n/a	n/a	n/a	n/a	n/a	"2020-02-11 11:11:52.543866"	"2020-02-11 11:11:52.997513"	54	2.65481035
"S200211"	"Response_Selection"	"LEFT"	"LEFT"	312.53700000002	733.3333348	n/a	n/a	n/a	n/a	n/a	n/a	n/a	"2020-02-11 11:11:53.740617"	"2020-02-11 11:11:54.261494"	55	2.65481035
"S200211"	"Response_Selection"	"LEFT"	"LEFT"	269.045399999982	1250.0000025	n/a	n/a	n/a	n/a	n/a	n/a	n/a	"2020-02-11 11:11:55.519802"	"2020-02-11 11:11:55.996779"	56	2.65481035
"S200211"	"Response_Selection"	"RIGHT"	"RIGHT"	312.91159999995	1366.6666694	n/a	n/a	n/a	n/a	n/a	n/a	n/a	"2020-02-11 11:11:57.371673"	"2020-02-11 11:11:57.892609"	57	2.65481035
"S200211"	"Response_Selection"	"LEFT"	"LEFT"	274.659399999962	933.3333352	n/a	n/a	n/a	n/a	n/a	n/a	n/a	"2020-02-11 11:11:58.834106"	"2020-02-11 11:11:59.316635"	58	2.65481035
"S200211"	"Response_Selection"	"RIGHT"	"RIGHT"	266.708400000027	733.3333348	n/a	n/a	n/a	n/a	n/a	n/a	n/a	"2020-02-11 11:12:00.058429"	"2020-02-11 11:12:00.532636"	59	2.65481035
"S200211"	"Response_Selection"	"RIGHT"	"RIGHT"	387.197100000037	1316.6666693	n/a	n/a	n/a	n/a	n/a	n/a	n/a	"2020-02-11 11:12:01.857989"	"2020-02-11 11:12:02.452978"	60	2.65481035
"S200211"	"Response_Selection"	"RIGHT"	"RIGHT"	335.348700000054	600.0000012	n/a	n/a	n/a	n/a	n/a	n/a	n/a	"2020-02-11 11:12:03.061602"	"2020-02-11 11:12:03.605148"	61	2.65481035
"S200211"	"Response_Selection"	"RIGHT"	"RIGHT"	243.357399999979	700.0000014	n/a	n/a	n/a	n/a	n/a	n/a	n/a	"2020-02-11 11:12:04.313452"	"2020-02-11 11:12:04.764496"	62	2.65481035
"S200211"	"Response_Selection"	"RIGHT"	"RIGHT"	273.517900000002	550.0000011	n/a	n/a	n/a	n/a	n/a	n/a	n/a	"2020-02-11 11:12:05.323003"	"2020-02-11 11:12:05.804360"	63	2.65481035
"S200211"	"Response_Selection"	"RIGHT"	"RIGHT"	256.287900000018	1200.0000024	n/a	n/a	n/a	n/a	n/a	n/a	n/a	"2020-02-11 11:12:07.012449"	"2020-02-11 11:12:07.477987"	64	2.65481035
"S200211"	"Response_Selection"	"RIGHT"	"RIGHT"	325.227799999993	1416.6666695	n/a	n/a	n/a	n/a	n/a	n/a	n/a	"2020-02-11 11:12:08.903935"	"2020-02-11 11:12:09.436865"	65	2.65481035
"S200211"	"Response_Selection"	"LEFT"	"LEFT"	320.37600000001	583.3333345	n/a	n/a	n/a	n/a	n/a	n/a	n/a	"2020-02-11 11:12:10.028269"	"2020-02-11 11:12:10.557730"	66	2.65481035
"S200211"	"Response_Selection"	"LEFT"	"LEFT"	263.34959999997	1366.6666694	n/a	n/a	n/a	n/a	n/a	n/a	n/a	"2020-02-11 11:12:11.934160"	"2020-02-11 11:12:12.405494"	67	2.65481035
"S200211"	"Response_Selection"	"RIGHT"	"RIGHT"	299.22449999998	1300.0000026	n/a	n/a	n/a	n/a	n/a	n/a	n/a	"2020-02-11 11:12:13.714117"	"2020-02-11 11:12:14.220337"	68	2.65481035
"S200211"	"Response_Selection"	"LEFT"	"RIGHT"	330.928200000017	533.3333344	n/a	n/a	n/a	n/a	n/a	n/a	n/a	"2020-02-11 11:12:14.762023"	"2020-02-11 11:12:15.300585"	69	2.65481035
"S200211"	"Response_Selection"	"LEFT"	"LEFT"	291.186800000048	1316.6666693	n/a	n/a	n/a	n/a	n/a	n/a	n/a	"2020-02-11 11:12:16.626135"	"2020-02-11 11:12:17.126178"	70	2.65481035
"S200211"	"Response_Selection"	"LEFT"	"LEFT"	311.604000000045	1166.666669	n/a	n/a	n/a	n/a	n/a	n/a	n/a	"2020-02-11 11:12:18.301728"	"2020-02-11 11:12:18.820470"	71	2.65481035
"S200211"	"Response_Selection"	"RIGHT"	"RIGHT"	304.095700000005	1400.0000028	n/a	n/a	n/a	n/a	n/a	n/a	n/a	"2020-02-11 11:12:20.229099"	"2020-02-11 11:12:20.741749"	72	2.65481035
"S200211"	"Response_Selection"	"RIGHT"	"RIGHT"	292.77639999998	1450.0000029	n/a	n/a	n/a	n/a	n/a	n/a	n/a	"2020-02-11 11:12:22.200317"	"2020-02-11 11:12:22.701095"	73	2.65481035
"S200211"	"Response_Selection"	"LEFT"	"LEFT"	315.442899999994	1500.000003	n/a	n/a	n/a	n/a	n/a	n/a	n/a	"2020-02-11 11:12:24.209083"	"2020-02-11 11:12:24.733984"	74	2.65481035
"S200211"	"Response_Selection"	"RIGHT"	"RIGHT"	312.528799999995	1133.3333356	n/a	n/a	n/a	n/a	n/a	n/a	n/a	"2020-02-11 11:12:25.876587"	"2020-02-11 11:12:26.397708"	75	2.65481035
"S200211"	"Response_Selection"	"RIGHT"	"RIGHT"	340.304099999969	1066.6666688	n/a	n/a	n/a	n/a	n/a	n/a	n/a	"2020-02-11 11:12:27.472704"	"2020-02-11 11:12:28.021165"	76	2.65481035
"S200211"	"Response_Selection"	"LEFT"	"LEFT"	332.70200000004	1266.6666692	n/a	n/a	n/a	n/a	n/a	n/a	n/a	"2020-02-11 11:12:29.295804"	"2020-02-11 11:12:29.837286"	77	2.65481035
"S200211"	"Response_Selection"	"LEFT"	"LEFT"	342.073400000004	633.3333346	n/a	n/a	n/a	n/a	n/a	n/a	n/a	"2020-02-11 11:12:30.479144"	"2020-02-11 11:12:31.029169"	78	2.65481035
"S200211"	"Response_Selection"	"LEFT"	"LEFT"	244.385699999953	1066.6666688	n/a	n/a	n/a	n/a	n/a	n/a	n/a	"2020-02-11 11:12:32.104605"	"2020-02-11 11:12:32.556666"	79	2.65481035
"S200211"	"Response_Selection"	"LEFT"	"LEFT"	270.309700000041	1033.3333354	n/a	n/a	n/a	n/a	n/a	n/a	n/a	"2020-02-11 11:12:33.598956"	"2020-02-11 11:12:34.078034"	80	2.65481035
