"Participant"	"Task"	"Stimulus_Side"	"Response"	"RT"	"ITI"	"Previous_Response"	"Previous_RT"	"Stop_Signal"	"Stop_Signal_RT"	"Conflict"	"Cue_Response"	"Cue_Response_RT"	"Trial_Onset"	"Trial_End"	"Trial_Order"	"Duration"
"S200217"	"Conflict_Resolution"	"RIGHT"	"RIGHT"	640.534800000069	883.3333351	n/a	n/a	n/a	n/a	"True"	n/a	n/a	"2020-02-17 10:33:59.109521"	"2020-02-17 10:33:59.956915"	1	5.70636315
"S200217"	"Conflict_Resolution"	"RIGHT"	"RIGHT"	342.658599999936	783.3333349	n/a	n/a	n/a	n/a	"False"	n/a	n/a	"2020-02-17 10:34:00.759491"	"2020-02-17 10:34:01.309914"	2	5.70636315
"S200217"	"Conflict_Resolution"	"RIGHT"	"LEFT"	360.763399999996	683.3333347	n/a	n/a	n/a	n/a	"True"	n/a	n/a	"2020-02-17 10:34:02.013241"	"2020-02-17 10:34:02.582668"	3	5.70636315
"S200217"	"Conflict_Resolution"	"RIGHT"	"RIGHT"	553.952200000026	1483.3333363	n/a	n/a	n/a	n/a	"True"	n/a	n/a	"2020-02-17 10:34:04.083969"	"2020-02-17 10:34:04.845397"	4	5.70636315
"S200217"	"Conflict_Resolution"	"RIGHT"	"RIGHT"	398.980800000004	700.0000014	n/a	n/a	n/a	n/a	"True"	n/a	n/a	"2020-02-17 10:34:05.566569"	"2020-02-17 10:34:06.173250"	5	5.70636315
"S200217"	"Conflict_Resolution"	"RIGHT"	"RIGHT"	329.499100000021	1266.6666692	n/a	n/a	n/a	n/a	"False"	n/a	n/a	"2020-02-17 10:34:07.459964"	"2020-02-17 10:34:07.998679"	6	5.70636315
"S200217"	"Conflict_Resolution"	"LEFT"	"LEFT"	404.18139999997	783.3333349	n/a	n/a	n/a	n/a	"True"	n/a	n/a	"2020-02-17 10:34:08.801726"	"2020-02-17 10:34:09.413731"	7	5.70636315
"S200217"	"Conflict_Resolution"	"LEFT"	"LEFT"	564.194499999985	1400.0000028	n/a	n/a	n/a	n/a	"True"	n/a	n/a	"2020-02-17 10:34:10.832997"	"2020-02-17 10:34:11.606462"	8	5.70636315
"S200217"	"Conflict_Resolution"	"LEFT"	"LEFT"	413.281600000005	1200.0000024	n/a	n/a	n/a	n/a	"False"	n/a	n/a	"2020-02-17 10:34:12.824431"	"2020-02-17 10:34:13.445510"	9	5.70636315
"S200217"	"Conflict_Resolution"	"RIGHT"	"RIGHT"	358.987899999988	950.0000019	n/a	n/a	n/a	n/a	"True"	n/a	n/a	"2020-02-17 10:34:14.414894"	"2020-02-17 10:34:14.981026"	10	5.70636315
"S200217"	"Conflict_Resolution"	"RIGHT"	"RIGHT"	369.304400000033	683.3333347	n/a	n/a	n/a	n/a	"False"	n/a	n/a	"2020-02-17 10:34:15.684142"	"2020-02-17 10:34:16.261507"	11	5.70636315
"S200217"	"Conflict_Resolution"	"RIGHT"	"LEFT"	352.867199999991	900.0000018	n/a	n/a	n/a	n/a	"True"	n/a	n/a	"2020-02-17 10:34:17.180955"	"2020-02-17 10:34:17.742413"	12	5.70636315
"S200217"	"Conflict_Resolution"	"RIGHT"	"RIGHT"	513.823300000013	800.0000016	n/a	n/a	n/a	n/a	"True"	n/a	n/a	"2020-02-17 10:34:18.563851"	"2020-02-17 10:34:19.284911"	13	5.70636315
"S200217"	"Conflict_Resolution"	"RIGHT"	"RIGHT"	412.314600000059	1233.3333358	n/a	n/a	n/a	n/a	"True"	n/a	n/a	"2020-02-17 10:34:20.537600"	"2020-02-17 10:34:21.156809"	14	5.70636315
"S200217"	"Conflict_Resolution"	"RIGHT"	"RIGHT"	284.93560000004	1033.3333354	n/a	n/a	n/a	n/a	"False"	n/a	n/a	"2020-02-17 10:34:22.208679"	"2020-02-17 10:34:22.701943"	15	5.70636315
"S200217"	"Conflict_Resolution"	"LEFT"	"LEFT"	341.547300000002	1166.666669	n/a	n/a	n/a	n/a	"False"	n/a	n/a	"2020-02-17 10:34:23.888452"	"2020-02-17 10:34:24.437006"	16	5.70636315
"S200217"	"Conflict_Resolution"	"LEFT"	"LEFT"	533.826800000043	1166.666669	n/a	n/a	n/a	n/a	"True"	n/a	n/a	"2020-02-17 10:34:25.624221"	"2020-02-17 10:34:26.367407"	17	5.70636315
"S200217"	"Conflict_Resolution"	"LEFT"	"LEFT"	372.49010000005	966.6666686	n/a	n/a	n/a	n/a	"False"	n/a	n/a	"2020-02-17 10:34:27.352889"	"2020-02-17 10:34:27.934300"	18	5.70636315
"S200217"	"Conflict_Resolution"	"LEFT"	"LEFT"	460.1136	1366.6666694	n/a	n/a	n/a	n/a	"True"	n/a	n/a	"2020-02-17 10:34:29.321095"	"2020-02-17 10:34:29.989153"	19	5.70636315
"S200217"	"Conflict_Resolution"	"RIGHT"	"RIGHT"	464.669500000014	1316.6666693	n/a	n/a	n/a	n/a	"True"	n/a	n/a	"2020-02-17 10:34:31.324677"	"2020-02-17 10:34:31.998600"	20	5.70636315
"S200217"	"Conflict_Resolution"	"RIGHT"	"RIGHT"	410.309400000074	833.333335	n/a	n/a	n/a	n/a	"True"	n/a	n/a	"2020-02-17 10:34:32.851745"	"2020-02-17 10:34:33.469250"	21	5.70636315
"S200217"	"Conflict_Resolution"	"LEFT"	"LEFT"	641.067099999987	533.3333344	n/a	n/a	n/a	n/a	"True"	n/a	n/a	"2020-02-17 10:34:34.020809"	"2020-02-17 10:34:34.869766"	22	5.70636315
"S200217"	"Conflict_Resolution"	"LEFT"	"LEFT"	515.939000000003	616.6666679	n/a	n/a	n/a	n/a	"True"	n/a	n/a	"2020-02-17 10:34:35.505259"	"2020-02-17 10:34:36.229979"	23	5.70636315
"S200217"	"Conflict_Resolution"	"LEFT"	"LEFT"	452.287800000022	1200.0000024	n/a	n/a	n/a	n/a	"True"	n/a	n/a	"2020-02-17 10:34:37.449207"	"2020-02-17 10:34:38.109431"	24	5.70636315
"S200217"	"Conflict_Resolution"	"LEFT"	"LEFT"	461.791799999901	1150.0000023	n/a	n/a	n/a	n/a	"True"	n/a	n/a	"2020-02-17 10:34:39.279908"	"2020-02-17 10:34:39.949339"	25	5.70636315
"S200217"	"Conflict_Resolution"	"RIGHT"	"RIGHT"	464.180800000008	533.3333344	n/a	n/a	n/a	n/a	"False"	n/a	n/a	"2020-02-17 10:34:40.501852"	"2020-02-17 10:34:41.172979"	26	5.70636315
"S200217"	"Conflict_Resolution"	"LEFT"	"LEFT"	657.387299999982	1466.6666696	n/a	n/a	n/a	n/a	"True"	n/a	n/a	"2020-02-17 10:34:42.660401"	"2020-02-17 10:34:43.526353"	27	5.70636315
"S200217"	"Conflict_Resolution"	"LEFT"	"LEFT"	435.590600000069	850.0000017	n/a	n/a	n/a	n/a	"True"	n/a	n/a	"2020-02-17 10:34:44.394092"	"2020-02-17 10:34:45.037319"	28	5.70636315
"S200217"	"Conflict_Resolution"	"LEFT"	"LEFT"	392.743499999938	733.3333348	n/a	n/a	n/a	n/a	"True"	n/a	n/a	"2020-02-17 10:34:45.789296"	"2020-02-17 10:34:46.390015"	29	5.70636315
"S200217"	"Conflict_Resolution"	"RIGHT"	"RIGHT"	478.288199999952	1383.3333361	n/a	n/a	n/a	n/a	"True"	n/a	n/a	"2020-02-17 10:34:47.791514"	"2020-02-17 10:34:48.478660"	30	5.70636315
"S200217"	"Conflict_Resolution"	"LEFT"	"LEFT"	383.55219999994	900.0000018	n/a	n/a	n/a	n/a	"False"	n/a	n/a	"2020-02-17 10:34:49.398180"	"2020-02-17 10:34:49.989730"	31	5.70636315
"S200217"	"Conflict_Resolution"	"LEFT"	"LEFT"	319.29249999996	533.3333344	n/a	n/a	n/a	n/a	"False"	n/a	n/a	"2020-02-17 10:34:50.542221"	"2020-02-17 10:34:51.070403"	32	5.70636315
"S200217"	"Conflict_Resolution"	"LEFT"	"LEFT"	318.285800000012	1350.0000027	n/a	n/a	n/a	n/a	"False"	n/a	n/a	"2020-02-17 10:34:52.439453"	"2020-02-17 10:34:52.965165"	33	5.70636315
"S200217"	"Conflict_Resolution"	"LEFT"	"LEFT"	435.069399999975	1450.0000029	n/a	n/a	n/a	n/a	"True"	n/a	n/a	"2020-02-17 10:34:54.434317"	"2020-02-17 10:34:55.077805"	34	5.70636315
"S200217"	"Conflict_Resolution"	"RIGHT"	"RIGHT"	369.513099999949	1483.3333363	n/a	n/a	n/a	n/a	"False"	n/a	n/a	"2020-02-17 10:34:56.580295"	"2020-02-17 10:34:57.157395"	35	5.70636315
"S200217"	"Conflict_Resolution"	"RIGHT"	"RIGHT"	451.652699999954	1216.6666691	n/a	n/a	n/a	n/a	"True"	n/a	n/a	"2020-02-17 10:34:58.394098"	"2020-02-17 10:34:59.053316"	36	5.70636315
"S200217"	"Conflict_Resolution"	"LEFT"	"LEFT"	377.166899999906	1266.6666692	n/a	n/a	n/a	n/a	"False"	n/a	n/a	"2020-02-17 10:35:00.340156"	"2020-02-17 10:35:00.925692"	37	5.70636315
"S200217"	"Conflict_Resolution"	"RIGHT"	"RIGHT"	307.430999999951	1466.6666696	n/a	n/a	n/a	n/a	"False"	n/a	n/a	"2020-02-17 10:35:02.409950"	"2020-02-17 10:35:02.925427"	38	5.70636315
"S200217"	"Conflict_Resolution"	"LEFT"	"LEFT"	354.759300000069	1050.0000021	n/a	n/a	n/a	n/a	"False"	n/a	n/a	"2020-02-17 10:35:03.994484"	"2020-02-17 10:35:04.558159"	39	5.70636315
"S200217"	"Conflict_Resolution"	"LEFT"	"LEFT"	339.254900000014	1016.6666687	n/a	n/a	n/a	n/a	"False"	n/a	n/a	"2020-02-17 10:35:05.594659"	"2020-02-17 10:35:06.141094"	40	5.70636315
"S200217"	"Conflict_Resolution"	"RIGHT"	"RIGHT"	391.432800000075	750.0000015	n/a	n/a	n/a	n/a	"True"	n/a	n/a	"2020-02-17 10:35:06.910654"	"2020-02-17 10:35:07.509280"	41	5.70636315
"S200217"	"Conflict_Resolution"	"RIGHT"	"RIGHT"	294.033199999944	983.3333353	n/a	n/a	n/a	n/a	"False"	n/a	n/a	"2020-02-17 10:35:08.511948"	"2020-02-17 10:35:09.013135"	42	5.70636315
"S200217"	"Conflict_Resolution"	"LEFT"	"LEFT"	365.586099999973	566.6666678	n/a	n/a	n/a	n/a	"False"	n/a	n/a	"2020-02-17 10:35:09.600369"	"2020-02-17 10:35:10.173474"	43	5.70636315
"S200217"	"Conflict_Resolution"	"RIGHT"	"RIGHT"	340.606499999922	600.0000012	n/a	n/a	n/a	n/a	"False"	n/a	n/a	"2020-02-17 10:35:10.793061"	"2020-02-17 10:35:11.341526"	44	5.70636315
"S200217"	"Conflict_Resolution"	"RIGHT"	"RIGHT"	487.409699999944	733.3333348	n/a	n/a	n/a	n/a	"True"	n/a	n/a	"2020-02-17 10:35:12.093825"	"2020-02-17 10:35:12.789589"	45	5.70636315
"S200217"	"Conflict_Resolution"	"LEFT"	"LEFT"	463.476499999956	716.6666681	n/a	n/a	n/a	n/a	"True"	n/a	n/a	"2020-02-17 10:35:13.525729"	"2020-02-17 10:35:14.197547"	46	5.70636315
"S200217"	"Conflict_Resolution"	"RIGHT"	"RIGHT"	435.485399999948	633.3333346	n/a	n/a	n/a	n/a	"True"	n/a	n/a	"2020-02-17 10:35:14.849785"	"2020-02-17 10:35:15.494067"	47	5.70636315
"S200217"	"Conflict_Resolution"	"RIGHT"	"RIGHT"	314.032399999974	900.0000018	n/a	n/a	n/a	n/a	"False"	n/a	n/a	"2020-02-17 10:35:16.411885"	"2020-02-17 10:35:16.932850"	48	5.70636315
"S200217"	"Conflict_Resolution"	"LEFT"	"LEFT"	372.817000000055	1416.6666695	n/a	n/a	n/a	n/a	"False"	n/a	n/a	"2020-02-17 10:35:18.369217"	"2020-02-17 10:35:18.948976"	49	5.70636315
"S200217"	"Conflict_Resolution"	"LEFT"	"LEFT"	530.890800000066	666.666668	n/a	n/a	n/a	n/a	"True"	n/a	n/a	"2020-02-17 10:35:19.635188"	"2020-02-17 10:35:20.373571"	50	5.70636315
"S200217"	"Conflict_Resolution"	"RIGHT"	"RIGHT"	360.226300000022	1383.3333361	n/a	n/a	n/a	n/a	"False"	n/a	n/a	"2020-02-17 10:35:21.774694"	"2020-02-17 10:35:22.342275"	51	5.70636315
"S200217"	"Conflict_Resolution"	"RIGHT"	"RIGHT"	404.508200000009	1183.3333357	n/a	n/a	n/a	n/a	"False"	n/a	n/a	"2020-02-17 10:35:23.544846"	"2020-02-17 10:35:24.158464"	52	5.70636315
"S200217"	"Conflict_Resolution"	"RIGHT"	"RIGHT"	442.39970000001	650.0000013	n/a	n/a	n/a	n/a	"False"	n/a	n/a	"2020-02-17 10:35:24.827653"	"2020-02-17 10:35:25.477438"	53	5.70636315
"S200217"	"Conflict_Resolution"	"RIGHT"	"RIGHT"	429.177900000013	1183.3333357	n/a	n/a	n/a	n/a	"True"	n/a	n/a	"2020-02-17 10:35:26.680680"	"2020-02-17 10:35:27.316979"	54	5.70636315
"S200217"	"Conflict_Resolution"	"LEFT"	"LEFT"	504.27250000007	566.6666678	n/a	n/a	n/a	n/a	"True"	n/a	n/a	"2020-02-17 10:35:27.901416"	"2020-02-17 10:35:28.614694"	55	5.70636315
"S200217"	"Conflict_Resolution"	"LEFT"	"LEFT"	332.739699999934	783.3333349	n/a	n/a	n/a	n/a	"False"	n/a	n/a	"2020-02-17 10:35:29.416545"	"2020-02-17 10:35:29.956868"	56	5.70636315
"S200217"	"Conflict_Resolution"	"LEFT"	"LEFT"	310.411899999963	583.3333345	n/a	n/a	n/a	n/a	"False"	n/a	n/a	"2020-02-17 10:35:30.558908"	"2020-02-17 10:35:31.078547"	57	5.70636315
"S200217"	"Conflict_Resolution"	"LEFT"	"LEFT"	313.54639999995	1100.0000022	n/a	n/a	n/a	n/a	"False"	n/a	n/a	"2020-02-17 10:35:32.196295"	"2020-02-17 10:35:32.716974"	58	5.70636315
"S200217"	"Conflict_Resolution"	"RIGHT"	"RIGHT"	334.893100000045	1366.6666694	n/a	n/a	n/a	n/a	"False"	n/a	n/a	"2020-02-17 10:35:34.102626"	"2020-02-17 10:35:34.646727"	59	5.70636315
"S200217"	"Conflict_Resolution"	"RIGHT"	"LEFT"	387.781799999971	600.0000012	n/a	n/a	n/a	n/a	"True"	n/a	n/a	"2020-02-17 10:35:35.266106"	"2020-02-17 10:35:35.861362"	60	5.70636315
"S200217"	"Conflict_Resolution"	"LEFT"	"LEFT"	370.438599999943	866.6666684	n/a	n/a	n/a	n/a	"False"	n/a	n/a	"2020-02-17 10:35:36.746967"	"2020-02-17 10:35:37.325453"	61	5.70636315
"S200217"	"Conflict_Resolution"	"LEFT"	"LEFT"	359.047099999998	1150.0000023	n/a	n/a	n/a	n/a	"False"	n/a	n/a	"2020-02-17 10:35:38.494109"	"2020-02-17 10:35:39.061623"	62	5.70636315
"S200217"	"Conflict_Resolution"	"LEFT"	"LEFT"	360.147500000039	516.6666677	n/a	n/a	n/a	n/a	"False"	n/a	n/a	"2020-02-17 10:35:39.597848"	"2020-02-17 10:35:40.165473"	63	5.70636315
"S200217"	"Conflict_Resolution"	"RIGHT"	"RIGHT"	386.55330000006	633.3333346	n/a	n/a	n/a	n/a	"False"	n/a	n/a	"2020-02-17 10:35:40.818753"	"2020-02-17 10:35:41.414510"	64	5.70636315
"S200217"	"Conflict_Resolution"	"RIGHT"	"RIGHT"	456.844199999978	1266.6666692	n/a	n/a	n/a	n/a	"True"	n/a	n/a	"2020-02-17 10:35:42.700296"	"2020-02-17 10:35:43.366035"	65	5.70636315
"S200217"	"Conflict_Resolution"	"RIGHT"	"RIGHT"	327.390400000013	1333.333336	n/a	n/a	n/a	n/a	"False"	n/a	n/a	"2020-02-17 10:35:44.718300"	"2020-02-17 10:35:45.253782"	66	5.70636315
"S200217"	"Conflict_Resolution"	"LEFT"	"LEFT"	338.539200000014	1450.0000029	n/a	n/a	n/a	n/a	"False"	n/a	n/a	"2020-02-17 10:35:46.723534"	"2020-02-17 10:35:47.269503"	67	5.70636315
"S200217"	"Conflict_Resolution"	"RIGHT"	"RIGHT"	396.758100000056	583.3333345	n/a	n/a	n/a	n/a	"False"	n/a	n/a	"2020-02-17 10:35:47.872522"	"2020-02-17 10:35:48.477324"	68	5.70636315
"S200217"	"Conflict_Resolution"	"LEFT"	"LEFT"	407.621199999994	966.6666686	n/a	n/a	n/a	n/a	"True"	n/a	n/a	"2020-02-17 10:35:49.462230"	"2020-02-17 10:35:50.077914"	69	5.70636315
"S200217"	"Conflict_Resolution"	"LEFT"	"LEFT"	303.481899999952	950.0000019	n/a	n/a	n/a	n/a	"False"	n/a	n/a	"2020-02-17 10:35:51.045835"	"2020-02-17 10:35:51.557830"	70	5.70636315
"S200217"	"Conflict_Resolution"	"RIGHT"	"RIGHT"	408.524299999954	1333.333336	n/a	n/a	n/a	n/a	"True"	n/a	n/a	"2020-02-17 10:35:52.908557"	"2020-02-17 10:35:53.525184"	71	5.70636315
"S200217"	"Conflict_Resolution"	"LEFT"	"LEFT"	381.459800000016	633.3333346	n/a	n/a	n/a	n/a	"False"	n/a	n/a	"2020-02-17 10:35:54.176483"	"2020-02-17 10:35:54.766118"	72	5.70636315
"S200217"	"Conflict_Resolution"	"RIGHT"	"RIGHT"	303.71660000003	1283.3333359	n/a	n/a	n/a	n/a	"False"	n/a	n/a	"2020-02-17 10:35:56.069706"	"2020-02-17 10:35:56.581438"	73	5.70636315
"S200217"	"Conflict_Resolution"	"LEFT"	"LEFT"	372.916499999974	1366.6666694	n/a	n/a	n/a	n/a	"False"	n/a	n/a	"2020-02-17 10:35:57.969052"	"2020-02-17 10:35:58.549332"	74	5.70636315
"S200217"	"Conflict_Resolution"	"LEFT"	"LEFT"	365.635400000087	766.6666682	n/a	n/a	n/a	n/a	"False"	n/a	n/a	"2020-02-17 10:35:59.335886"	"2020-02-17 10:35:59.909557"	75	5.70636315
"S200217"	"Conflict_Resolution"	"RIGHT"	"RIGHT"	554.766400000062	650.0000013	n/a	n/a	n/a	n/a	"True"	n/a	n/a	"2020-02-17 10:36:00.578995"	"2020-02-17 10:36:01.341625"	76	5.70636315
"S200217"	"Conflict_Resolution"	"RIGHT"	"RIGHT"	399.074499999983	750.0000015	n/a	n/a	n/a	n/a	"False"	n/a	n/a	"2020-02-17 10:36:02.111303"	"2020-02-17 10:36:02.718766"	77	5.70636315
"S200217"	"Conflict_Resolution"	"RIGHT"	"RIGHT"	381.843300000014	933.3333352	n/a	n/a	n/a	n/a	"False"	n/a	n/a	"2020-02-17 10:36:03.671440"	"2020-02-17 10:36:04.261876"	78	5.70636315
"S200217"	"Conflict_Resolution"	"LEFT"	"LEFT"	416.759400000046	916.6666685	n/a	n/a	n/a	n/a	"True"	n/a	n/a	"2020-02-17 10:36:05.196511"	"2020-02-17 10:36:05.820889"	79	5.70636315
"S200217"	"Conflict_Resolution"	"RIGHT"	"RIGHT"	324.265799999921	1433.3333362	n/a	n/a	n/a	n/a	"False"	n/a	n/a	"2020-02-17 10:36:07.273762"	"2020-02-17 10:36:07.805957"	80	5.70636315
"S200217"	"Conflict_Resolution"	"RIGHT"	"RIGHT"	452.882799999998	1150.0000023	n/a	n/a	n/a	n/a	"True"	n/a	n/a	"2020-02-17 10:36:08.976429"	"2020-02-17 10:36:09.638639"	81	5.70636315
"S200217"	"Conflict_Resolution"	"RIGHT"	"RIGHT"	383.377699999983	1100.0000022	n/a	n/a	n/a	n/a	"False"	n/a	n/a	"2020-02-17 10:36:10.758500"	"2020-02-17 10:36:11.350029"	82	5.70636315
"S200217"	"Conflict_Resolution"	"RIGHT"	"RIGHT"	507.508500000085	533.3333344	n/a	n/a	n/a	n/a	"True"	n/a	n/a	"2020-02-17 10:36:11.906080"	"2020-02-17 10:36:12.620842"	83	5.70636315
"S200217"	"Conflict_Resolution"	"RIGHT"	"RIGHT"	495.032199999969	1000.000002	n/a	n/a	n/a	n/a	"True"	n/a	n/a	"2020-02-17 10:36:13.638531"	"2020-02-17 10:36:14.342498"	84	5.70636315
"S200217"	"Conflict_Resolution"	"LEFT"	"LEFT"	346.963599999981	1216.6666691	n/a	n/a	n/a	n/a	"False"	n/a	n/a	"2020-02-17 10:36:15.578766"	"2020-02-17 10:36:16.134706"	85	5.70636315
"S200217"	"Conflict_Resolution"	"LEFT"	"LEFT"	396.144100000015	616.6666679	n/a	n/a	n/a	n/a	"False"	n/a	n/a	"2020-02-17 10:36:16.769231"	"2020-02-17 10:36:17.373566"	86	5.70636315
"S200217"	"Conflict_Resolution"	"LEFT"	"RIGHT"	393.696099999943	866.6666684	n/a	n/a	n/a	n/a	"True"	n/a	n/a	"2020-02-17 10:36:18.260196"	"2020-02-17 10:36:18.861001"	87	5.70636315
"S200217"	"Conflict_Resolution"	"RIGHT"	"RIGHT"	332.576199999949	800.0000016	n/a	n/a	n/a	n/a	"False"	n/a	n/a	"2020-02-17 10:36:19.681337"	"2020-02-17 10:36:20.221605"	88	5.70636315
"S200217"	"Conflict_Resolution"	"LEFT"	"LEFT"	416.269499999999	516.6666677	n/a	n/a	n/a	n/a	"True"	n/a	n/a	"2020-02-17 10:36:20.757204"	"2020-02-17 10:36:21.380979"	89	5.70636315
"S200217"	"Conflict_Resolution"	"LEFT"	"LEFT"	522.162200000025	1050.0000021	n/a	n/a	n/a	n/a	"True"	n/a	n/a	"2020-02-17 10:36:22.450980"	"2020-02-17 10:36:23.182087"	90	5.70636315
"S200217"	"Conflict_Resolution"	"RIGHT"	"RIGHT"	410.907099999918	1033.3333354	n/a	n/a	n/a	n/a	"True"	n/a	n/a	"2020-02-17 10:36:24.234430"	"2020-02-17 10:36:24.853269"	91	5.70636315
"S200217"	"Conflict_Resolution"	"LEFT"	"LEFT"	478.666199999907	1100.0000022	n/a	n/a	n/a	n/a	"True"	n/a	n/a	"2020-02-17 10:36:25.974736"	"2020-02-17 10:36:26.660964"	92	5.70636315
"S200217"	"Conflict_Resolution"	"RIGHT"	"RIGHT"	511.376100000007	1133.3333356	n/a	n/a	n/a	n/a	"True"	n/a	n/a	"2020-02-17 10:36:27.814261"	"2020-02-17 10:36:28.533695"	93	5.70636315
"S200217"	"Conflict_Resolution"	"RIGHT"	"RIGHT"	334.305500000028	733.3333348	n/a	n/a	n/a	n/a	"False"	n/a	n/a	"2020-02-17 10:36:29.287497"	"2020-02-17 10:36:29.829241"	94	5.70636315
"S200217"	"Conflict_Resolution"	"LEFT"	"LEFT"	416.694699999994	1116.6666689	n/a	n/a	n/a	n/a	"True"	n/a	n/a	"2020-02-17 10:36:30.965176"	"2020-02-17 10:36:31.590308"	95	5.70636315
"S200217"	"Conflict_Resolution"	"RIGHT"	"RIGHT"	357.21239999998	550.0000011	n/a	n/a	n/a	n/a	"False"	n/a	n/a	"2020-02-17 10:36:32.160810"	"2020-02-17 10:36:32.726465"	96	5.70636315
"S200217"	"Conflict_Resolution"	"LEFT"	"LEFT"	339.605199999937	1000.000002	n/a	n/a	n/a	n/a	"False"	n/a	n/a	"2020-02-17 10:36:33.746157"	"2020-02-17 10:36:34.292838"	97	5.70636315
"S200217"	"Conflict_Resolution"	"LEFT"	"LEFT"	387.632699999926	1250.0000025	n/a	n/a	n/a	n/a	"True"	n/a	n/a	"2020-02-17 10:36:35.562391"	"2020-02-17 10:36:36.157433"	98	5.70636315
"S200217"	"Conflict_Resolution"	"LEFT"	"LEFT"	416.897000000063	900.0000018	n/a	n/a	n/a	n/a	"True"	n/a	n/a	"2020-02-17 10:36:37.076296"	"2020-02-17 10:36:37.701403"	99	5.70636315
"S200217"	"Conflict_Resolution"	"LEFT"	"LEFT"	407.301999999959	733.3333348	n/a	n/a	n/a	n/a	"False"	n/a	n/a	"2020-02-17 10:36:38.453924"	"2020-02-17 10:36:39.068816"	100	5.70636315
"S200217"	"Conflict_Resolution"	"RIGHT"	"RIGHT"	501.422600000069	983.3333353	n/a	n/a	n/a	n/a	"True"	n/a	n/a	"2020-02-17 10:36:40.071800"	"2020-02-17 10:36:40.781623"	101	5.70636315
"S200217"	"Conflict_Resolution"	"LEFT"	"LEFT"	464.275799999996	1500.000003	n/a	n/a	n/a	n/a	"True"	n/a	n/a	"2020-02-17 10:36:42.300873"	"2020-02-17 10:36:42.974041"	102	5.70636315
"S200217"	"Conflict_Resolution"	"LEFT"	"LEFT"	546.313699999928	1300.0000026	n/a	n/a	n/a	n/a	"True"	n/a	n/a	"2020-02-17 10:36:44.292323"	"2020-02-17 10:36:45.046706"	103	5.70636315
"S200217"	"Conflict_Resolution"	"RIGHT"	"RIGHT"	520.309099999963	1083.3333355	n/a	n/a	n/a	n/a	"True"	n/a	n/a	"2020-02-17 10:36:46.149589"	"2020-02-17 10:36:46.877254"	104	5.70636315
"S200217"	"Conflict_Resolution"	"LEFT"	"LEFT"	390.866899999992	766.6666682	n/a	n/a	n/a	n/a	"True"	n/a	n/a	"2020-02-17 10:36:47.662304"	"2020-02-17 10:36:48.262009"	105	5.70636315
"S200217"	"Conflict_Resolution"	"LEFT"	"LEFT"	336.30370000003	1500.000003	n/a	n/a	n/a	n/a	"False"	n/a	n/a	"2020-02-17 10:36:49.781299"	"2020-02-17 10:36:50.325341"	106	5.70636315
"S200217"	"Conflict_Resolution"	"RIGHT"	"LEFT"	379.769900000042	1433.3333362	n/a	n/a	n/a	n/a	"True"	n/a	n/a	"2020-02-17 10:36:51.777815"	"2020-02-17 10:36:52.366539"	107	5.70636315
"S200217"	"Conflict_Resolution"	"LEFT"	"LEFT"	529.484500000081	683.3333347	n/a	n/a	n/a	n/a	"True"	n/a	n/a	"2020-02-17 10:36:53.067549"	"2020-02-17 10:36:53.805186"	108	5.70636315
"S200217"	"Conflict_Resolution"	"LEFT"	"LEFT"	382.13630000007	583.3333345	n/a	n/a	n/a	n/a	"True"	n/a	n/a	"2020-02-17 10:36:54.407167"	"2020-02-17 10:36:54.998789"	109	5.70636315
"S200217"	"Conflict_Resolution"	"LEFT"	"LEFT"	322.635600000012	666.666668	n/a	n/a	n/a	n/a	"False"	n/a	n/a	"2020-02-17 10:36:55.683132"	"2020-02-17 10:36:56.214337"	110	5.70636315
"S200217"	"Conflict_Resolution"	"RIGHT"	"RIGHT"	433.640100000048	850.0000017	n/a	n/a	n/a	n/a	"True"	n/a	n/a	"2020-02-17 10:36:57.084156"	"2020-02-17 10:36:57.725446"	111	5.70636315
"S200217"	"Conflict_Resolution"	"LEFT"	"LEFT"	362.858599999981	1466.6666696	n/a	n/a	n/a	n/a	"False"	n/a	n/a	"2020-02-17 10:36:59.210473"	"2020-02-17 10:36:59.781573"	112	5.70636315
"S200217"	"Conflict_Resolution"	"LEFT"	"LEFT"	402.986999999939	850.0000017	n/a	n/a	n/a	n/a	"False"	n/a	n/a	"2020-02-17 10:37:00.651019"	"2020-02-17 10:37:01.262516"	113	5.70636315
"S200217"	"Conflict_Resolution"	"RIGHT"	"RIGHT"	410.261199999923	1050.0000021	n/a	n/a	n/a	n/a	"False"	n/a	n/a	"2020-02-17 10:37:02.331623"	"2020-02-17 10:37:02.949587"	114	5.70636315
"S200217"	"Conflict_Resolution"	"RIGHT"	"RIGHT"	311.223199999972	1316.6666693	n/a	n/a	n/a	n/a	"False"	n/a	n/a	"2020-02-17 10:37:04.286366"	"2020-02-17 10:37:04.806350"	115	5.70636315
"S200217"	"Conflict_Resolution"	"RIGHT"	"RIGHT"	339.504099999999	1416.6666695	n/a	n/a	n/a	n/a	"False"	n/a	n/a	"2020-02-17 10:37:06.242043"	"2020-02-17 10:37:06.789444"	116	5.70636315
"S200217"	"Conflict_Resolution"	"RIGHT"	"RIGHT"	379.408499999954	833.333335	n/a	n/a	n/a	n/a	"False"	n/a	n/a	"2020-02-17 10:37:07.641825"	"2020-02-17 10:37:08.229261"	117	5.70636315
"S200217"	"Conflict_Resolution"	"RIGHT"	"RIGHT"	496.579699999984	500.000001	n/a	n/a	n/a	n/a	"True"	n/a	n/a	"2020-02-17 10:37:08.749014"	"2020-02-17 10:37:09.453761"	118	5.70636315
"S200217"	"Conflict_Resolution"	"LEFT"	"LEFT"	352.027700000008	716.6666681	n/a	n/a	n/a	n/a	"False"	n/a	n/a	"2020-02-17 10:37:10.189832"	"2020-02-17 10:37:10.749532"	119	5.70636315
"S200217"	"Conflict_Resolution"	"LEFT"	"LEFT"	297.838699999943	1116.6666689	n/a	n/a	n/a	n/a	"False"	n/a	n/a	"2020-02-17 10:37:11.883928"	"2020-02-17 10:37:12.389217"	120	5.70636315
"S200217"	"Conflict_Resolution"	"RIGHT"	"RIGHT"	408.222000000023	1133.3333356	n/a	n/a	n/a	n/a	"False"	n/a	n/a	"2020-02-17 10:37:13.541738"	"2020-02-17 10:37:14.156856"	121	5.70636315
"S200217"	"Conflict_Resolution"	"RIGHT"	"RIGHT"	478.130399999941	1366.6666694	n/a	n/a	n/a	n/a	"True"	n/a	n/a	"2020-02-17 10:37:15.542858"	"2020-02-17 10:37:16.229579"	122	5.70636315
"S200217"	"Conflict_Resolution"	"LEFT"	"LEFT"	335.837699999956	1316.6666693	n/a	n/a	n/a	n/a	"False"	n/a	n/a	"2020-02-17 10:37:17.565645"	"2020-02-17 10:37:18.109237"	123	5.70636315
"S200217"	"Conflict_Resolution"	"RIGHT"	"RIGHT"	376.384200000075	950.0000019	n/a	n/a	n/a	n/a	"False"	n/a	n/a	"2020-02-17 10:37:19.077647"	"2020-02-17 10:37:19.662261"	124	5.70636315
"S200217"	"Conflict_Resolution"	"RIGHT"	"RIGHT"	464.168599999994	1283.3333359	n/a	n/a	n/a	n/a	"True"	n/a	n/a	"2020-02-17 10:37:20.964993"	"2020-02-17 10:37:21.638795"	125	5.70636315
"S200217"	"Conflict_Resolution"	"LEFT"	"LEFT"	376.394699999992	916.6666685	n/a	n/a	n/a	n/a	"False"	n/a	n/a	"2020-02-17 10:37:22.573510"	"2020-02-17 10:37:23.157109"	126	5.70636315
"S200217"	"Conflict_Resolution"	"RIGHT"	"RIGHT"	329.978499999925	1083.3333355	n/a	n/a	n/a	n/a	"False"	n/a	n/a	"2020-02-17 10:37:24.259816"	"2020-02-17 10:37:24.797292"	127	5.70636315
"S200217"	"Conflict_Resolution"	"RIGHT"	"RIGHT"	597.021499999983	783.3333349	n/a	n/a	n/a	n/a	"True"	n/a	n/a	"2020-02-17 10:37:25.600133"	"2020-02-17 10:37:26.405172"	128	5.70636315
"S200217"	"Conflict_Resolution"	"LEFT"	"LEFT"	607.286799999997	950.0000019	n/a	n/a	n/a	n/a	"True"	n/a	n/a	"2020-02-17 10:37:27.374150"	"2020-02-17 10:37:28.189674"	129	5.70636315
"S200217"	"Conflict_Resolution"	"LEFT"	"LEFT"	394.367099999954	1066.6666688	n/a	n/a	n/a	n/a	"True"	n/a	n/a	"2020-02-17 10:37:29.274952"	"2020-02-17 10:37:29.876944"	130	5.70636315
"S200217"	"Conflict_Resolution"	"RIGHT"	"RIGHT"	457.127499999956	500.000001	n/a	n/a	n/a	n/a	"False"	n/a	n/a	"2020-02-17 10:37:30.396612"	"2020-02-17 10:37:31.061954"	131	5.70636315
"S200217"	"Conflict_Resolution"	"LEFT"	"LEFT"	426.569900000004	1066.6666688	n/a	n/a	n/a	n/a	"False"	n/a	n/a	"2020-02-17 10:37:32.146415"	"2020-02-17 10:37:32.782728"	132	5.70636315
"S200217"	"Conflict_Resolution"	"RIGHT"	"RIGHT"	429.291399999897	550.0000011	n/a	n/a	n/a	n/a	"True"	n/a	n/a	"2020-02-17 10:37:33.352449"	"2020-02-17 10:37:33.989105"	133	5.70636315
"S200217"	"Conflict_Resolution"	"RIGHT"	"RIGHT"	344.63930000004	700.0000014	n/a	n/a	n/a	n/a	"False"	n/a	n/a	"2020-02-17 10:37:34.708873"	"2020-02-17 10:37:35.260933"	134	5.70636315
"S200217"	"Conflict_Resolution"	"RIGHT"	"RIGHT"	337.93229999992	883.3333351	n/a	n/a	n/a	n/a	"False"	n/a	n/a	"2020-02-17 10:37:36.163543"	"2020-02-17 10:37:36.709422"	135	5.70636315
"S200217"	"Conflict_Resolution"	"LEFT"	"LEFT"	450.963800000068	633.3333346	n/a	n/a	n/a	n/a	"True"	n/a	n/a	"2020-02-17 10:37:37.362255"	"2020-02-17 10:37:38.021198"	136	5.70636315
"S200217"	"Conflict_Resolution"	"LEFT"	"LEFT"	378.866099999982	683.3333347	n/a	n/a	n/a	n/a	"False"	n/a	n/a	"2020-02-17 10:37:38.722497"	"2020-02-17 10:37:39.309168"	137	5.70636315
"S200217"	"Conflict_Resolution"	"RIGHT"	"RIGHT"	341.16240000003	1000.000002	n/a	n/a	n/a	n/a	"False"	n/a	n/a	"2020-02-17 10:37:40.328618"	"2020-02-17 10:37:40.877713"	138	5.70636315
"S200217"	"Conflict_Resolution"	"RIGHT"	"LEFT"	344.76600000005	1100.0000022	n/a	n/a	n/a	n/a	"True"	n/a	n/a	"2020-02-17 10:37:41.996864"	"2020-02-17 10:37:42.550549"	139	5.70636315
"S200217"	"Conflict_Resolution"	"LEFT"	"LEFT"	500.323900000012	1216.6666691	n/a	n/a	n/a	n/a	"True"	n/a	n/a	"2020-02-17 10:37:43.784899"	"2020-02-17 10:37:44.494703"	140	5.70636315
"S200217"	"Conflict_Resolution"	"RIGHT"	"RIGHT"	393.373500000052	850.0000017	n/a	n/a	n/a	n/a	"False"	n/a	n/a	"2020-02-17 10:37:45.364590"	"2020-02-17 10:37:45.966602"	141	5.70636315
"S200217"	"Conflict_Resolution"	"LEFT"	"LEFT"	514.708000000041	1416.6666695	n/a	n/a	n/a	n/a	"True"	n/a	n/a	"2020-02-17 10:37:47.403043"	"2020-02-17 10:37:48.125147"	142	5.70636315
"S200217"	"Conflict_Resolution"	"RIGHT"	"RIGHT"	396.548700000039	1216.6666691	n/a	n/a	n/a	n/a	"False"	n/a	n/a	"2020-02-17 10:37:49.361364"	"2020-02-17 10:37:49.966307"	143	5.70636315
"S200217"	"Conflict_Resolution"	"RIGHT"	"RIGHT"	462.416200000007	933.3333352	n/a	n/a	n/a	n/a	"True"	n/a	n/a	"2020-02-17 10:37:50.918973"	"2020-02-17 10:37:51.589151"	144	5.70636315
"S200217"	"Conflict_Resolution"	"RIGHT"	"RIGHT"	468.690100000003	1416.6666695	n/a	n/a	n/a	n/a	"True"	n/a	n/a	"2020-02-17 10:37:53.024624"	"2020-02-17 10:37:53.700855"	145	5.70636315
"S200217"	"Conflict_Resolution"	"LEFT"	"LEFT"	380.150500000013	816.6666683	n/a	n/a	n/a	n/a	"False"	n/a	n/a	"2020-02-17 10:37:54.536855"	"2020-02-17 10:37:55.124843"	146	5.70636315
"S200217"	"Conflict_Resolution"	"LEFT"	"LEFT"	377.155199999947	1300.0000026	n/a	n/a	n/a	n/a	"False"	n/a	n/a	"2020-02-17 10:37:56.444415"	"2020-02-17 10:37:57.029013"	147	5.70636315
"S200217"	"Conflict_Resolution"	"RIGHT"	"RIGHT"	358.922399999983	1150.0000023	n/a	n/a	n/a	n/a	"False"	n/a	n/a	"2020-02-17 10:37:58.199052"	"2020-02-17 10:37:58.766771"	148	5.70636315
"S200217"	"Conflict_Resolution"	"LEFT"	"LEFT"	463.046100000042	1350.0000027	n/a	n/a	n/a	n/a	"True"	n/a	n/a	"2020-02-17 10:38:00.133871"	"2020-02-17 10:38:00.806139"	149	5.70636315
"S200217"	"Conflict_Resolution"	"LEFT"	"LEFT"	503.752299999974	1316.6666693	n/a	n/a	n/a	n/a	"True"	n/a	n/a	"2020-02-17 10:38:02.141444"	"2020-02-17 10:38:02.852837"	150	5.70636315
"S200217"	"Conflict_Resolution"	"LEFT"	"LEFT"	476.823099999933	1016.6666687	n/a	n/a	n/a	n/a	"True"	n/a	n/a	"2020-02-17 10:38:03.889107"	"2020-02-17 10:38:04.573803"	151	5.70636315
"S200217"	"Conflict_Resolution"	"RIGHT"	"RIGHT"	346.062999999958	1233.3333358	n/a	n/a	n/a	n/a	"False"	n/a	n/a	"2020-02-17 10:38:05.827476"	"2020-02-17 10:38:06.381087"	152	5.70636315
"S200217"	"Conflict_Resolution"	"RIGHT"	"RIGHT"	965.466200000037	583.3333345	n/a	n/a	n/a	n/a	"True"	n/a	n/a	"2020-02-17 10:38:06.984454"	"2020-02-17 10:38:08.158528"	153	5.70636315
"S200217"	"Conflict_Resolution"	"LEFT"	"LEFT"	556.51649999993	1000.000002	n/a	n/a	n/a	n/a	"True"	n/a	n/a	"2020-02-17 10:38:09.176724"	"2020-02-17 10:38:09.942414"	154	5.70636315
"S200217"	"Conflict_Resolution"	"LEFT"	"LEFT"	483.035099999938	816.6666683	n/a	n/a	n/a	n/a	"True"	n/a	n/a	"2020-02-17 10:38:10.778184"	"2020-02-17 10:38:11.471665"	155	5.70636315
"S200217"	"Conflict_Resolution"	"RIGHT"	"RIGHT"	450.454400000012	1050.0000021	n/a	n/a	n/a	n/a	"True"	n/a	n/a	"2020-02-17 10:38:12.538464"	"2020-02-17 10:38:13.198545"	156	5.70636315
"S200217"	"Conflict_Resolution"	"LEFT"	"LEFT"	447.786400000041	1266.6666692	n/a	n/a	n/a	n/a	"True"	n/a	n/a	"2020-02-17 10:38:14.485235"	"2020-02-17 10:38:15.141603"	157	5.70636315
"S200217"	"Conflict_Resolution"	"LEFT"	"LEFT"	348.453699999936	1400.0000028	n/a	n/a	n/a	n/a	"False"	n/a	n/a	"2020-02-17 10:38:16.560941"	"2020-02-17 10:38:17.118595"	158	5.70636315
"S200217"	"Conflict_Resolution"	"LEFT"	"LEFT"	361.609799999997	1250.0000025	n/a	n/a	n/a	n/a	"False"	n/a	n/a	"2020-02-17 10:38:18.388608"	"2020-02-17 10:38:18.956993"	159	5.70636315
"S200217"	"Conflict_Resolution"	"RIGHT"	"LEFT"	378.578900000093	1466.6666696	n/a	n/a	n/a	n/a	"True"	n/a	n/a	"2020-02-17 10:38:20.442507"	"2020-02-17 10:38:21.029460"	160	5.70636315
"S200217"	"Processing_Speed"	"RIGHT"	"DOWN"	586.887200000007	916.6666685	"LEFT"	-4.986	n/a	n/a	n/a	n/a	n/a	"2020-02-17 10:23:00.147032"	"2020-02-17 10:23:00.946947"	1	1.9252241
"S200217"	"Processing_Speed"	"RIGHT"	"DOWN"	294.442500000002	1500.000003	""	n/a	n/a	n/a	n/a	n/a	n/a	"2020-02-17 10:23:02.455655"	"2020-02-17 10:23:02.958592"	2	1.9252241
"S200217"	"Processing_Speed"	"LEFT"	"DOWN"	263.663300000005	783.3333349	""	n/a	n/a	n/a	n/a	n/a	n/a	"2020-02-17 10:23:03.750515"	"2020-02-17 10:23:04.222312"	3	1.9252241
"S200217"	"Processing_Speed"	"RIGHT"	"DOWN"	219.816999999992	1050.0000021	""	n/a	n/a	n/a	n/a	n/a	n/a	"2020-02-17 10:23:05.282654"	"2020-02-17 10:23:05.710869"	4	1.9252241
"S200217"	"Processing_Speed"	"LEFT"	"DOWN"	328.175799999997	566.6666678	""	n/a	n/a	n/a	n/a	n/a	n/a	"2020-02-17 10:23:06.285800"	"2020-02-17 10:23:06.823647"	5	1.9252241
"S200217"	"Processing_Speed"	"LEFT"	"DOWN"	300.894000000014	1016.6666687	""	n/a	n/a	n/a	n/a	n/a	n/a	"2020-02-17 10:23:07.848922"	"2020-02-17 10:23:08.358198"	6	1.9252241
"S200217"	"Processing_Speed"	"RIGHT"	"DOWN"	255.072599999991	600.0000012	""	n/a	n/a	n/a	n/a	n/a	n/a	"2020-02-17 10:23:08.966554"	"2020-02-17 10:23:09.430726"	7	1.9252241
"S200217"	"Processing_Speed"	"RIGHT"	"DOWN"	258.976199999992	883.3333351	""	n/a	n/a	n/a	n/a	n/a	n/a	"2020-02-17 10:23:10.322767"	"2020-02-17 10:23:10.790361"	8	1.9252241
"S200217"	"Processing_Speed"	"RIGHT"	"DOWN"	248.098100000007	1366.6666694	""	n/a	n/a	n/a	n/a	n/a	n/a	"2020-02-17 10:23:12.166240"	"2020-02-17 10:23:12.622225"	9	1.9252241
"S200217"	"Processing_Speed"	"RIGHT"	"DOWN"	275.012000000004	700.0000014	""	n/a	n/a	n/a	n/a	n/a	n/a	"2020-02-17 10:23:13.331408"	"2020-02-17 10:23:13.814695"	10	1.9252241
"S200217"	"Processing_Speed"	"RIGHT"	"DOWN"	259.906299999997	1266.6666692	""	n/a	n/a	n/a	n/a	n/a	n/a	"2020-02-17 10:23:15.090315"	"2020-02-17 10:23:15.558109"	11	1.9252241
"S200217"	"Processing_Speed"	"LEFT"	"DOWN"	262.170700000013	633.3333346	""	n/a	n/a	n/a	n/a	n/a	n/a	"2020-02-17 10:23:16.200424"	"2020-02-17 10:23:16.669409"	12	1.9252241
"S200217"	"Processing_Speed"	"LEFT"	"DOWN"	275.952799999999	500.000001	""	n/a	n/a	n/a	n/a	n/a	n/a	"2020-02-17 10:23:17.177740"	"2020-02-17 10:23:17.663457"	13	1.9252241
"S200217"	"Processing_Speed"	"LEFT"	"DOWN"	229.906600000021	600.0000012	""	n/a	n/a	n/a	n/a	n/a	n/a	"2020-02-17 10:23:18.271937"	"2020-02-17 10:23:18.709169"	14	1.9252241
"S200217"	"Processing_Speed"	"LEFT"	"DOWN"	269.850099999985	1466.6666696	""	n/a	n/a	n/a	n/a	n/a	n/a	"2020-02-17 10:23:20.184567"	"2020-02-17 10:23:20.662527"	15	1.9252241
"S200217"	"Processing_Speed"	"LEFT"	"DOWN"	290.38220000001	1116.6666689	""	n/a	n/a	n/a	n/a	n/a	n/a	"2020-02-17 10:23:21.787533"	"2020-02-17 10:23:22.285245"	16	1.9252241
"S200217"	"Processing_Speed"	"LEFT"	"DOWN"	252.607000000012	1500.000003	""	n/a	n/a	n/a	n/a	n/a	n/a	"2020-02-17 10:23:23.793561"	"2020-02-17 10:23:24.255678"	17	1.9252241
"S200217"	"Processing_Speed"	"RIGHT"	"DOWN"	226.92889999999	1466.6666696	""	n/a	n/a	n/a	n/a	n/a	n/a	"2020-02-17 10:23:25.731282"	"2020-02-17 10:23:26.165811"	18	1.9252241
"S200217"	"Processing_Speed"	"LEFT"	"DOWN"	272.472399999998	733.3333348	""	n/a	n/a	n/a	n/a	n/a	n/a	"2020-02-17 10:23:26.909526"	"2020-02-17 10:23:27.390410"	19	1.9252241
"S200217"	"Processing_Speed"	"RIGHT"	"DOWN"	271.990600000009	783.3333349	""	n/a	n/a	n/a	n/a	n/a	n/a	"2020-02-17 10:23:28.182472"	"2020-02-17 10:23:28.662629"	20	1.9252241
"S200217"	"Processing_Speed"	"RIGHT"	"DOWN"	268.8287	1216.6666691	""	n/a	n/a	n/a	n/a	n/a	n/a	"2020-02-17 10:23:29.889527"	"2020-02-17 10:23:30.367723"	21	1.9252241
"S200217"	"Processing_Speed"	"RIGHT"	"DOWN"	385.894500000006	500.000001	""	n/a	n/a	n/a	n/a	n/a	n/a	"2020-02-17 10:23:30.876695"	"2020-02-17 10:23:31.470137"	22	1.9252241
"S200217"	"Processing_Speed"	"RIGHT"	"DOWN"	287.1758	983.3333353	""	n/a	n/a	n/a	n/a	n/a	n/a	"2020-02-17 10:23:32.463337"	"2020-02-17 10:23:32.957652"	23	1.9252241
"S200217"	"Processing_Speed"	"RIGHT"	"DOWN"	240.924999999976	1183.3333357	""	n/a	n/a	n/a	n/a	n/a	n/a	"2020-02-17 10:23:34.149611"	"2020-02-17 10:23:34.598463"	24	1.9252241
"S200217"	"Processing_Speed"	"LEFT"	"DOWN"	219.454899999988	1300.0000026	""	n/a	n/a	n/a	n/a	n/a	n/a	"2020-02-17 10:23:35.907060"	"2020-02-17 10:23:36.333783"	25	1.9252241
"S200217"	"Processing_Speed"	"LEFT"	"DOWN"	225.066400000003	950.0000019	""	n/a	n/a	n/a	n/a	n/a	n/a	"2020-02-17 10:23:37.292951"	"2020-02-17 10:23:37.725908"	26	1.9252241
"S200217"	"Processing_Speed"	"LEFT"	"DOWN"	260.705699999988	850.0000017	""	n/a	n/a	n/a	n/a	n/a	n/a	"2020-02-17 10:23:38.585808"	"2020-02-17 10:23:39.053280"	27	1.9252241
"S200217"	"Processing_Speed"	"LEFT"	"DOWN"	250.76820000001	700.0000014	""	n/a	n/a	n/a	n/a	n/a	n/a	"2020-02-17 10:23:39.763578"	"2020-02-17 10:23:40.221688"	28	1.9252241
"S200217"	"Processing_Speed"	"RIGHT"	"DOWN"	230.71010000001	816.6666683	""	n/a	n/a	n/a	n/a	n/a	n/a	"2020-02-17 10:23:41.047467"	"2020-02-17 10:23:41.486437"	29	1.9252241
"S200217"	"Processing_Speed"	"RIGHT"	"DOWN"	276.141199999984	1083.3333355	""	n/a	n/a	n/a	n/a	n/a	n/a	"2020-02-17 10:23:42.578241"	"2020-02-17 10:23:43.062641"	30	1.9252241
"S200217"	"Processing_Speed"	"LEFT"	"DOWN"	375.646200000006	983.3333353	""	n/a	n/a	n/a	n/a	n/a	n/a	"2020-02-17 10:23:44.054342"	"2020-02-17 10:23:44.638665"	31	1.9252241
"S200217"	"Processing_Speed"	"RIGHT"	"DOWN"	241.228700000022	950.0000019	""	n/a	n/a	n/a	n/a	n/a	n/a	"2020-02-17 10:23:45.597281"	"2020-02-17 10:23:46.046082"	32	1.9252241
"S200217"	"Processing_Speed"	"RIGHT"	"DOWN"	266.254199999992	1116.6666689	""	n/a	n/a	n/a	n/a	n/a	n/a	"2020-02-17 10:23:47.171799"	"2020-02-17 10:23:47.646746"	33	1.9252241
"S200217"	"Processing_Speed"	"LEFT"	"DOWN"	266.153599999996	533.3333344	""	n/a	n/a	n/a	n/a	n/a	n/a	"2020-02-17 10:23:48.188572"	"2020-02-17 10:23:48.663297"	34	1.9252241
"S200217"	"Processing_Speed"	"RIGHT"	"DOWN"	335.091200000022	566.6666678	""	n/a	n/a	n/a	n/a	n/a	n/a	"2020-02-17 10:23:49.239091"	"2020-02-17 10:23:49.782226"	35	1.9252241
"S200217"	"Processing_Speed"	"LEFT"	"DOWN"	204.161200000016	883.3333351	""	n/a	n/a	n/a	n/a	n/a	n/a	"2020-02-17 10:23:50.674203"	"2020-02-17 10:23:51.086390"	36	1.9252241
"S200217"	"Processing_Speed"	"RIGHT"	"DOWN"	225.094999999982	533.3333344	""	n/a	n/a	n/a	n/a	n/a	n/a	"2020-02-17 10:23:51.629143"	"2020-02-17 10:23:52.062459"	37	1.9252241
"S200217"	"Processing_Speed"	"LEFT"	"DOWN"	198.981599999996	1400.0000028	""	n/a	n/a	n/a	n/a	n/a	n/a	"2020-02-17 10:23:53.470643"	"2020-02-17 10:23:53.878795"	38	1.9252241
"S200217"	"Processing_Speed"	"LEFT"	"DOWN"	281.734499999999	1333.333336	""	n/a	n/a	n/a	n/a	n/a	n/a	"2020-02-17 10:23:55.220689"	"2020-02-17 10:23:55.709973"	39	1.9252241
"S200217"	"Processing_Speed"	"LEFT"	"DOWN"	246.579999999994	1216.6666691	""	n/a	n/a	n/a	n/a	n/a	n/a	"2020-02-17 10:23:56.935337"	"2020-02-17 10:23:57.390479"	40	1.9252241
"S200217"	"Processing_Speed"	"RIGHT"	"DOWN"	214.975500000008	1400.0000028	""	n/a	n/a	n/a	n/a	n/a	n/a	"2020-02-17 10:23:58.799040"	"2020-02-17 10:23:59.222194"	41	1.9252241
"S200217"	"Processing_Speed"	"LEFT"	"DOWN"	257.366400000024	1150.0000023	""	n/a	n/a	n/a	n/a	n/a	n/a	"2020-02-17 10:24:00.381077"	"2020-02-17 10:24:00.846454"	42	1.9252241
"S200217"	"Processing_Speed"	"RIGHT"	"DOWN"	260.378599999996	666.666668	""	n/a	n/a	n/a	n/a	n/a	n/a	"2020-02-17 10:24:01.521669"	"2020-02-17 10:24:01.989053"	43	1.9252241
"S200217"	"Processing_Speed"	"LEFT"	"DOWN"	209.320300000002	1183.3333357	""	n/a	n/a	n/a	n/a	n/a	n/a	"2020-02-17 10:24:03.180638"	"2020-02-17 10:24:03.598017"	44	1.9252241
"S200217"	"Processing_Speed"	"LEFT"	"DOWN"	222.293900000011	1433.3333362	""	n/a	n/a	n/a	n/a	n/a	n/a	"2020-02-17 10:24:05.039578"	"2020-02-17 10:24:05.469654"	45	1.9252241
"S200217"	"Processing_Speed"	"RIGHT"	"DOWN"	274.868400000003	733.3333348	""	n/a	n/a	n/a	n/a	n/a	n/a	"2020-02-17 10:24:06.211319"	"2020-02-17 10:24:06.692927"	46	1.9252241
"S200217"	"Processing_Speed"	"LEFT"	"DOWN"	232.987199999997	1366.6666694	""	n/a	n/a	n/a	n/a	n/a	n/a	"2020-02-17 10:24:08.068888"	"2020-02-17 10:24:08.510706"	47	1.9252241
"S200217"	"Processing_Speed"	"LEFT"	"DOWN"	224.888800000002	916.6666685	""	n/a	n/a	n/a	n/a	n/a	n/a	"2020-02-17 10:24:09.437302"	"2020-02-17 10:24:09.870595"	48	1.9252241
"S200217"	"Processing_Speed"	"RIGHT"	"DOWN"	264.545399999975	1150.0000023	""	n/a	n/a	n/a	n/a	n/a	n/a	"2020-02-17 10:24:11.029860"	"2020-02-17 10:24:11.501922"	49	1.9252241
"S200217"	"Processing_Speed"	"RIGHT"	"DOWN"	271.127699999994	1016.6666687	""	n/a	n/a	n/a	n/a	n/a	n/a	"2020-02-17 10:24:12.526693"	"2020-02-17 10:24:13.008702"	50	1.9252241
"S200217"	"Processing_Speed"	"LEFT"	"DOWN"	212.243300000011	816.6666683	""	n/a	n/a	n/a	n/a	n/a	n/a	"2020-02-17 10:24:13.833440"	"2020-02-17 10:24:14.253679"	51	1.9252241
"S200217"	"Processing_Speed"	"RIGHT"	"DOWN"	211.728899999997	1300.0000026	""	n/a	n/a	n/a	n/a	n/a	n/a	"2020-02-17 10:24:15.562529"	"2020-02-17 10:24:15.982519"	52	1.9252241
"S200217"	"Processing_Speed"	"RIGHT"	"DOWN"	228.055599999976	850.0000017	""	n/a	n/a	n/a	n/a	n/a	n/a	"2020-02-17 10:24:16.842062"	"2020-02-17 10:24:17.278472"	53	1.9252241
"S200217"	"Processing_Speed"	"LEFT"	"DOWN"	156.248800000014	1266.6666692	""	n/a	n/a	n/a	n/a	n/a	n/a	"2020-02-17 10:24:18.554062"	"2020-02-17 10:24:18.918179"	54	1.9252241
"S200217"	"Processing_Speed"	"RIGHT"	"DOWN"	229.859099999999	633.3333346	""	n/a	n/a	n/a	n/a	n/a	n/a	"2020-02-17 10:24:19.560669"	"2020-02-17 10:24:19.998367"	55	1.9252241
"S200217"	"Processing_Speed"	"LEFT"	"DOWN"	211.849300000011	1083.3333355	""	n/a	n/a	n/a	n/a	n/a	n/a	"2020-02-17 10:24:21.090252"	"2020-02-17 10:24:21.509167"	56	1.9252241
"S200217"	"Processing_Speed"	"LEFT"	"DOWN"	262.156500000003	1050.0000021	""	n/a	n/a	n/a	n/a	n/a	n/a	"2020-02-17 10:24:22.568194"	"2020-02-17 10:24:23.038664"	57	1.9252241
"S200217"	"Processing_Speed"	"RIGHT"	"DOWN"	217.100800000026	1333.333336	""	n/a	n/a	n/a	n/a	n/a	n/a	"2020-02-17 10:24:24.381278"	"2020-02-17 10:24:24.805294"	58	1.9252241
"S200217"	"Processing_Speed"	"RIGHT"	"DOWN"	254.563700000006	1433.3333362	""	n/a	n/a	n/a	n/a	n/a	n/a	"2020-02-17 10:24:26.247701"	"2020-02-17 10:24:26.710475"	59	1.9252241
"S200217"	"Processing_Speed"	"LEFT"	"DOWN"	267.917799999992	666.666668	""	n/a	n/a	n/a	n/a	n/a	n/a	"2020-02-17 10:24:27.386315"	"2020-02-17 10:24:27.862568"	60	1.9252241
"S200217"	"Response_Inhibition"	"LEFT"	"LEFT"	296.521733500035	783.3333349	n/a	n/a	n/a	n/a	n/a	n/a	n/a	"2020-02-17 10:27:46.674363"	"2020-02-17 10:27:47.182006"	1	5.4375243
"S200217"	"Response_Inhibition"	"LEFT"	"LEFT"	335.434599999985	1200.0000024	n/a	n/a	n/a	n/a	n/a	n/a	n/a	"2020-02-17 10:27:48.390736"	"2020-02-17 10:27:48.934791"	2	5.4375243
"S200217"	"Response_Inhibition"	"RIGHT"	"RIGHT"	320.55349999996	550.0000011	n/a	n/a	n/a	n/a	n/a	n/a	n/a	"2020-02-17 10:27:49.493289"	"2020-02-17 10:27:50.022626"	3	5.4375243
"S200217"	"Response_Inhibition"	"LEFT"	"LEFT"	314.272200000005	700.0000014	n/a	n/a	n/a	n/a	n/a	n/a	n/a	"2020-02-17 10:27:50.731430"	"2020-02-17 10:27:51.253722"	4	5.4375243
"S200217"	"Response_Inhibition"	"RIGHT"	"RIGHT"	348.659966899999	1200.0000024	n/a	n/a	n/a	n/a	n/a	n/a	n/a	"2020-02-17 10:27:52.461911"	"2020-02-17 10:27:53.021591"	5	5.4375243
"S200217"	"Response_Inhibition"	"RIGHT"	"Time_Max_Exceeded"	1500.04750029996	700.0000014	n/a	n/a	n/a	n/a	n/a	n/a	n/a	"2020-02-17 10:27:53.732261"	"2020-02-17 10:27:55.235160"	6	5.4375243
"S200217"	"Response_Inhibition"	"RIGHT"	"RIGHT"	302.130199999965	1266.6666692	n/a	n/a	n/a	n/a	n/a	n/a	n/a	"2020-02-17 10:27:56.511557"	"2020-02-17 10:27:57.022112"	7	5.4375243
"S200217"	"Response_Inhibition"	"RIGHT"	"RIGHT"	347.973999999965	1466.6666696	n/a	n/a	n/a	n/a	n/a	n/a	n/a	"2020-02-17 10:27:58.498298"	"2020-02-17 10:27:59.054115"	8	5.4375243
"S200217"	"Response_Inhibition"	"LEFT"	"LEFT"	507.055100000002	900.0000018	n/a	n/a	n/a	n/a	n/a	n/a	n/a	"2020-02-17 10:27:59.962718"	"2020-02-17 10:28:00.678033"	9	5.4375243
"S200217"	"Response_Inhibition"	"RIGHT"	"RIGHT"	301.230700299985	583.3333345	n/a	n/a	n/a	n/a	n/a	n/a	n/a	"2020-02-17 10:28:01.269793"	"2020-02-17 10:28:01.782495"	10	5.4375243
"S200217"	"Response_Inhibition"	"LEFT"	"LEFT"	413.975700000037	616.6666679	n/a	n/a	n/a	n/a	n/a	n/a	n/a	"2020-02-17 10:28:02.407779"	"2020-02-17 10:28:03.029541"	11	5.4375243
"S200217"	"Response_Inhibition"	"RIGHT"	"Time_Max_Exceeded"	1500.05493350002	633.3333346	n/a	n/a	n/a	n/a	n/a	n/a	n/a	"2020-02-17 10:28:03.671578"	"2020-02-17 10:28:05.175212"	12	5.4375243
"S200217"	"Response_Inhibition"	"RIGHT"	"RIGHT"	367.910299999949	1133.3333356	n/a	n/a	n/a	n/a	n/a	n/a	n/a	"2020-02-17 10:28:06.318356"	"2020-02-17 10:28:06.894385"	13	5.4375243
"S200217"	"Response_Inhibition"	"RIGHT"	"RIGHT"	368.303900000001	1166.666669	n/a	n/a	n/a	n/a	n/a	n/a	n/a	"2020-02-17 10:28:08.069902"	"2020-02-17 10:28:08.646353"	14	5.4375243
"S200217"	"Response_Inhibition"	"LEFT"	"LEFT"	477.401400000019	1016.6666687	n/a	n/a	n/a	n/a	n/a	n/a	n/a	"2020-02-17 10:28:09.671967"	"2020-02-17 10:28:10.358027"	15	5.4375243
"S200217"	"Response_Inhibition"	"RIGHT"	"RIGHT"	382.66010000001	1216.6666691	n/a	n/a	n/a	n/a	n/a	n/a	n/a	"2020-02-17 10:28:11.582890"	"2020-02-17 10:28:12.173925"	16	5.4375243
"S200217"	"Response_Inhibition"	"LEFT"	"Time_Max_Exceeded"	1500.06873339995	1250.0000025	n/a	n/a	n/a	n/a	n/a	n/a	n/a	"2020-02-17 10:28:13.432444"	"2020-02-17 10:28:14.936404"	17	5.4375243
"S200217"	"Response_Inhibition"	"LEFT"	"LEFT"	360.203267100004	633.3333346	n/a	n/a	n/a	n/a	n/a	n/a	n/a	"2020-02-17 10:28:15.578424"	"2020-02-17 10:28:16.150659"	18	5.4375243
"S200217"	"Response_Inhibition"	"RIGHT"	"RIGHT"	372.536500000024	850.0000017	n/a	n/a	n/a	n/a	n/a	n/a	n/a	"2020-02-17 10:28:17.009302"	"2020-02-17 10:28:17.590022"	19	5.4375243
"S200217"	"Response_Inhibition"	"LEFT"	"LEFT"	325.871199999995	1000.000002	n/a	n/a	n/a	n/a	n/a	n/a	n/a	"2020-02-17 10:28:18.600185"	"2020-02-17 10:28:19.134416"	20	5.4375243
"S200217"	"Response_Inhibition"	"LEFT"	"LEFT"	327.422899999988	783.3333349	n/a	n/a	n/a	n/a	n/a	n/a	n/a	"2020-02-17 10:28:19.926561"	"2020-02-17 10:28:20.462323"	21	5.4375243
"S200217"	"Response_Inhibition"	"RIGHT"	"Time_Max_Exceeded"	1500.0504668	1366.6666694	n/a	n/a	n/a	n/a	n/a	n/a	n/a	"2020-02-17 10:28:21.838291"	"2020-02-17 10:28:23.341701"	22	5.4375243
"S200217"	"Response_Inhibition"	"LEFT"	"Time_Max_Exceeded"	1500.04820049998	1150.0000023	n/a	n/a	n/a	n/a	n/a	n/a	n/a	"2020-02-17 10:28:24.500820"	"2020-02-17 10:28:26.003962"	23	5.4375243
"S200217"	"Response_Inhibition"	"LEFT"	"LEFT"	270.655900000008	1266.6666692	n/a	n/a	n/a	n/a	n/a	n/a	n/a	"2020-02-17 10:28:27.279757"	"2020-02-17 10:28:27.758428"	24	5.4375243
"S200217"	"Response_Inhibition"	"RIGHT"	"RIGHT"	284.65719999997	1050.0000021	n/a	n/a	n/a	n/a	n/a	n/a	n/a	"2020-02-17 10:28:28.817573"	"2020-02-17 10:28:29.311023"	25	5.4375243
"S200217"	"Response_Inhibition"	"RIGHT"	"Time_Max_Exceeded"	1500.06336670001	1416.6666695	n/a	n/a	n/a	n/a	n/a	n/a	n/a	"2020-02-17 10:28:30.737534"	"2020-02-17 10:28:32.241102"	26	5.4375243
"S200217"	"Response_Inhibition"	"LEFT"	"LEFT"	505.568099999948	633.3333346	n/a	n/a	n/a	n/a	n/a	n/a	n/a	"2020-02-17 10:28:32.884624"	"2020-02-17 10:28:33.598675"	27	5.4375243
"S200217"	"Response_Inhibition"	"LEFT"	"LEFT"	330.992999999978	1483.3333363	n/a	n/a	n/a	n/a	n/a	n/a	n/a	"2020-02-17 10:28:35.091388"	"2020-02-17 10:28:35.628929"	28	5.4375243
"S200217"	"Response_Inhibition"	"LEFT"	"LEFT"	473.2755	1350.0000027	n/a	n/a	n/a	n/a	n/a	n/a	n/a	"2020-02-17 10:28:36.988899"	"2020-02-17 10:28:37.670340"	29	5.4375243
"S200217"	"Response_Inhibition"	"LEFT"	"LEFT"	515.417800000023	650.0000013	n/a	n/a	n/a	n/a	n/a	n/a	n/a	"2020-02-17 10:28:38.330332"	"2020-02-17 10:28:39.054306"	30	5.4375243
"S200217"	"Response_Inhibition"	"LEFT"	"LEFT"	418.045500500005	816.6666683	n/a	n/a	n/a	n/a	n/a	n/a	n/a	"2020-02-17 10:28:39.880942"	"2020-02-17 10:28:40.509019"	31	5.4375243
"S200217"	"Response_Inhibition"	"LEFT"	"LEFT"	554.77719999999	1316.6666693	n/a	n/a	n/a	n/a	n/a	n/a	n/a	"2020-02-17 10:28:41.835525"	"2020-02-17 10:28:42.597846"	32	5.4375243
"S200217"	"Response_Inhibition"	"RIGHT"	"RIGHT"	272.883433499963	883.3333351	n/a	n/a	n/a	n/a	n/a	n/a	n/a	"2020-02-17 10:28:43.490100"	"2020-02-17 10:28:43.972969"	33	5.4375243
"S200217"	"Response_Inhibition"	"LEFT"	"Time_Max_Exceeded"	1500.05006669998	1433.3333362	n/a	n/a	n/a	n/a	n/a	n/a	n/a	"2020-02-17 10:28:45.414497"	"2020-02-17 10:28:46.918283"	34	5.4375243
"S200217"	"Response_Inhibition"	"RIGHT"	"RIGHT"	390.180499999985	600.0000012	n/a	n/a	n/a	n/a	n/a	n/a	n/a	"2020-02-17 10:28:47.527925"	"2020-02-17 10:28:48.126446"	35	5.4375243
"S200217"	"Response_Inhibition"	"LEFT"	"LEFT"	281.113600000026	533.3333344	n/a	n/a	n/a	n/a	n/a	n/a	n/a	"2020-02-17 10:28:48.668197"	"2020-02-17 10:28:49.158539"	36	5.4375243
"S200217"	"Response_Inhibition"	"RIGHT"	"Time_Max_Exceeded"	1500.05783359998	766.6666682	n/a	n/a	n/a	n/a	n/a	n/a	n/a	"2020-02-17 10:28:49.934485"	"2020-02-17 10:28:51.437369"	37	5.4375243
"S200217"	"Response_Inhibition"	"LEFT"	"LEFT"	366.522167000012	1133.3333356	n/a	n/a	n/a	n/a	n/a	n/a	n/a	"2020-02-17 10:28:52.579573"	"2020-02-17 10:28:53.157309"	38	5.4375243
"S200217"	"Response_Inhibition"	"RIGHT"	"RIGHT"	403.469333800014	1233.3333358	n/a	n/a	n/a	n/a	n/a	n/a	n/a	"2020-02-17 10:28:54.398935"	"2020-02-17 10:28:55.014545"	39	5.4375243
"S200217"	"Response_Inhibition"	"RIGHT"	"RIGHT"	497.953300000006	716.6666681	n/a	n/a	n/a	n/a	n/a	n/a	n/a	"2020-02-17 10:28:55.740342"	"2020-02-17 10:28:56.446496"	40	5.4375243
"S200217"	"Response_Inhibition"	"LEFT"	"LEFT"	332.825300000025	1066.6666688	n/a	n/a	n/a	n/a	n/a	n/a	n/a	"2020-02-17 10:28:57.521293"	"2020-02-17 10:28:58.062458"	41	5.4375243
"S200217"	"Response_Inhibition"	"LEFT"	"LEFT"	372.382666999995	583.3333345	n/a	n/a	n/a	n/a	n/a	n/a	n/a	"2020-02-17 10:28:58.653962"	"2020-02-17 10:28:59.238569"	42	5.4375243
"S200217"	"Response_Inhibition"	"RIGHT"	"RIGHT"	538.665299999991	1500.000003	n/a	n/a	n/a	n/a	n/a	n/a	n/a	"2020-02-17 10:29:00.747450"	"2020-02-17 10:29:01.494365"	43	5.4375243
"S200217"	"Response_Inhibition"	"LEFT"	"LEFT"	480.4034	766.6666682	n/a	n/a	n/a	n/a	n/a	n/a	n/a	"2020-02-17 10:29:02.269279"	"2020-02-17 10:29:02.958598"	44	5.4375243
"S200217"	"Response_Inhibition"	"LEFT"	"Time_Max_Exceeded"	1500.05410019998	1466.6666696	n/a	n/a	n/a	n/a	n/a	n/a	n/a	"2020-02-17 10:29:04.433186"	"2020-02-17 10:29:05.937214"	45	5.4375243
"S200217"	"Response_Inhibition"	"LEFT"	"LEFT"	502.765000000011	516.6666677	n/a	n/a	n/a	n/a	n/a	n/a	n/a	"2020-02-17 10:29:06.463498"	"2020-02-17 10:29:07.173857"	46	5.4375243
"S200217"	"Response_Inhibition"	"LEFT"	"LEFT"	392.676600000016	1366.6666694	n/a	n/a	n/a	n/a	n/a	n/a	n/a	"2020-02-17 10:29:08.548694"	"2020-02-17 10:29:09.150676"	47	5.4375243
"S200217"	"Response_Inhibition"	"RIGHT"	"Time_Max_Exceeded"	1500.05986680001	650.0000013	n/a	n/a	n/a	n/a	n/a	n/a	n/a	"2020-02-17 10:29:09.809235"	"2020-02-17 10:29:11.312750"	48	5.4375243
"S200217"	"Response_Inhibition"	"LEFT"	"LEFT"	304.682200000002	1466.6666696	n/a	n/a	n/a	n/a	n/a	n/a	n/a	"2020-02-17 10:29:12.789201"	"2020-02-17 10:29:13.302018"	49	5.4375243
"S200217"	"Response_Inhibition"	"RIGHT"	"RIGHT"	480.807200000015	1350.0000027	n/a	n/a	n/a	n/a	n/a	n/a	n/a	"2020-02-17 10:29:14.661144"	"2020-02-17 10:29:15.350282"	50	5.4375243
"S200217"	"Response_Inhibition"	"RIGHT"	"Time_Max_Exceeded"	1500.0505004	1450.0000029	n/a	n/a	n/a	n/a	n/a	n/a	n/a	"2020-02-17 10:29:16.808908"	"2020-02-17 10:29:18.312518"	51	5.4375243
"S200217"	"Response_Inhibition"	"RIGHT"	"RIGHT"	506.016100000011	1250.0000025	n/a	n/a	n/a	n/a	n/a	n/a	n/a	"2020-02-17 10:29:19.572323"	"2020-02-17 10:29:20.286413"	52	5.4375243
"S200217"	"Response_Inhibition"	"RIGHT"	"RIGHT"	541.524699999968	633.3333346	n/a	n/a	n/a	n/a	n/a	n/a	n/a	"2020-02-17 10:29:20.927900"	"2020-02-17 10:29:21.677415"	53	5.4375243
"S200217"	"Response_Inhibition"	"RIGHT"	"Time_Max_Exceeded"	1500.05723379999	733.3333348	n/a	n/a	n/a	n/a	n/a	n/a	n/a	"2020-02-17 10:29:22.419479"	"2020-02-17 10:29:23.922787"	54	5.4375243
"S200217"	"Response_Inhibition"	"LEFT"	"LEFT"	325.555699999995	1100.0000022	n/a	n/a	n/a	n/a	n/a	n/a	n/a	"2020-02-17 10:29:25.032593"	"2020-02-17 10:29:25.565049"	55	5.4375243
"S200217"	"Response_Inhibition"	"RIGHT"	"RIGHT"	519.675199999995	1416.6666695	n/a	n/a	n/a	n/a	n/a	n/a	n/a	"2020-02-17 10:29:26.990261"	"2020-02-17 10:29:27.718734"	56	5.4375243
"S200217"	"Response_Inhibition"	"LEFT"	"Time_Max_Exceeded"	1500.05256670003	1300.0000026	n/a	n/a	n/a	n/a	n/a	n/a	n/a	"2020-02-17 10:29:29.026974"	"2020-02-17 10:29:30.530496"	57	5.4375243
"S200217"	"Response_Inhibition"	"LEFT"	"Time_Max_Exceeded"	1500.06540039999	583.3333345	n/a	n/a	n/a	n/a	n/a	n/a	n/a	"2020-02-17 10:29:31.123137"	"2020-02-17 10:29:32.626607"	58	5.4375243
"S200217"	"Response_Inhibition"	"RIGHT"	"RIGHT"	306.183400000009	1016.6666687	n/a	n/a	n/a	n/a	n/a	n/a	n/a	"2020-02-17 10:29:33.651561"	"2020-02-17 10:29:34.166599"	59	5.4375243
"S200217"	"Response_Inhibition"	"LEFT"	"LEFT"	296.896900000036	933.3333352	n/a	n/a	n/a	n/a	n/a	n/a	n/a	"2020-02-17 10:29:35.108683"	"2020-02-17 10:29:35.613851"	60	5.4375243
"S200217"	"Response_Inhibition"	"RIGHT"	"RIGHT"	457.446799999957	950.0000019	n/a	n/a	n/a	n/a	n/a	n/a	n/a	"2020-02-17 10:29:36.572275"	"2020-02-17 10:29:37.238538"	61	5.4375243
"S200217"	"Response_Inhibition"	"RIGHT"	"RIGHT"	380.258599999991	666.666668	n/a	n/a	n/a	n/a	n/a	n/a	n/a	"2020-02-17 10:29:37.913481"	"2020-02-17 10:29:38.500849"	62	5.4375243
"S200217"	"Response_Inhibition"	"RIGHT"	"RIGHT"	663.413800000001	816.6666683	n/a	n/a	n/a	n/a	n/a	n/a	n/a	"2020-02-17 10:29:39.326688"	"2020-02-17 10:29:40.196912"	63	5.4375243
"S200217"	"Response_Inhibition"	"LEFT"	"LEFT"	380.224399999975	900.0000018	n/a	n/a	n/a	n/a	n/a	n/a	n/a	"2020-02-17 10:29:41.105315"	"2020-02-17 10:29:41.693420"	64	5.4375243
"S200217"	"Response_Inhibition"	"RIGHT"	"RIGHT"	422.727399999985	1216.6666691	n/a	n/a	n/a	n/a	n/a	n/a	n/a	"2020-02-17 10:29:42.919220"	"2020-02-17 10:29:43.549264"	65	5.4375243
"S200217"	"Response_Inhibition"	"RIGHT"	"RIGHT"	497.447099999931	566.6666678	n/a	n/a	n/a	n/a	n/a	n/a	n/a	"2020-02-17 10:29:44.124281"	"2020-02-17 10:29:44.829520"	66	5.4375243
"S200217"	"Response_Inhibition"	"LEFT"	"Time_Max_Exceeded"	1500.07066689993	1366.6666694	n/a	n/a	n/a	n/a	n/a	n/a	n/a	"2020-02-17 10:29:46.204468"	"2020-02-17 10:29:47.708128"	67	5.4375243
"S200217"	"Response_Inhibition"	"LEFT"	"Time_Max_Exceeded"	1500.04626680008	1333.333336	n/a	n/a	n/a	n/a	n/a	n/a	n/a	"2020-02-17 10:29:49.051428"	"2020-02-17 10:29:50.554234"	68	5.4375243
"S200217"	"Response_Inhibition"	"LEFT"	"LEFT"	323.963400000025	1150.0000023	n/a	n/a	n/a	n/a	n/a	n/a	n/a	"2020-02-17 10:29:51.713974"	"2020-02-17 10:29:52.245819"	69	5.4375243
"S200217"	"Response_Inhibition"	"LEFT"	"LEFT"	320.495700000038	1166.666669	n/a	n/a	n/a	n/a	n/a	n/a	n/a	"2020-02-17 10:29:53.421509"	"2020-02-17 10:29:53.949572"	70	5.4375243
"S200217"	"Response_Inhibition"	"LEFT"	"Time_Max_Exceeded"	1500.05623379999	533.3333344	n/a	n/a	n/a	n/a	n/a	n/a	n/a	"2020-02-17 10:29:54.491124"	"2020-02-17 10:29:55.995109"	71	5.4375243
"S200217"	"Response_Inhibition"	"RIGHT"	"RIGHT"	442.117899999971	1000.000002	n/a	n/a	n/a	n/a	n/a	n/a	n/a	"2020-02-17 10:29:57.003747"	"2020-02-17 10:29:57.653322"	72	5.4375243
"S200217"	"Response_Inhibition"	"LEFT"	"LEFT"	443.354799999952	1316.6666693	n/a	n/a	n/a	n/a	n/a	n/a	n/a	"2020-02-17 10:29:58.978572"	"2020-02-17 10:29:59.630271"	73	5.4375243
"S200217"	"Response_Inhibition"	"RIGHT"	"Time_Max_Exceeded"	1500.05760030001	1100.0000022	n/a	n/a	n/a	n/a	n/a	n/a	n/a	"2020-02-17 10:30:00.738512"	"2020-02-17 10:30:02.241864"	74	5.4375243
"S200217"	"Response_Inhibition"	"RIGHT"	"RIGHT"	532.337900000016	750.0000015	n/a	n/a	n/a	n/a	n/a	n/a	n/a	"2020-02-17 10:30:03.001617"	"2020-02-17 10:30:03.742076"	75	5.4375243
"S200217"	"Response_Inhibition"	"RIGHT"	"RIGHT"	356.676900000025	1066.6666688	n/a	n/a	n/a	n/a	n/a	n/a	n/a	"2020-02-17 10:30:04.817381"	"2020-02-17 10:30:05.382435"	76	5.4375243
"S200217"	"Response_Inhibition"	"RIGHT"	"RIGHT"	327.18639999996	783.3333349	n/a	n/a	n/a	n/a	n/a	n/a	n/a	"2020-02-17 10:30:06.174575"	"2020-02-17 10:30:06.709022"	77	5.4375243
"S200217"	"Response_Inhibition"	"LEFT"	"LEFT"	626.200199999971	550.0000011	n/a	n/a	n/a	n/a	n/a	n/a	n/a	"2020-02-17 10:30:07.267686"	"2020-02-17 10:30:08.101159"	78	5.4375243
"S200217"	"Response_Inhibition"	"RIGHT"	"RIGHT"	432.280799999944	1183.3333357	n/a	n/a	n/a	n/a	n/a	n/a	n/a	"2020-02-17 10:30:09.293162"	"2020-02-17 10:30:09.934526"	79	5.4375243
"S200217"	"Response_Inhibition"	"RIGHT"	"RIGHT"	443.402099999957	1483.3333363	n/a	n/a	n/a	n/a	n/a	n/a	n/a	"2020-02-17 10:30:11.426562"	"2020-02-17 10:30:12.077085"	80	5.4375243
"S200217"	"Response_Inhibition"	"LEFT"	"LEFT"	328.048999999965	800.0000016	n/a	n/a	n/a	n/a	n/a	n/a	n/a	"2020-02-17 10:30:12.885990"	"2020-02-17 10:30:13.423089"	81	5.4375243
"S200217"	"Response_Inhibition"	"LEFT"	"Time_Max_Exceeded"	1500.06090039995	733.3333348	n/a	n/a	n/a	n/a	n/a	n/a	n/a	"2020-02-17 10:30:14.165420"	"2020-02-17 10:30:15.668785"	82	5.4375243
"S200217"	"Response_Inhibition"	"RIGHT"	"RIGHT"	454.320800000005	1433.3333362	n/a	n/a	n/a	n/a	n/a	n/a	n/a	"2020-02-17 10:30:17.111393"	"2020-02-17 10:30:17.773255"	83	5.4375243
"S200217"	"Response_Inhibition"	"RIGHT"	"RIGHT"	457.119899999952	933.3333352	n/a	n/a	n/a	n/a	n/a	n/a	n/a	"2020-02-17 10:30:18.716390"	"2020-02-17 10:30:19.382212"	84	5.4375243
"S200217"	"Response_Inhibition"	"LEFT"	"LEFT"	476.904799999943	1033.3333354	n/a	n/a	n/a	n/a	n/a	n/a	n/a	"2020-02-17 10:30:20.425015"	"2020-02-17 10:30:21.109205"	85	5.4375243
"S200217"	"Response_Inhibition"	"LEFT"	"LEFT"	380.283867000044	1000.000002	n/a	n/a	n/a	n/a	n/a	n/a	n/a	"2020-02-17 10:30:22.118236"	"2020-02-17 10:30:22.710503"	86	5.4375243
"S200217"	"Response_Inhibition"	"RIGHT"	"RIGHT"	500.184500000046	1466.6666696	n/a	n/a	n/a	n/a	n/a	n/a	n/a	"2020-02-17 10:30:24.185389"	"2020-02-17 10:30:24.894565"	87	5.4375243
"S200217"	"Response_Inhibition"	"RIGHT"	"RIGHT"	434.825000000046	900.0000018	n/a	n/a	n/a	n/a	n/a	n/a	n/a	"2020-02-17 10:30:25.802619"	"2020-02-17 10:30:26.446025"	88	5.4375243
"S200217"	"Response_Inhibition"	"LEFT"	"Time_Max_Exceeded"	1500.06836690004	750.0000015	n/a	n/a	n/a	n/a	n/a	n/a	n/a	"2020-02-17 10:30:27.204748"	"2020-02-17 10:30:28.708433"	89	5.4375243
"S200217"	"Response_Inhibition"	"LEFT"	"Time_Max_Exceeded"	1500.05683349999	883.3333351	n/a	n/a	n/a	n/a	n/a	n/a	n/a	"2020-02-17 10:30:29.600163"	"2020-02-17 10:30:31.103930"	90	5.4375243
"S200217"	"Response_Inhibition"	"LEFT"	"LEFT"	379.350000000045	850.0000017	n/a	n/a	n/a	n/a	n/a	n/a	n/a	"2020-02-17 10:30:31.962433"	"2020-02-17 10:30:32.549285"	91	5.4375243
"S200217"	"Response_Inhibition"	"RIGHT"	"RIGHT"	302.737500000035	1033.3333354	n/a	n/a	n/a	n/a	n/a	n/a	n/a	"2020-02-17 10:30:33.591347"	"2020-02-17 10:30:34.102259"	92	5.4375243
"S200217"	"Response_Inhibition"	"RIGHT"	"RIGHT"	401.237267100029	1050.0000021	n/a	n/a	n/a	n/a	n/a	n/a	n/a	"2020-02-17 10:30:35.162065"	"2020-02-17 10:30:35.774540"	93	5.4375243
"S200217"	"Response_Inhibition"	"RIGHT"	"Time_Max_Exceeded"	1500.06260010002	1150.0000023	n/a	n/a	n/a	n/a	n/a	n/a	n/a	"2020-02-17 10:30:36.933157"	"2020-02-17 10:30:38.437007"	94	5.4375243
"S200217"	"Response_Inhibition"	"RIGHT"	"Time_Max_Exceeded"	1500.050067	850.0000017	n/a	n/a	n/a	n/a	n/a	n/a	n/a	"2020-02-17 10:30:39.296188"	"2020-02-17 10:30:40.799807"	95	5.4375243
"S200217"	"Response_Inhibition"	"RIGHT"	"RIGHT"	467.381600000067	833.333335	n/a	n/a	n/a	n/a	n/a	n/a	n/a	"2020-02-17 10:30:41.642447"	"2020-02-17 10:30:42.318605"	96	5.4375243
"S200217"	"Response_Inhibition"	"LEFT"	"LEFT"	328.078300000016	966.6666686	n/a	n/a	n/a	n/a	n/a	n/a	n/a	"2020-02-17 10:30:43.293708"	"2020-02-17 10:30:43.829705"	97	5.4375243
"S200217"	"Response_Inhibition"	"LEFT"	"LEFT"	440.381399999978	1383.3333361	n/a	n/a	n/a	n/a	n/a	n/a	n/a	"2020-02-17 10:30:45.221776"	"2020-02-17 10:30:45.869669"	98	5.4375243
"S200217"	"Response_Inhibition"	"RIGHT"	"RIGHT"	367.448633799962	1316.6666693	n/a	n/a	n/a	n/a	n/a	n/a	n/a	"2020-02-17 10:30:47.195650"	"2020-02-17 10:30:47.772992"	99	5.4375243
"S200217"	"Response_Inhibition"	"RIGHT"	"RIGHT"	506.649899999957	1316.6666693	n/a	n/a	n/a	n/a	n/a	n/a	n/a	"2020-02-17 10:30:49.099130"	"2020-02-17 10:30:49.814487"	100	5.4375243
"S200217"	"Response_Inhibition"	"LEFT"	"LEFT"	489.265199999977	1116.6666689	n/a	n/a	n/a	n/a	n/a	n/a	n/a	"2020-02-17 10:30:50.940271"	"2020-02-17 10:30:51.637008"	101	5.4375243
"S200217"	"Response_Inhibition"	"LEFT"	"Time_Max_Exceeded"	1500.04793369995	1416.6666695	n/a	n/a	n/a	n/a	n/a	n/a	n/a	"2020-02-17 10:30:53.062161"	"2020-02-17 10:30:54.565481"	102	5.4375243
"S200217"	"Response_Inhibition"	"LEFT"	"LEFT"	441.958999999997	716.6666681	n/a	n/a	n/a	n/a	n/a	n/a	n/a	"2020-02-17 10:30:55.291711"	"2020-02-17 10:30:55.941097"	103	5.4375243
"S200217"	"Response_Inhibition"	"LEFT"	"LEFT"	349.229000000037	683.3333347	n/a	n/a	n/a	n/a	n/a	n/a	n/a	"2020-02-17 10:30:56.632851"	"2020-02-17 10:30:57.190517"	104	5.4375243
"S200217"	"Response_Inhibition"	"LEFT"	"LEFT"	499.79739999992	1450.0000029	n/a	n/a	n/a	n/a	n/a	n/a	n/a	"2020-02-17 10:30:58.650418"	"2020-02-17 10:30:59.357027"	105	5.4375243
"S200217"	"Response_Inhibition"	"RIGHT"	"RIGHT"	376.865099999918	983.3333353	n/a	n/a	n/a	n/a	n/a	n/a	n/a	"2020-02-17 10:31:00.348930"	"2020-02-17 10:31:00.934747"	106	5.4375243
"S200217"	"Response_Inhibition"	"LEFT"	"LEFT"	589.872300000025	600.0000012	n/a	n/a	n/a	n/a	n/a	n/a	n/a	"2020-02-17 10:31:01.543824"	"2020-02-17 10:31:02.341253"	107	5.4375243
"S200217"	"Response_Inhibition"	"LEFT"	"Time_Max_Exceeded"	1500.06206690004	916.6666685	n/a	n/a	n/a	n/a	n/a	n/a	n/a	"2020-02-17 10:31:03.267010"	"2020-02-17 10:31:04.770426"	108	5.4375243
"S200217"	"Response_Inhibition"	"RIGHT"	"Time_Max_Exceeded"	1500.07210019999	1000.000002	n/a	n/a	n/a	n/a	n/a	n/a	n/a	"2020-02-17 10:31:05.779408"	"2020-02-17 10:31:07.283079"	109	5.4375243
"S200217"	"Response_Inhibition"	"LEFT"	"LEFT"	355.473299999971	950.0000019	n/a	n/a	n/a	n/a	n/a	n/a	n/a	"2020-02-17 10:31:08.242549"	"2020-02-17 10:31:08.804910"	110	5.4375243
"S200217"	"Response_Inhibition"	"RIGHT"	"RIGHT"	331.079499999987	516.6666677	n/a	n/a	n/a	n/a	n/a	n/a	n/a	"2020-02-17 10:31:09.330733"	"2020-02-17 10:31:09.870293"	111	5.4375243
"S200217"	"Response_Inhibition"	"RIGHT"	"RIGHT"	393.450299999927	733.3333348	n/a	n/a	n/a	n/a	n/a	n/a	n/a	"2020-02-17 10:31:10.612497"	"2020-02-17 10:31:11.212905"	112	5.4375243
"S200217"	"Response_Inhibition"	"LEFT"	"LEFT"	398.791299999971	1233.3333358	n/a	n/a	n/a	n/a	n/a	n/a	n/a	"2020-02-17 10:31:12.455433"	"2020-02-17 10:31:13.060817"	113	5.4375243
"S200217"	"Response_Inhibition"	"RIGHT"	"RIGHT"	336.568299999954	583.3333345	n/a	n/a	n/a	n/a	n/a	n/a	n/a	"2020-02-17 10:31:13.653396"	"2020-02-17 10:31:14.197422"	114	5.4375243
"S200217"	"Response_Inhibition"	"LEFT"	"LEFT"	590.61070000007	833.333335	n/a	n/a	n/a	n/a	n/a	n/a	n/a	"2020-02-17 10:31:15.038872"	"2020-02-17 10:31:15.838378"	115	5.4375243
"S200217"	"Response_Inhibition"	"LEFT"	"LEFT"	351.663600000052	1183.3333357	n/a	n/a	n/a	n/a	n/a	n/a	n/a	"2020-02-17 10:31:17.030357"	"2020-02-17 10:31:17.590501"	116	5.4375243
"S200217"	"Response_Inhibition"	"RIGHT"	"RIGHT"	447.593100000063	1383.3333361	n/a	n/a	n/a	n/a	n/a	n/a	n/a	"2020-02-17 10:31:18.982060"	"2020-02-17 10:31:19.638362"	117	5.4375243
"S200217"	"Response_Inhibition"	"RIGHT"	"RIGHT"	499.671199999966	683.3333347	n/a	n/a	n/a	n/a	n/a	n/a	n/a	"2020-02-17 10:31:20.330511"	"2020-02-17 10:31:21.038316"	118	5.4375243
"S200217"	"Response_Inhibition"	"LEFT"	"LEFT"	467.111899999963	1266.6666692	n/a	n/a	n/a	n/a	n/a	n/a	n/a	"2020-02-17 10:31:22.314419"	"2020-02-17 10:31:22.988909"	119	5.4375243
"S200217"	"Response_Inhibition"	"LEFT"	"LEFT"	447.543399999972	1416.6666695	n/a	n/a	n/a	n/a	n/a	n/a	n/a	"2020-02-17 10:31:24.414585"	"2020-02-17 10:31:25.070180"	120	5.4375243
"S200217"	"Response_Inhibition"	"LEFT"	"LEFT"	352.27263369992	1083.3333355	n/a	n/a	n/a	n/a	n/a	n/a	n/a	"2020-02-17 10:31:26.162035"	"2020-02-17 10:31:26.725072"	121	5.4375243
"S200217"	"Response_Inhibition"	"RIGHT"	"Time_Max_Exceeded"	1500.05683339994	500.000001	n/a	n/a	n/a	n/a	n/a	n/a	n/a	"2020-02-17 10:31:27.235280"	"2020-02-17 10:31:28.739490"	122	5.4375243
"S200217"	"Response_Inhibition"	"RIGHT"	"RIGHT"	490.330500000027	783.3333349	n/a	n/a	n/a	n/a	n/a	n/a	n/a	"2020-02-17 10:31:29.531427"	"2020-02-17 10:31:30.229901"	123	5.4375243
"S200217"	"Response_Inhibition"	"LEFT"	"LEFT"	335.340500000029	1400.0000028	n/a	n/a	n/a	n/a	n/a	n/a	n/a	"2020-02-17 10:31:31.638008"	"2020-02-17 10:31:32.182478"	124	5.4375243
"S200217"	"Response_Inhibition"	"RIGHT"	"RIGHT"	351.134999999999	1150.0000023	n/a	n/a	n/a	n/a	n/a	n/a	n/a	"2020-02-17 10:31:33.342159"	"2020-02-17 10:31:33.901496"	125	5.4375243
"S200217"	"Response_Inhibition"	"LEFT"	"LEFT"	350.937000000044	1216.6666691	n/a	n/a	n/a	n/a	n/a	n/a	n/a	"2020-02-17 10:31:35.126775"	"2020-02-17 10:31:35.685046"	126	5.4375243
"S200217"	"Response_Inhibition"	"RIGHT"	"RIGHT"	420.072700000105	1116.6666689	n/a	n/a	n/a	n/a	n/a	n/a	n/a	"2020-02-17 10:31:36.809744"	"2020-02-17 10:31:37.437431"	127	5.4375243
"S200217"	"Response_Inhibition"	"RIGHT"	"RIGHT"	527.089600000068	616.6666679	n/a	n/a	n/a	n/a	n/a	n/a	n/a	"2020-02-17 10:31:38.062299"	"2020-02-17 10:31:38.797645"	128	5.4375243
"S200217"	"Response_Inhibition"	"LEFT"	"LEFT"	372.157199999947	1283.3333359	n/a	n/a	n/a	n/a	n/a	n/a	n/a	"2020-02-17 10:31:40.089621"	"2020-02-17 10:31:40.669843"	129	5.4375243
"S200217"	"Response_Inhibition"	"RIGHT"	"Time_Max_Exceeded"	1500.04583339997	1100.0000022	n/a	n/a	n/a	n/a	n/a	n/a	n/a	"2020-02-17 10:31:41.778445"	"2020-02-17 10:31:43.281939"	130	5.4375243
"S200217"	"Response_Inhibition"	"RIGHT"	"RIGHT"	501.29579999998	1333.333336	n/a	n/a	n/a	n/a	n/a	n/a	n/a	"2020-02-17 10:31:44.624518"	"2020-02-17 10:31:45.334603"	131	5.4375243
"S200217"	"Response_Inhibition"	"RIGHT"	"RIGHT"	311.978999999951	1366.6666694	n/a	n/a	n/a	n/a	n/a	n/a	n/a	"2020-02-17 10:31:46.709537"	"2020-02-17 10:31:47.231447"	132	5.4375243
"S200217"	"Response_Inhibition"	"RIGHT"	"RIGHT"	330.736200000047	1083.3333355	n/a	n/a	n/a	n/a	n/a	n/a	n/a	"2020-02-17 10:31:48.322816"	"2020-02-17 10:31:48.862554"	133	5.4375243
"S200217"	"Response_Inhibition"	"RIGHT"	"RIGHT"	307.637567100002	1400.0000028	n/a	n/a	n/a	n/a	n/a	n/a	n/a	"2020-02-17 10:31:50.270694"	"2020-02-17 10:31:50.790578"	134	5.4375243
"S200217"	"Response_Inhibition"	"RIGHT"	"Time_Max_Exceeded"	1500.05780009997	800.0000016	n/a	n/a	n/a	n/a	n/a	n/a	n/a	"2020-02-17 10:31:51.599082"	"2020-02-17 10:31:53.102207"	135	5.4375243
"S200217"	"Response_Inhibition"	"RIGHT"	"RIGHT"	394.70110000002	1283.3333359	n/a	n/a	n/a	n/a	n/a	n/a	n/a	"2020-02-17 10:31:54.394558"	"2020-02-17 10:31:54.997850"	136	5.4375243
"S200217"	"Response_Inhibition"	"LEFT"	"LEFT"	451.17700000003	683.3333347	n/a	n/a	n/a	n/a	n/a	n/a	n/a	"2020-02-17 10:31:55.691005"	"2020-02-17 10:31:56.348988"	137	5.4375243
"S200217"	"Response_Inhibition"	"LEFT"	"LEFT"	490.952300000004	733.3333348	n/a	n/a	n/a	n/a	n/a	n/a	n/a	"2020-02-17 10:31:57.091108"	"2020-02-17 10:31:57.789628"	138	5.4375243
"S200217"	"Response_Inhibition"	"LEFT"	"Time_Max_Exceeded"	1500.08149999996	666.666668	n/a	n/a	n/a	n/a	n/a	n/a	n/a	"2020-02-17 10:31:58.465264"	"2020-02-17 10:31:59.965481"	139	5.4375243
"S200217"	"Response_Inhibition"	"RIGHT"	"RIGHT"	429.091099999937	866.6666684	n/a	n/a	n/a	n/a	n/a	n/a	n/a	"2020-02-17 10:32:00.840316"	"2020-02-17 10:32:01.478456"	140	5.4375243
"S200217"	"Response_Inhibition"	"LEFT"	"Time_Max_Exceeded"	1500.05763370003	950.0000019	n/a	n/a	n/a	n/a	n/a	n/a	n/a	"2020-02-17 10:32:02.437637"	"2020-02-17 10:32:03.941292"	141	5.4375243
"S200217"	"Response_Inhibition"	"RIGHT"	"RIGHT"	335.340633599991	533.3333344	n/a	n/a	n/a	n/a	n/a	n/a	n/a	"2020-02-17 10:32:04.483055"	"2020-02-17 10:32:05.029129"	142	5.4375243
"S200217"	"Response_Inhibition"	"RIGHT"	"RIGHT"	422.340599999984	533.3333344	n/a	n/a	n/a	n/a	n/a	n/a	n/a	"2020-02-17 10:32:05.575244"	"2020-02-17 10:32:06.205209"	143	5.4375243
"S200217"	"Response_Inhibition"	"LEFT"	"LEFT"	457.434799999987	566.6666678	n/a	n/a	n/a	n/a	n/a	n/a	n/a	"2020-02-17 10:32:06.780244"	"2020-02-17 10:32:07.445290"	144	5.4375243
"S200217"	"Response_Inhibition"	"RIGHT"	"RIGHT"	267.522399999962	900.0000018	n/a	n/a	n/a	n/a	n/a	n/a	n/a	"2020-02-17 10:32:08.354397"	"2020-02-17 10:32:08.829159"	145	5.4375243
"S200217"	"Response_Inhibition"	"LEFT"	"LEFT"	395.565199999965	1500.000003	n/a	n/a	n/a	n/a	n/a	n/a	n/a	"2020-02-17 10:32:10.338076"	"2020-02-17 10:32:10.941923"	146	5.4375243
"S200217"	"Response_Inhibition"	"RIGHT"	"Time_Max_Exceeded"	1500.05810009998	916.6666685	n/a	n/a	n/a	n/a	n/a	n/a	n/a	"2020-02-17 10:32:11.867035"	"2020-02-17 10:32:13.370991"	147	5.4375243
"S200217"	"Response_Inhibition"	"LEFT"	"Time_Max_Exceeded"	1500.04540010002	983.3333353	n/a	n/a	n/a	n/a	n/a	n/a	n/a	"2020-02-17 10:32:14.363293"	"2020-02-17 10:32:15.866418"	148	5.4375243
"S200217"	"Response_Inhibition"	"LEFT"	"Time_Max_Exceeded"	1500.0519335999	500.000001	n/a	n/a	n/a	n/a	n/a	n/a	n/a	"2020-02-17 10:32:16.376055"	"2020-02-17 10:32:17.878843"	149	5.4375243
"S200217"	"Response_Inhibition"	"LEFT"	"LEFT"	361.650300000065	1100.0000022	n/a	n/a	n/a	n/a	n/a	n/a	n/a	"2020-02-17 10:32:18.988671"	"2020-02-17 10:32:19.557492"	150	5.4375243
"S200217"	"Response_Inhibition"	"RIGHT"	"RIGHT"	313.8103	950.0000019	n/a	n/a	n/a	n/a	n/a	n/a	n/a	"2020-02-17 10:32:20.516217"	"2020-02-17 10:32:21.037091"	151	5.4375243
"S200217"	"Response_Inhibition"	"RIGHT"	"RIGHT"	499.001999999905	1300.0000026	n/a	n/a	n/a	n/a	n/a	n/a	n/a	"2020-02-17 10:32:22.346540"	"2020-02-17 10:32:23.053659"	152	5.4375243
"S200217"	"Response_Inhibition"	"LEFT"	"Time_Max_Exceeded"	1500.04946669996	1050.0000021	n/a	n/a	n/a	n/a	n/a	n/a	n/a	"2020-02-17 10:32:24.114050"	"2020-02-17 10:32:25.617876"	153	5.4375243
"S200217"	"Response_Inhibition"	"LEFT"	"Time_Max_Exceeded"	1500.06300000007	1216.6666691	n/a	n/a	n/a	n/a	n/a	n/a	n/a	"2020-02-17 10:32:26.844470"	"2020-02-17 10:32:28.344032"	154	5.4375243
"S200217"	"Response_Inhibition"	"LEFT"	"LEFT"	362.359999999967	850.0000017	n/a	n/a	n/a	n/a	n/a	n/a	n/a	"2020-02-17 10:32:29.203598"	"2020-02-17 10:32:29.773335"	155	5.4375243
"S200217"	"Response_Inhibition"	"RIGHT"	"RIGHT"	285.854800399993	966.6666686	n/a	n/a	n/a	n/a	n/a	n/a	n/a	"2020-02-17 10:32:30.748703"	"2020-02-17 10:32:31.245286"	156	5.4375243
"S200217"	"Response_Inhibition"	"LEFT"	"LEFT"	493.052899999952	866.6666684	n/a	n/a	n/a	n/a	n/a	n/a	n/a	"2020-02-17 10:32:32.120565"	"2020-02-17 10:32:32.822369"	157	5.4375243
"S200217"	"Response_Inhibition"	"RIGHT"	"RIGHT"	459.182800000008	683.3333347	n/a	n/a	n/a	n/a	n/a	n/a	n/a	"2020-02-17 10:32:33.514559"	"2020-02-17 10:32:34.182711"	158	5.4375243
"S200217"	"Response_Inhibition"	"LEFT"	"LEFT"	331.85160000005	1050.0000021	n/a	n/a	n/a	n/a	n/a	n/a	n/a	"2020-02-17 10:32:35.242250"	"2020-02-17 10:32:35.782433"	159	5.4375243
"S200217"	"Response_Inhibition"	"RIGHT"	"Time_Max_Exceeded"	1500.05330019997	1266.6666692	n/a	n/a	n/a	n/a	n/a	n/a	n/a	"2020-02-17 10:32:37.058656"	"2020-02-17 10:32:38.561309"	160	5.4375243
"S200217"	"Response_Selection"	"LEFT"	"LEFT"	281.666799999982	533.3333344	n/a	n/a	n/a	n/a	n/a	n/a	n/a	"2020-02-17 10:25:15.132653"	"2020-02-17 10:25:15.620845"	1	2.70787075
"S200217"	"Response_Selection"	"LEFT"	"LEFT"	290.558599999997	550.0000011	n/a	n/a	n/a	n/a	n/a	n/a	n/a	"2020-02-17 10:25:16.179391"	"2020-02-17 10:25:16.677164"	2	2.70787075
"S200217"	"Response_Selection"	"LEFT"	"LEFT"	276.70470000001	1500.000003	n/a	n/a	n/a	n/a	n/a	n/a	n/a	"2020-02-17 10:25:18.185539"	"2020-02-17 10:25:18.668840"	3	2.70787075
"S200217"	"Response_Selection"	"RIGHT"	"RIGHT"	232.503500000007	800.0000016	n/a	n/a	n/a	n/a	n/a	n/a	n/a	"2020-02-17 10:25:19.477731"	"2020-02-17 10:25:19.918556"	4	2.70787075
"S200217"	"Response_Selection"	"LEFT"	"LEFT"	247.781199999991	783.3333349	n/a	n/a	n/a	n/a	n/a	n/a	n/a	"2020-02-17 10:25:20.709921"	"2020-02-17 10:25:21.165885"	5	2.70787075
"S200217"	"Response_Selection"	"RIGHT"	"RIGHT"	250.810400000006	500.000001	n/a	n/a	n/a	n/a	n/a	n/a	n/a	"2020-02-17 10:25:21.675574"	"2020-02-17 10:25:22.133487"	6	2.70787075
"S200217"	"Response_Selection"	"RIGHT"	"RIGHT"	281.403699999998	1366.6666694	n/a	n/a	n/a	n/a	n/a	n/a	n/a	"2020-02-17 10:25:23.508423"	"2020-02-17 10:25:23.997273"	7	2.70787075
"S200217"	"Response_Selection"	"LEFT"	"LEFT"	240.1342	800.0000016	n/a	n/a	n/a	n/a	n/a	n/a	n/a	"2020-02-17 10:25:24.805877"	"2020-02-17 10:25:25.254503"	8	2.70787075
"S200217"	"Response_Selection"	"LEFT"	"LEFT"	242.655599999978	1116.6666689	n/a	n/a	n/a	n/a	n/a	n/a	n/a	"2020-02-17 10:25:26.378904"	"2020-02-17 10:25:26.828988"	9	2.70787075
"S200217"	"Response_Selection"	"LEFT"	"LEFT"	315.718100000026	933.3333352	n/a	n/a	n/a	n/a	n/a	n/a	n/a	"2020-02-17 10:25:27.770683"	"2020-02-17 10:25:28.294122"	10	2.70787075
"S200217"	"Response_Selection"	"LEFT"	"LEFT"	251.841299999967	1083.3333355	n/a	n/a	n/a	n/a	n/a	n/a	n/a	"2020-02-17 10:25:29.386426"	"2020-02-17 10:25:29.845869"	11	2.70787075
"S200217"	"Response_Selection"	"LEFT"	"LEFT"	267.250199999978	1300.0000026	n/a	n/a	n/a	n/a	n/a	n/a	n/a	"2020-02-17 10:25:31.154827"	"2020-02-17 10:25:31.630729"	12	2.70787075
"S200217"	"Response_Selection"	"RIGHT"	"RIGHT"	212.870299999963	1450.0000029	n/a	n/a	n/a	n/a	n/a	n/a	n/a	"2020-02-17 10:25:33.089593"	"2020-02-17 10:25:33.510557"	13	2.70787075
"S200217"	"Response_Selection"	"LEFT"	"LEFT"	241.638099999989	1133.3333356	n/a	n/a	n/a	n/a	n/a	n/a	n/a	"2020-02-17 10:25:34.652178"	"2020-02-17 10:25:35.101612"	14	2.70787075
"S200217"	"Response_Selection"	"LEFT"	"LEFT"	314.438099999961	733.3333348	n/a	n/a	n/a	n/a	n/a	n/a	n/a	"2020-02-17 10:25:35.843287"	"2020-02-17 10:25:36.366459"	15	2.70787075
"S200217"	"Response_Selection"	"RIGHT"	"RIGHT"	225.148199999978	733.3333348	n/a	n/a	n/a	n/a	n/a	n/a	n/a	"2020-02-17 10:25:37.109111"	"2020-02-17 10:25:37.542480"	16	2.70787075
"S200217"	"Response_Selection"	"RIGHT"	"RIGHT"	252.148499999976	866.6666684	n/a	n/a	n/a	n/a	n/a	n/a	n/a	"2020-02-17 10:25:38.417692"	"2020-02-17 10:25:38.878471"	17	2.70787075
"S200217"	"Response_Selection"	"LEFT"	"LEFT"	223.730999999987	1400.0000028	n/a	n/a	n/a	n/a	n/a	n/a	n/a	"2020-02-17 10:25:40.287086"	"2020-02-17 10:25:40.718511"	18	2.70787075
"S200217"	"Response_Selection"	"RIGHT"	"RIGHT"	244.173599999954	1066.6666688	n/a	n/a	n/a	n/a	n/a	n/a	n/a	"2020-02-17 10:25:41.793551"	"2020-02-17 10:25:42.246313"	19	2.70787075
"S200217"	"Response_Selection"	"RIGHT"	"RIGHT"	249.394499999994	1133.3333356	n/a	n/a	n/a	n/a	n/a	n/a	n/a	"2020-02-17 10:25:43.388529"	"2020-02-17 10:25:43.845013"	20	2.70787075
"S200217"	"Response_Selection"	"RIGHT"	"RIGHT"	216.578200000015	1400.0000028	n/a	n/a	n/a	n/a	n/a	n/a	n/a	"2020-02-17 10:25:45.253165"	"2020-02-17 10:25:45.677387"	21	2.70787075
"S200217"	"Response_Selection"	"LEFT"	"LEFT"	233.358399999986	1166.666669	n/a	n/a	n/a	n/a	n/a	n/a	n/a	"2020-02-17 10:25:46.852612"	"2020-02-17 10:25:47.294015"	22	2.70787075
"S200217"	"Response_Selection"	"RIGHT"	"RIGHT"	55.1731000000473	1200.0000024	n/a	n/a	n/a	n/a	n/a	n/a	n/a	"2020-02-17 10:25:48.502460"	"2020-02-17 10:25:48.766244"	23	2.70787075
"S200217"	"Response_Selection"	"RIGHT"	"RIGHT"	306.026599999996	533.3333344	n/a	n/a	n/a	n/a	n/a	n/a	n/a	"2020-02-17 10:25:49.308383"	"2020-02-17 10:25:49.821242"	24	2.70787075
"S200217"	"Response_Selection"	"RIGHT"	"RIGHT"	246.796000000018	833.333335	n/a	n/a	n/a	n/a	n/a	n/a	n/a	"2020-02-17 10:25:50.663240"	"2020-02-17 10:25:51.118032"	25	2.70787075
"S200217"	"Response_Selection"	"RIGHT"	"RIGHT"	266.221099999996	933.3333352	n/a	n/a	n/a	n/a	n/a	n/a	n/a	"2020-02-17 10:25:52.059873"	"2020-02-17 10:25:52.534726"	26	2.70787075
"S200217"	"Response_Selection"	"RIGHT"	"RIGHT"	295.310400000005	783.3333349	n/a	n/a	n/a	n/a	n/a	n/a	n/a	"2020-02-17 10:25:53.326250"	"2020-02-17 10:25:53.829293"	27	2.70787075
"S200217"	"Response_Selection"	"LEFT"	"LEFT"	239.669100000015	1216.6666691	n/a	n/a	n/a	n/a	n/a	n/a	n/a	"2020-02-17 10:25:55.054188"	"2020-02-17 10:25:55.501022"	28	2.70787075
"S200217"	"Response_Selection"	"LEFT"	"LEFT"	309.684800000014	1066.6666688	n/a	n/a	n/a	n/a	n/a	n/a	n/a	"2020-02-17 10:25:56.576315"	"2020-02-17 10:25:57.094524"	29	2.70787075
"S200217"	"Response_Selection"	"LEFT"	"LEFT"	290.895799999987	500.000001	n/a	n/a	n/a	n/a	n/a	n/a	n/a	"2020-02-17 10:25:57.602707"	"2020-02-17 10:25:58.102199"	30	2.70787075
"S200217"	"Response_Selection"	"LEFT"	"LEFT"	277.110100000016	833.333335	n/a	n/a	n/a	n/a	n/a	n/a	n/a	"2020-02-17 10:25:58.945185"	"2020-02-17 10:25:59.430576"	31	2.70787075
"S200217"	"Response_Selection"	"LEFT"	"LEFT"	254.936600000008	1200.0000024	n/a	n/a	n/a	n/a	n/a	n/a	n/a	"2020-02-17 10:26:00.639296"	"2020-02-17 10:26:01.102005"	32	2.70787075
"S200217"	"Response_Selection"	"RIGHT"	"RIGHT"	229.860299999984	1033.3333354	n/a	n/a	n/a	n/a	n/a	n/a	n/a	"2020-02-17 10:26:02.144282"	"2020-02-17 10:26:02.581422"	33	2.70787075
"S200217"	"Response_Selection"	"RIGHT"	"RIGHT"	252.175399999999	1500.000003	n/a	n/a	n/a	n/a	n/a	n/a	n/a	"2020-02-17 10:26:04.089630"	"2020-02-17 10:26:04.550435"	34	2.70787075
"S200217"	"Response_Selection"	"LEFT"	"LEFT"	248.612900000012	1366.6666694	n/a	n/a	n/a	n/a	n/a	n/a	n/a	"2020-02-17 10:26:05.925162"	"2020-02-17 10:26:06.381255"	35	2.70787075
"S200217"	"Response_Selection"	"RIGHT"	"RIGHT"	244.723700000009	683.3333347	n/a	n/a	n/a	n/a	n/a	n/a	n/a	"2020-02-17 10:26:07.073567"	"2020-02-17 10:26:07.525846"	36	2.70787075
"S200217"	"Response_Selection"	"RIGHT"	"RIGHT"	276.377199999956	1083.3333355	n/a	n/a	n/a	n/a	n/a	n/a	n/a	"2020-02-17 10:26:08.617835"	"2020-02-17 10:26:09.101930"	37	2.70787075
"S200217"	"Response_Selection"	"LEFT"	"LEFT"	244.565200000011	1250.0000025	n/a	n/a	n/a	n/a	n/a	n/a	n/a	"2020-02-17 10:26:10.361768"	"2020-02-17 10:26:10.814275"	38	2.70787075
"S200217"	"Response_Selection"	"LEFT"	"LEFT"	267.309800000021	866.6666684	n/a	n/a	n/a	n/a	n/a	n/a	n/a	"2020-02-17 10:26:11.690255"	"2020-02-17 10:26:12.167304"	39	2.70787075
"S200217"	"Response_Selection"	"RIGHT"	"RIGHT"	230.5159	966.6666686	n/a	n/a	n/a	n/a	n/a	n/a	n/a	"2020-02-17 10:26:13.143218"	"2020-02-17 10:26:13.582680"	40	2.70787075
"S200217"	"Response_Selection"	"LEFT"	"LEFT"	223.482700000034	983.3333353	n/a	n/a	n/a	n/a	n/a	n/a	n/a	"2020-02-17 10:26:14.574413"	"2020-02-17 10:26:15.006374"	41	2.70787075
"S200217"	"Response_Selection"	"LEFT"	"LEFT"	262.299100000007	1016.6666687	n/a	n/a	n/a	n/a	n/a	n/a	n/a	"2020-02-17 10:26:16.032070"	"2020-02-17 10:26:16.503605"	42	2.70787075
"S200217"	"Response_Selection"	"LEFT"	"LEFT"	266.964599999994	1266.6666692	n/a	n/a	n/a	n/a	n/a	n/a	n/a	"2020-02-17 10:26:17.779412"	"2020-02-17 10:26:18.253869"	43	2.70787075
"S200217"	"Response_Selection"	"LEFT"	"LEFT"	275.667699999985	700.0000014	n/a	n/a	n/a	n/a	n/a	n/a	n/a	"2020-02-17 10:26:18.962283"	"2020-02-17 10:26:19.444920"	44	2.70787075
"S200217"	"Response_Selection"	"RIGHT"	"RIGHT"	231.769199999974	1416.6666695	n/a	n/a	n/a	n/a	n/a	n/a	n/a	"2020-02-17 10:26:20.870099"	"2020-02-17 10:26:21.309682"	45	2.70787075
"S200217"	"Response_Selection"	"RIGHT"	"RIGHT"	297.974099999976	750.0000015	n/a	n/a	n/a	n/a	n/a	n/a	n/a	"2020-02-17 10:26:22.067735"	"2020-02-17 10:26:22.573296"	46	2.70787075
"S200217"	"Response_Selection"	"LEFT"	"LEFT"	241.938700000048	1350.0000027	n/a	n/a	n/a	n/a	n/a	n/a	n/a	"2020-02-17 10:26:23.932368"	"2020-02-17 10:26:24.381859"	47	2.70787075
"S200217"	"Response_Selection"	"RIGHT"	"RIGHT"	229.096500000026	650.0000013	n/a	n/a	n/a	n/a	n/a	n/a	n/a	"2020-02-17 10:26:25.041052"	"2020-02-17 10:26:25.479059"	48	2.70787075
"S200217"	"Response_Selection"	"RIGHT"	"RIGHT"	243.100699999957	883.3333351	n/a	n/a	n/a	n/a	n/a	n/a	n/a	"2020-02-17 10:26:26.370590"	"2020-02-17 10:26:26.822740"	49	2.70787075
"S200217"	"Response_Selection"	"LEFT"	"LEFT"	256.97439999999	916.6666685	n/a	n/a	n/a	n/a	n/a	n/a	n/a	"2020-02-17 10:26:27.748915"	"2020-02-17 10:26:28.214002"	50	2.70787075
"S200217"	"Response_Selection"	"LEFT"	"LEFT"	264.019599999983	583.3333345	n/a	n/a	n/a	n/a	n/a	n/a	n/a	"2020-02-17 10:26:28.806458"	"2020-02-17 10:26:29.278510"	51	2.70787075
"S200217"	"Response_Selection"	"RIGHT"	"RIGHT"	223.108600000046	1016.6666687	n/a	n/a	n/a	n/a	n/a	n/a	n/a	"2020-02-17 10:26:30.303392"	"2020-02-17 10:26:30.735265"	52	2.70787075
"S200217"	"Response_Selection"	"RIGHT"	"RIGHT"	323.148099999969	1250.0000025	n/a	n/a	n/a	n/a	n/a	n/a	n/a	"2020-02-17 10:26:31.995236"	"2020-02-17 10:26:32.526685"	53	2.70787075
"S200217"	"Response_Selection"	"LEFT"	"LEFT"	262.944100000027	600.0000012	n/a	n/a	n/a	n/a	n/a	n/a	n/a	"2020-02-17 10:26:33.134794"	"2020-02-17 10:26:33.605827"	54	2.70787075
"S200217"	"Response_Selection"	"RIGHT"	"RIGHT"	264.257600000008	583.3333345	n/a	n/a	n/a	n/a	n/a	n/a	n/a	"2020-02-17 10:26:34.197376"	"2020-02-17 10:26:34.669200"	55	2.70787075
"S200217"	"Response_Selection"	"RIGHT"	"RIGHT"	276.127999999972	1300.0000026	n/a	n/a	n/a	n/a	n/a	n/a	n/a	"2020-02-17 10:26:35.977682"	"2020-02-17 10:26:36.462516"	56	2.70787075
"S200217"	"Response_Selection"	"RIGHT"	"RIGHT"	244.228600000042	1466.6666696	n/a	n/a	n/a	n/a	n/a	n/a	n/a	"2020-02-17 10:26:37.938832"	"2020-02-17 10:26:38.390625"	57	2.70787075
"S200217"	"Response_Selection"	"LEFT"	"LEFT"	365.715500000022	633.3333346	n/a	n/a	n/a	n/a	n/a	n/a	n/a	"2020-02-17 10:26:39.031945"	"2020-02-17 10:26:39.604912"	58	2.70787075
"S200217"	"Response_Selection"	"RIGHT"	"RIGHT"	240.571799999998	983.3333353	n/a	n/a	n/a	n/a	n/a	n/a	n/a	"2020-02-17 10:26:40.597277"	"2020-02-17 10:26:41.047370"	59	2.70787075
"S200217"	"Response_Selection"	"RIGHT"	"RIGHT"	263.575599999967	1166.666669	n/a	n/a	n/a	n/a	n/a	n/a	n/a	"2020-02-17 10:26:42.222344"	"2020-02-17 10:26:42.693897"	60	2.70787075
"S200217"	"Response_Selection"	"LEFT"	"LEFT"	233.725100000015	750.0000015	n/a	n/a	n/a	n/a	n/a	n/a	n/a	"2020-02-17 10:26:43.452538"	"2020-02-17 10:26:43.894357"	61	2.70787075
"S200217"	"Response_Selection"	"RIGHT"	"RIGHT"	234.365500000024	916.6666685	n/a	n/a	n/a	n/a	n/a	n/a	n/a	"2020-02-17 10:26:44.819187"	"2020-02-17 10:26:45.261316"	62	2.70787075
"S200217"	"Response_Selection"	"LEFT"	"LEFT"	244.903799999975	683.3333347	n/a	n/a	n/a	n/a	n/a	n/a	n/a	"2020-02-17 10:26:45.953061"	"2020-02-17 10:26:46.405068"	63	2.70787075
"S200217"	"Response_Selection"	"LEFT"	"LEFT"	301.621399999988	650.0000013	n/a	n/a	n/a	n/a	n/a	n/a	n/a	"2020-02-17 10:26:47.064134"	"2020-02-17 10:26:47.574037"	64	2.70787075
"S200217"	"Response_Selection"	"RIGHT"	"RIGHT"	218.694300000038	1316.6666693	n/a	n/a	n/a	n/a	n/a	n/a	n/a	"2020-02-17 10:26:48.899011"	"2020-02-17 10:26:49.326475"	65	2.70787075
"S200217"	"Response_Selection"	"RIGHT"	"RIGHT"	217.127699999992	1350.0000027	n/a	n/a	n/a	n/a	n/a	n/a	n/a	"2020-02-17 10:26:50.684743"	"2020-02-17 10:26:51.110649"	66	2.70787075
"S200217"	"Response_Selection"	"LEFT"	"LEFT"	252.775199999974	1450.0000029	n/a	n/a	n/a	n/a	n/a	n/a	n/a	"2020-02-17 10:26:52.568996"	"2020-02-17 10:26:53.029466"	67	2.70787075
"S200217"	"Response_Selection"	"RIGHT"	"RIGHT"	232.257100000027	600.0000012	n/a	n/a	n/a	n/a	n/a	n/a	n/a	"2020-02-17 10:26:53.638457"	"2020-02-17 10:26:54.078350"	68	2.70787075
"S200217"	"Response_Selection"	"RIGHT"	"RIGHT"	253.89389999998	633.3333346	n/a	n/a	n/a	n/a	n/a	n/a	n/a	"2020-02-17 10:26:54.720265"	"2020-02-17 10:26:55.184419"	69	2.70787075
"S200217"	"Response_Selection"	"LEFT"	"LEFT"	242.365199999995	1466.6666696	n/a	n/a	n/a	n/a	n/a	n/a	n/a	"2020-02-17 10:26:56.659345"	"2020-02-17 10:26:57.109815"	70	2.70787075
"S200217"	"Response_Selection"	"LEFT"	"LEFT"	262.215900000001	1416.6666695	n/a	n/a	n/a	n/a	n/a	n/a	n/a	"2020-02-17 10:26:58.535676"	"2020-02-17 10:26:59.006684"	71	2.70787075
"S200217"	"Response_Selection"	"RIGHT"	"RIGHT"	218.961099999945	700.0000014	n/a	n/a	n/a	n/a	n/a	n/a	n/a	"2020-02-17 10:26:59.714964"	"2020-02-17 10:27:00.140904"	72	2.70787075
"S200217"	"Response_Selection"	"RIGHT"	"RIGHT"	290.56300000002	550.0000011	n/a	n/a	n/a	n/a	n/a	n/a	n/a	"2020-02-17 10:27:00.699525"	"2020-02-17 10:27:01.197818"	73	2.70787075
"S200217"	"Response_Selection"	"LEFT"	"LEFT"	222.475599999996	1033.3333354	n/a	n/a	n/a	n/a	n/a	n/a	n/a	"2020-02-17 10:27:02.239652"	"2020-02-17 10:27:02.669129"	74	2.70787075
"S200217"	"Response_Selection"	"LEFT"	"LEFT"	242.040499999973	966.6666686	n/a	n/a	n/a	n/a	n/a	n/a	n/a	"2020-02-17 10:27:03.644189"	"2020-02-17 10:27:04.094557"	75	2.70787075
"S200217"	"Response_Selection"	"RIGHT"	"RIGHT"	212.079600000038	1266.6666692	n/a	n/a	n/a	n/a	n/a	n/a	n/a	"2020-02-17 10:27:05.370096"	"2020-02-17 10:27:05.790703"	76	2.70787075
"S200217"	"Response_Selection"	"RIGHT"	"RIGHT"	262.127999999962	1216.6666691	n/a	n/a	n/a	n/a	n/a	n/a	n/a	"2020-02-17 10:27:07.016344"	"2020-02-17 10:27:07.485368"	77	2.70787075
"S200217"	"Response_Selection"	"RIGHT"	"RIGHT"	275.519200000019	1116.6666689	n/a	n/a	n/a	n/a	n/a	n/a	n/a	"2020-02-17 10:27:08.610053"	"2020-02-17 10:27:09.093346"	78	2.70787075
"S200217"	"Response_Selection"	"LEFT"	"LEFT"	252.642700000024	883.3333351	n/a	n/a	n/a	n/a	n/a	n/a	n/a	"2020-02-17 10:27:09.985652"	"2020-02-17 10:27:10.445050"	79	2.70787075
"S200217"	"Response_Selection"	"LEFT"	"LEFT"	268.076000000008	1316.6666693	n/a	n/a	n/a	n/a	n/a	n/a	n/a	"2020-02-17 10:27:11.769782"	"2020-02-17 10:27:12.246042"	80	2.70787075
