"Participant"	"Task"	"Stimulus_Side"	"Response"	"RT"	"ITI"	"Previous_Response"	"Previous_RT"	"Stop_Signal"	"Stop_Signal_RT"	"Conflict"	"Cue_Response"	"Cue_Response_RT"	"Trial_Onset"	"Trial_End"	"Trial_Order"	"Duration"
"S210118"	"Conflict_Resolution"	"RIGHT"	"RIGHT"	1159.76510000007	583.3333345	n/a	n/a	n/a	n/a	"True"	n/a	n/a	"2021-01-18 13:46:22.743349"	"2021-01-18 13:46:24.111777"	1	6.59610588333333
"S210118"	"Conflict_Resolution"	"LEFT"	"LEFT"	410.275799999908	1400.0000028	n/a	n/a	n/a	n/a	"False"	n/a	n/a	"2021-01-18 13:46:25.531846"	"2021-01-18 13:46:26.152954"	2	6.59610588333333
"S210118"	"Conflict_Resolution"	"RIGHT"	"RIGHT"	348.721800000021	1283.3333359	n/a	n/a	n/a	n/a	"False"	n/a	n/a	"2021-01-18 13:46:27.458149"	"2021-01-18 13:46:28.014741"	3	6.59610588333333
"S210118"	"Conflict_Resolution"	"RIGHT"	"RIGHT"	387.356300000079	550.0000011	n/a	n/a	n/a	n/a	"False"	n/a	n/a	"2021-01-18 13:46:28.587541"	"2021-01-18 13:46:29.184347"	4	6.59610588333333
"S210118"	"Conflict_Resolution"	"LEFT"	"LEFT"	628.389300000094	900.0000018	n/a	n/a	n/a	n/a	"True"	n/a	n/a	"2021-01-18 13:46:30.106613"	"2021-01-18 13:46:30.943486"	5	6.59610588333333
"S210118"	"Conflict_Resolution"	"LEFT"	"LEFT"	439.545800000019	1050.0000021	n/a	n/a	n/a	n/a	"True"	n/a	n/a	"2021-01-18 13:46:32.015433"	"2021-01-18 13:46:32.665542"	6	6.59610588333333
"S210118"	"Conflict_Resolution"	"LEFT"	"LEFT"	464.499400000022	966.6666686	n/a	n/a	n/a	n/a	"False"	n/a	n/a	"2021-01-18 13:46:33.654469"	"2021-01-18 13:46:34.328259"	7	6.59610588333333
"S210118"	"Conflict_Resolution"	"LEFT"	"RIGHT"	405.003800000031	1466.6666696	n/a	n/a	n/a	n/a	"True"	n/a	n/a	"2021-01-18 13:46:35.817495"	"2021-01-18 13:46:36.431510"	8	6.59610588333333
"S210118"	"Conflict_Resolution"	"LEFT"	"LEFT"	365.249899999981	1316.6666693	n/a	n/a	n/a	n/a	"False"	n/a	n/a	"2021-01-18 13:46:37.769537"	"2021-01-18 13:46:38.343559"	9	6.59610588333333
"S210118"	"Conflict_Resolution"	"RIGHT"	"RIGHT"	722.780499999999	983.3333353	n/a	n/a	n/a	n/a	"True"	n/a	n/a	"2021-01-18 13:46:39.348329"	"2021-01-18 13:46:40.279713"	10	6.59610588333333
"S210118"	"Conflict_Resolution"	"RIGHT"	"RIGHT"	589.550899999949	500.000001	n/a	n/a	n/a	n/a	"True"	n/a	n/a	"2021-01-18 13:46:40.801404"	"2021-01-18 13:46:41.600034"	11	6.59610588333333
"S210118"	"Conflict_Resolution"	"RIGHT"	"RIGHT"	320.910899999944	583.3333345	n/a	n/a	n/a	n/a	"False"	n/a	n/a	"2021-01-18 13:46:42.205505"	"2021-01-18 13:46:42.734690"	12	6.59610588333333
"S210118"	"Conflict_Resolution"	"RIGHT"	"LEFT"	445.30050000003	533.3333344	n/a	n/a	n/a	n/a	"True"	n/a	n/a	"2021-01-18 13:46:43.289804"	"2021-01-18 13:46:43.947598"	13	6.59610588333333
"S210118"	"Conflict_Resolution"	"LEFT"	"LEFT"	552.597300000002	1300.0000026	n/a	n/a	n/a	n/a	"False"	n/a	n/a	"2021-01-18 13:46:45.270580"	"2021-01-18 13:46:46.032115"	14	6.59610588333333
"S210118"	"Conflict_Resolution"	"LEFT"	"LEFT"	393.333699999971	1000.000002	n/a	n/a	n/a	n/a	"False"	n/a	n/a	"2021-01-18 13:46:47.053618"	"2021-01-18 13:46:47.655927"	15	6.59610588333333
"S210118"	"Conflict_Resolution"	"LEFT"	"LEFT"	391.045800000029	666.666668	n/a	n/a	n/a	n/a	"False"	n/a	n/a	"2021-01-18 13:46:48.344038"	"2021-01-18 13:46:48.942618"	16	6.59610588333333
"S210118"	"Conflict_Resolution"	"LEFT"	"LEFT"	442.314600000032	1416.6666695	n/a	n/a	n/a	n/a	"False"	n/a	n/a	"2021-01-18 13:46:50.380696"	"2021-01-18 13:46:51.030457"	17	6.59610588333333
"S210118"	"Conflict_Resolution"	"RIGHT"	"RIGHT"	423.123000000032	1483.3333363	n/a	n/a	n/a	n/a	"False"	n/a	n/a	"2021-01-18 13:46:52.535474"	"2021-01-18 13:46:53.169180"	18	6.59610588333333
"S210118"	"Conflict_Resolution"	"RIGHT"	"RIGHT"	666.68269999991	933.3333352	n/a	n/a	n/a	n/a	"True"	n/a	n/a	"2021-01-18 13:46:54.123685"	"2021-01-18 13:46:54.999464"	19	6.59610588333333
"S210118"	"Conflict_Resolution"	"LEFT"	"LEFT"	445.690099999979	1466.6666696	n/a	n/a	n/a	n/a	"False"	n/a	n/a	"2021-01-18 13:46:56.488464"	"2021-01-18 13:46:57.143931"	20	6.59610588333333
"S210118"	"Conflict_Resolution"	"RIGHT"	"RIGHT"	448.471100000006	1433.3333362	n/a	n/a	n/a	n/a	"False"	n/a	n/a	"2021-01-18 13:46:58.598616"	"2021-01-18 13:46:59.256187"	21	6.59610588333333
"S210118"	"Conflict_Resolution"	"RIGHT"	"RIGHT"	485.549200000037	883.3333351	n/a	n/a	n/a	n/a	"False"	n/a	n/a	"2021-01-18 13:47:00.161581"	"2021-01-18 13:47:00.855370"	22	6.59610588333333
"S210118"	"Conflict_Resolution"	"LEFT"	"LEFT"	681.152199999929	1366.6666694	n/a	n/a	n/a	n/a	"True"	n/a	n/a	"2021-01-18 13:47:02.245452"	"2021-01-18 13:47:03.136364"	23	6.59610588333333
"S210118"	"Conflict_Resolution"	"RIGHT"	"RIGHT"	459.208399999966	733.3333348	n/a	n/a	n/a	n/a	"False"	n/a	n/a	"2021-01-18 13:47:03.891636"	"2021-01-18 13:47:04.558929"	24	6.59610588333333
"S210118"	"Conflict_Resolution"	"RIGHT"	"RIGHT"	501.662600000031	850.0000017	n/a	n/a	n/a	n/a	"False"	n/a	n/a	"2021-01-18 13:47:05.432765"	"2021-01-18 13:47:06.143352"	25	6.59610588333333
"S210118"	"Conflict_Resolution"	"LEFT"	"LEFT"	492.611199999942	1116.6666689	n/a	n/a	n/a	n/a	"False"	n/a	n/a	"2021-01-18 13:47:07.282504"	"2021-01-18 13:47:07.983970"	26	6.59610588333333
"S210118"	"Conflict_Resolution"	"RIGHT"	"RIGHT"	374.019599999997	1100.0000022	n/a	n/a	n/a	n/a	"False"	n/a	n/a	"2021-01-18 13:47:09.104812"	"2021-01-18 13:47:09.690719"	27	6.59610588333333
"S210118"	"Conflict_Resolution"	"LEFT"	"LEFT"	606.32929999997	1416.6666695	n/a	n/a	n/a	n/a	"True"	n/a	n/a	"2021-01-18 13:47:11.128704"	"2021-01-18 13:47:11.943503"	28	6.59610588333333
"S210118"	"Conflict_Resolution"	"RIGHT"	"RIGHT"	620.559100000037	1050.0000021	n/a	n/a	n/a	n/a	"True"	n/a	n/a	"2021-01-18 13:47:13.018469"	"2021-01-18 13:47:13.847578"	29	6.59610588333333
"S210118"	"Conflict_Resolution"	"LEFT"	"LEFT"	610.369199999923	533.3333344	n/a	n/a	n/a	n/a	"True"	n/a	n/a	"2021-01-18 13:47:14.404088"	"2021-01-18 13:47:15.224237"	30	6.59610588333333
"S210118"	"Conflict_Resolution"	"RIGHT"	"RIGHT"	616.497999999979	1383.3333361	n/a	n/a	n/a	n/a	"True"	n/a	n/a	"2021-01-18 13:47:16.630489"	"2021-01-18 13:47:17.454426"	31	6.59610588333333
"S210118"	"Conflict_Resolution"	"LEFT"	"LEFT"	629.173300000048	916.6666685	n/a	n/a	n/a	n/a	"True"	n/a	n/a	"2021-01-18 13:47:18.393740"	"2021-01-18 13:47:19.235457"	32	6.59610588333333
"S210118"	"Conflict_Resolution"	"RIGHT"	"RIGHT"	643.729599999915	1266.6666692	n/a	n/a	n/a	n/a	"True"	n/a	n/a	"2021-01-18 13:47:20.530954"	"2021-01-18 13:47:21.383394"	33	6.59610588333333
"S210118"	"Conflict_Resolution"	"LEFT"	"LEFT"	450.279499999965	1250.0000025	n/a	n/a	n/a	n/a	"False"	n/a	n/a	"2021-01-18 13:47:22.660467"	"2021-01-18 13:47:23.320273"	34	6.59610588333333
"S210118"	"Conflict_Resolution"	"LEFT"	"LEFT"	536.18240000003	1216.6666691	n/a	n/a	n/a	n/a	"False"	n/a	n/a	"2021-01-18 13:47:24.558246"	"2021-01-18 13:47:25.303475"	35	6.59610588333333
"S210118"	"Conflict_Resolution"	"LEFT"	"LEFT"	598.715499999912	1400.0000028	n/a	n/a	n/a	n/a	"True"	n/a	n/a	"2021-01-18 13:47:26.727795"	"2021-01-18 13:47:27.535361"	36	6.59610588333333
"S210118"	"Conflict_Resolution"	"RIGHT"	"RIGHT"	483.477300000004	750.0000015	n/a	n/a	n/a	n/a	"False"	n/a	n/a	"2021-01-18 13:47:28.306866"	"2021-01-18 13:47:29.000316"	37	6.59610588333333
"S210118"	"Conflict_Resolution"	"LEFT"	"LEFT"	510.061199999996	683.3333347	n/a	n/a	n/a	n/a	"True"	n/a	n/a	"2021-01-18 13:47:29.704885"	"2021-01-18 13:47:30.425802"	38	6.59610588333333
"S210118"	"Conflict_Resolution"	"RIGHT"	"RIGHT"	445.249600000011	800.0000016	n/a	n/a	n/a	n/a	"False"	n/a	n/a	"2021-01-18 13:47:31.249822"	"2021-01-18 13:47:31.904899"	39	6.59610588333333
"S210118"	"Conflict_Resolution"	"LEFT"	"LEFT"	555.836499999941	716.6666681	n/a	n/a	n/a	n/a	"True"	n/a	n/a	"2021-01-18 13:47:32.642289"	"2021-01-18 13:47:33.407739"	40	6.59610588333333
"S210118"	"Conflict_Resolution"	"RIGHT"	"RIGHT"	641.684299999952	1333.333336	n/a	n/a	n/a	n/a	"True"	n/a	n/a	"2021-01-18 13:47:34.765112"	"2021-01-18 13:47:35.618665"	41	6.59610588333333
"S210118"	"Conflict_Resolution"	"RIGHT"	"RIGHT"	535.813599999983	1366.6666694	n/a	n/a	n/a	n/a	"True"	n/a	n/a	"2021-01-18 13:47:37.007334"	"2021-01-18 13:47:37.751717"	42	6.59610588333333
"S210118"	"Conflict_Resolution"	"RIGHT"	"RIGHT"	455.299500000024	633.3333346	n/a	n/a	n/a	n/a	"False"	n/a	n/a	"2021-01-18 13:47:38.407392"	"2021-01-18 13:47:39.072182"	43	6.59610588333333
"S210118"	"Conflict_Resolution"	"RIGHT"	"RIGHT"	493.141899999955	1483.3333363	n/a	n/a	n/a	n/a	"True"	n/a	n/a	"2021-01-18 13:47:40.577566"	"2021-01-18 13:47:41.283696"	44	6.59610588333333
"S210118"	"Conflict_Resolution"	"RIGHT"	"RIGHT"	393.167699999935	900.0000018	n/a	n/a	n/a	n/a	"False"	n/a	n/a	"2021-01-18 13:47:42.205590"	"2021-01-18 13:47:42.808517"	45	6.59610588333333
"S210118"	"Conflict_Resolution"	"LEFT"	"LEFT"	608.174000000076	583.3333345	n/a	n/a	n/a	n/a	"True"	n/a	n/a	"2021-01-18 13:47:43.414445"	"2021-01-18 13:47:44.231123"	46	6.59610588333333
"S210118"	"Conflict_Resolution"	"RIGHT"	"RIGHT"	549.859900000001	1100.0000022	n/a	n/a	n/a	n/a	"True"	n/a	n/a	"2021-01-18 13:47:45.352803"	"2021-01-18 13:47:46.110512"	47	6.59610588333333
"S210118"	"Conflict_Resolution"	"RIGHT"	"RIGHT"	595.90199999991	1183.3333357	n/a	n/a	n/a	n/a	"True"	n/a	n/a	"2021-01-18 13:47:47.314584"	"2021-01-18 13:47:48.119387"	48	6.59610588333333
"S210118"	"Conflict_Resolution"	"LEFT"	"LEFT"	566.448599999944	866.6666684	n/a	n/a	n/a	n/a	"True"	n/a	n/a	"2021-01-18 13:47:49.008071"	"2021-01-18 13:47:49.783415"	49	6.59610588333333
"S210118"	"Conflict_Resolution"	"RIGHT"	"RIGHT"	580.647900000031	933.3333352	n/a	n/a	n/a	n/a	"False"	n/a	n/a	"2021-01-18 13:47:50.737706"	"2021-01-18 13:47:51.527564"	50	6.59610588333333
"S210118"	"Conflict_Resolution"	"LEFT"	"LEFT"	408.41649999993	633.3333346	n/a	n/a	n/a	n/a	"False"	n/a	n/a	"2021-01-18 13:47:52.182012"	"2021-01-18 13:47:52.799447"	51	6.59610588333333
"S210118"	"Conflict_Resolution"	"RIGHT"	"RIGHT"	399.878299999955	1233.3333358	n/a	n/a	n/a	n/a	"False"	n/a	n/a	"2021-01-18 13:47:54.055237"	"2021-01-18 13:47:54.664397"	52	6.59610588333333
"S210118"	"Conflict_Resolution"	"LEFT"	"LEFT"	534.672600000022	850.0000017	n/a	n/a	n/a	n/a	"True"	n/a	n/a	"2021-01-18 13:47:55.535537"	"2021-01-18 13:47:56.278770"	53	6.59610588333333
"S210118"	"Conflict_Resolution"	"RIGHT"	"RIGHT"	493.290300000012	533.3333344	n/a	n/a	n/a	n/a	"False"	n/a	n/a	"2021-01-18 13:47:56.833123"	"2021-01-18 13:47:57.535890"	54	6.59610588333333
"S210118"	"Conflict_Resolution"	"RIGHT"	"RIGHT"	509.491900000057	600.0000012	n/a	n/a	n/a	n/a	"False"	n/a	n/a	"2021-01-18 13:47:58.161470"	"2021-01-18 13:47:58.883023"	55	6.59610588333333
"S210118"	"Conflict_Resolution"	"RIGHT"	"RIGHT"	661.101299999928	600.0000012	n/a	n/a	n/a	n/a	"True"	n/a	n/a	"2021-01-18 13:47:59.505610"	"2021-01-18 13:48:00.375795"	56	6.59610588333333
"S210118"	"Conflict_Resolution"	"RIGHT"	"RIGHT"	504.393700000037	1216.6666691	n/a	n/a	n/a	n/a	"True"	n/a	n/a	"2021-01-18 13:48:01.614453"	"2021-01-18 13:48:02.327118"	57	6.59610588333333
"S210118"	"Conflict_Resolution"	"LEFT"	"LEFT"	675.718899999993	1150.0000023	n/a	n/a	n/a	n/a	"True"	n/a	n/a	"2021-01-18 13:48:03.498531"	"2021-01-18 13:48:04.382613"	58	6.59610588333333
"S210118"	"Conflict_Resolution"	"RIGHT"	"RIGHT"	431.275599999935	650.0000013	n/a	n/a	n/a	n/a	"False"	n/a	n/a	"2021-01-18 13:48:05.055547"	"2021-01-18 13:48:05.694386"	59	6.59610588333333
"S210118"	"Conflict_Resolution"	"RIGHT"	"RIGHT"	494.583899999952	500.000001	n/a	n/a	n/a	n/a	"False"	n/a	n/a	"2021-01-18 13:48:06.216154"	"2021-01-18 13:48:06.919584"	60	6.59610588333333
"S210118"	"Conflict_Resolution"	"RIGHT"	"RIGHT"	380.355699999996	950.0000019	n/a	n/a	n/a	n/a	"False"	n/a	n/a	"2021-01-18 13:48:07.890273"	"2021-01-18 13:48:08.480401"	61	6.59610588333333
"S210118"	"Conflict_Resolution"	"RIGHT"	"RIGHT"	616.084000000001	1150.0000023	n/a	n/a	n/a	n/a	"True"	n/a	n/a	"2021-01-18 13:48:09.654420"	"2021-01-18 13:48:10.479525"	62	6.59610588333333
"S210118"	"Conflict_Resolution"	"LEFT"	"LEFT"	457.785899999976	783.3333349	n/a	n/a	n/a	n/a	"False"	n/a	n/a	"2021-01-18 13:48:11.284592"	"2021-01-18 13:48:11.950612"	63	6.59610588333333
"S210118"	"Conflict_Resolution"	"LEFT"	"LEFT"	400.388700000008	866.6666684	n/a	n/a	n/a	n/a	"False"	n/a	n/a	"2021-01-18 13:48:12.837731"	"2021-01-18 13:48:13.448059"	64	6.59610588333333
"S210118"	"Conflict_Resolution"	"RIGHT"	"RIGHT"	503.303200000005	850.0000017	n/a	n/a	n/a	n/a	"True"	n/a	n/a	"2021-01-18 13:48:14.319767"	"2021-01-18 13:48:15.031307"	65	6.59610588333333
"S210118"	"Conflict_Resolution"	"LEFT"	"LEFT"	521.458999999936	783.3333349	n/a	n/a	n/a	n/a	"True"	n/a	n/a	"2021-01-18 13:48:15.837246"	"2021-01-18 13:48:16.567103"	66	6.59610588333333
"S210118"	"Conflict_Resolution"	"RIGHT"	"RIGHT"	510.963100000026	1083.3333355	n/a	n/a	n/a	n/a	"True"	n/a	n/a	"2021-01-18 13:48:17.671877"	"2021-01-18 13:48:18.393138"	67	6.59610588333333
"S210118"	"Conflict_Resolution"	"LEFT"	"LEFT"	554.785700000025	733.3333348	n/a	n/a	n/a	n/a	"True"	n/a	n/a	"2021-01-18 13:48:19.148264"	"2021-01-18 13:48:19.911408"	68	6.59610588333333
"S210118"	"Conflict_Resolution"	"LEFT"	"LEFT"	522.943299999952	966.6666686	n/a	n/a	n/a	n/a	"True"	n/a	n/a	"2021-01-18 13:48:20.899906"	"2021-01-18 13:48:21.631353"	69	6.59610588333333
"S210118"	"Conflict_Resolution"	"LEFT"	"LEFT"	389.763100000096	1500.000003	n/a	n/a	n/a	n/a	"False"	n/a	n/a	"2021-01-18 13:48:23.152451"	"2021-01-18 13:48:23.750514"	70	6.59610588333333
"S210118"	"Conflict_Resolution"	"LEFT"	"LEFT"	486.350600000037	1100.0000022	n/a	n/a	n/a	n/a	"True"	n/a	n/a	"2021-01-18 13:48:24.872394"	"2021-01-18 13:48:25.566924"	71	6.59610588333333
"S210118"	"Conflict_Resolution"	"LEFT"	"LEFT"	510.066000000052	1250.0000025	n/a	n/a	n/a	n/a	"True"	n/a	n/a	"2021-01-18 13:48:26.840209"	"2021-01-18 13:48:27.562185"	72	6.59610588333333
"S210118"	"Conflict_Resolution"	"RIGHT"	"RIGHT"	680.717500000014	1416.6666695	n/a	n/a	n/a	n/a	"False"	n/a	n/a	"2021-01-18 13:48:29.005953"	"2021-01-18 13:48:29.896262"	73	6.59610588333333
"S210118"	"Conflict_Resolution"	"RIGHT"	"RIGHT"	604.286999999999	700.0000014	n/a	n/a	n/a	n/a	"True"	n/a	n/a	"2021-01-18 13:48:30.618491"	"2021-01-18 13:48:31.432452"	74	6.59610588333333
"S210118"	"Conflict_Resolution"	"LEFT"	"LEFT"	466.950300000008	916.6666685	n/a	n/a	n/a	n/a	"False"	n/a	n/a	"2021-01-18 13:48:32.371304"	"2021-01-18 13:48:33.048162"	75	6.59610588333333
"S210118"	"Conflict_Resolution"	"LEFT"	"LEFT"	570.706099999938	816.6666683	n/a	n/a	n/a	n/a	"True"	n/a	n/a	"2021-01-18 13:48:33.892223"	"2021-01-18 13:48:34.671325"	76	6.59610588333333
"S210118"	"Conflict_Resolution"	"RIGHT"	"RIGHT"	606.92019999999	1433.3333362	n/a	n/a	n/a	n/a	"True"	n/a	n/a	"2021-01-18 13:48:36.127612"	"2021-01-18 13:48:36.948825"	77	6.59610588333333
"S210118"	"Conflict_Resolution"	"LEFT"	"LEFT"	463.041900000007	1266.6666692	n/a	n/a	n/a	n/a	"True"	n/a	n/a	"2021-01-18 13:48:38.239730"	"2021-01-18 13:48:38.912899"	78	6.59610588333333
"S210118"	"Conflict_Resolution"	"LEFT"	"LEFT"	479.394599999978	1200.0000024	n/a	n/a	n/a	n/a	"False"	n/a	n/a	"2021-01-18 13:48:40.134999"	"2021-01-18 13:48:40.824174"	79	6.59610588333333
"S210118"	"Conflict_Resolution"	"LEFT"	"LEFT"	407.919099999845	583.3333345	n/a	n/a	n/a	n/a	"False"	n/a	n/a	"2021-01-18 13:48:41.430671"	"2021-01-18 13:48:42.050793"	80	6.59610588333333
"S210118"	"Conflict_Resolution"	"RIGHT"	"RIGHT"	554.980399999977	1416.6666695	n/a	n/a	n/a	n/a	"True"	n/a	n/a	"2021-01-18 13:48:43.491503"	"2021-01-18 13:48:44.255813"	81	6.59610588333333
"S210118"	"Conflict_Resolution"	"LEFT"	"LEFT"	430.602000000135	1166.666669	n/a	n/a	n/a	n/a	"False"	n/a	n/a	"2021-01-18 13:48:45.448335"	"2021-01-18 13:48:46.089611"	82	6.59610588333333
"S210118"	"Conflict_Resolution"	"RIGHT"	"RIGHT"	648.298199999999	900.0000018	n/a	n/a	n/a	n/a	"True"	n/a	n/a	"2021-01-18 13:48:47.014088"	"2021-01-18 13:48:47.872571"	83	6.59610588333333
"S210118"	"Conflict_Resolution"	"RIGHT"	"RIGHT"	542.287299999998	783.3333349	n/a	n/a	n/a	n/a	"False"	n/a	n/a	"2021-01-18 13:48:48.680533"	"2021-01-18 13:48:49.434295"	84	6.59610588333333
"S210118"	"Conflict_Resolution"	"LEFT"	"LEFT"	615.135499999951	1316.6666693	n/a	n/a	n/a	n/a	"True"	n/a	n/a	"2021-01-18 13:48:50.775617"	"2021-01-18 13:48:51.601088"	85	6.59610588333333
"S210118"	"Conflict_Resolution"	"LEFT"	"LEFT"	520.189799999798	1350.0000027	n/a	n/a	n/a	n/a	"True"	n/a	n/a	"2021-01-18 13:48:52.974433"	"2021-01-18 13:48:53.705280"	86	6.59610588333333
"S210118"	"Conflict_Resolution"	"RIGHT"	"RIGHT"	402.906700000131	1266.6666692	n/a	n/a	n/a	n/a	"False"	n/a	n/a	"2021-01-18 13:48:54.995340"	"2021-01-18 13:48:55.611315"	87	6.59610588333333
"S210118"	"Conflict_Resolution"	"RIGHT"	"RIGHT"	587.511200000108	1000.000002	n/a	n/a	n/a	n/a	"True"	n/a	n/a	"2021-01-18 13:48:56.635195"	"2021-01-18 13:48:57.432723"	88	6.59610588333333
"S210118"	"Conflict_Resolution"	"LEFT"	"LEFT"	545.21950000003	716.6666681	n/a	n/a	n/a	n/a	"False"	n/a	n/a	"2021-01-18 13:48:58.173314"	"2021-01-18 13:48:58.928346"	89	6.59610588333333
"S210118"	"Conflict_Resolution"	"LEFT"	"LEFT"	591.739800000141	1500.000003	n/a	n/a	n/a	n/a	"True"	n/a	n/a	"2021-01-18 13:49:00.454321"	"2021-01-18 13:49:01.257865"	90	6.59610588333333
"S210118"	"Conflict_Resolution"	"RIGHT"	"RIGHT"	567.454100000077	1033.3333354	n/a	n/a	n/a	n/a	"True"	n/a	n/a	"2021-01-18 13:49:02.319223"	"2021-01-18 13:49:03.097177"	91	6.59610588333333
"S210118"	"Conflict_Resolution"	"RIGHT"	"RIGHT"	395.139599999993	1150.0000023	n/a	n/a	n/a	n/a	"False"	n/a	n/a	"2021-01-18 13:49:04.275221"	"2021-01-18 13:49:04.880929"	92	6.59610588333333
"S210118"	"Conflict_Resolution"	"RIGHT"	"RIGHT"	383.035300000074	1183.3333357	n/a	n/a	n/a	n/a	"False"	n/a	n/a	"2021-01-18 13:49:06.087335"	"2021-01-18 13:49:06.680370"	93	6.59610588333333
"S210118"	"Conflict_Resolution"	"LEFT"	"LEFT"	526.150400000006	1200.0000024	n/a	n/a	n/a	n/a	"True"	n/a	n/a	"2021-01-18 13:49:07.904465"	"2021-01-18 13:49:08.645752"	94	6.59610588333333
"S210118"	"Conflict_Resolution"	"RIGHT"	"RIGHT"	626.66749999994	733.3333348	n/a	n/a	n/a	n/a	"True"	n/a	n/a	"2021-01-18 13:49:09.403576"	"2021-01-18 13:49:10.241044"	95	6.59610588333333
"S210118"	"Conflict_Resolution"	"RIGHT"	"RIGHT"	488.386700000092	700.0000014	n/a	n/a	n/a	n/a	"False"	n/a	n/a	"2021-01-18 13:49:10.966282"	"2021-01-18 13:49:11.665041"	96	6.59610588333333
"S210118"	"Conflict_Resolution"	"RIGHT"	"RIGHT"	414.517599999954	1333.333336	n/a	n/a	n/a	n/a	"False"	n/a	n/a	"2021-01-18 13:49:13.024137"	"2021-01-18 13:49:13.649013"	97	6.59610588333333
"S210118"	"Conflict_Resolution"	"RIGHT"	"RIGHT"	507.794699999977	650.0000013	n/a	n/a	n/a	n/a	"True"	n/a	n/a	"2021-01-18 13:49:14.330581"	"2021-01-18 13:49:15.048945"	98	6.59610588333333
"S210118"	"Conflict_Resolution"	"RIGHT"	"RIGHT"	591.383600000199	683.3333347	n/a	n/a	n/a	n/a	"False"	n/a	n/a	"2021-01-18 13:49:15.759008"	"2021-01-18 13:49:16.560320"	99	6.59610588333333
"S210118"	"Conflict_Resolution"	"RIGHT"	"RIGHT"	503.284200000053	1466.6666696	n/a	n/a	n/a	n/a	"True"	n/a	n/a	"2021-01-18 13:49:18.055042"	"2021-01-18 13:49:18.768574"	100	6.59610588333333
"S210118"	"Conflict_Resolution"	"LEFT"	"LEFT"	496.685999999954	533.3333344	n/a	n/a	n/a	n/a	"False"	n/a	n/a	"2021-01-18 13:49:19.325591"	"2021-01-18 13:49:20.032420"	101	6.59610588333333
"S210118"	"Conflict_Resolution"	"RIGHT"	"RIGHT"	522.069999999985	750.0000015	n/a	n/a	n/a	n/a	"True"	n/a	n/a	"2021-01-18 13:49:20.804001"	"2021-01-18 13:49:21.537029"	102	6.59610588333333
"S210118"	"Conflict_Resolution"	"LEFT"	"LEFT"	492.725999999948	1016.6666687	n/a	n/a	n/a	n/a	"False"	n/a	n/a	"2021-01-18 13:49:22.577390"	"2021-01-18 13:49:23.280307"	103	6.59610588333333
"S210118"	"Conflict_Resolution"	"LEFT"	"LEFT"	699.103600000171	1016.6666687	n/a	n/a	n/a	n/a	"True"	n/a	n/a	"2021-01-18 13:49:24.323390"	"2021-01-18 13:49:25.232255"	104	6.59610588333333
"S210118"	"Conflict_Resolution"	"LEFT"	"LEFT"	743.092200000092	633.3333346	n/a	n/a	n/a	n/a	"True"	n/a	n/a	"2021-01-18 13:49:25.887024"	"2021-01-18 13:49:26.838424"	105	6.59610588333333
"S210118"	"Conflict_Resolution"	"LEFT"	"LEFT"	431.313000000046	1066.6666688	n/a	n/a	n/a	n/a	"False"	n/a	n/a	"2021-01-18 13:49:27.926865"	"2021-01-18 13:49:28.567604"	106	6.59610588333333
"S210118"	"Conflict_Resolution"	"RIGHT"	"RIGHT"	702.907599999889	633.3333346	n/a	n/a	n/a	n/a	"True"	n/a	n/a	"2021-01-18 13:49:29.223736"	"2021-01-18 13:49:30.134559"	107	6.59610588333333
"S210118"	"Conflict_Resolution"	"RIGHT"	"RIGHT"	566.499199999953	833.333335	n/a	n/a	n/a	n/a	"True"	n/a	n/a	"2021-01-18 13:49:30.991494"	"2021-01-18 13:49:31.766405"	108	6.59610588333333
"S210118"	"Conflict_Resolution"	"RIGHT"	"RIGHT"	416.775300000154	1216.6666691	n/a	n/a	n/a	n/a	"False"	n/a	n/a	"2021-01-18 13:49:33.005214"	"2021-01-18 13:49:33.637589"	109	6.59610588333333
"S210118"	"Conflict_Resolution"	"RIGHT"	"RIGHT"	444.648400000005	1316.6666693	n/a	n/a	n/a	n/a	"False"	n/a	n/a	"2021-01-18 13:49:34.977656"	"2021-01-18 13:49:35.632152"	110	6.59610588333333
"S210118"	"Conflict_Resolution"	"LEFT"	"LEFT"	653.615299999956	666.666668	n/a	n/a	n/a	n/a	"True"	n/a	n/a	"2021-01-18 13:49:36.321359"	"2021-01-18 13:49:37.183712"	111	6.59610588333333
"S210118"	"Conflict_Resolution"	"LEFT"	"LEFT"	359.572999999955	816.6666683	n/a	n/a	n/a	n/a	"False"	n/a	n/a	"2021-01-18 13:49:38.023187"	"2021-01-18 13:49:38.594900"	112	6.59610588333333
"S210118"	"Conflict_Resolution"	"LEFT"	"LEFT"	414.068899999847	1000.000002	n/a	n/a	n/a	n/a	"True"	n/a	n/a	"2021-01-18 13:49:39.616471"	"2021-01-18 13:49:40.239498"	113	6.59610588333333
"S210118"	"Conflict_Resolution"	"LEFT"	"LEFT"	355.905899999925	950.0000019	n/a	n/a	n/a	n/a	"False"	n/a	n/a	"2021-01-18 13:49:41.210424"	"2021-01-18 13:49:41.775716"	114	6.59610588333333
"S210118"	"Conflict_Resolution"	"LEFT"	"LEFT"	474.425900000142	950.0000019	n/a	n/a	n/a	n/a	"True"	n/a	n/a	"2021-01-18 13:49:42.747801"	"2021-01-18 13:49:43.432276"	115	6.59610588333333
"S210118"	"Conflict_Resolution"	"RIGHT"	"RIGHT"	618.022800000062	950.0000019	n/a	n/a	n/a	n/a	"True"	n/a	n/a	"2021-01-18 13:49:44.404175"	"2021-01-18 13:49:45.232288"	116	6.59610588333333
"S210118"	"Conflict_Resolution"	"RIGHT"	"RIGHT"	543.534800000089	800.0000016	n/a	n/a	n/a	n/a	"True"	n/a	n/a	"2021-01-18 13:49:46.055287"	"2021-01-18 13:49:46.809090"	117	6.59610588333333
"S210118"	"Conflict_Resolution"	"LEFT"	"LEFT"	568.206099999998	766.6666682	n/a	n/a	n/a	n/a	"False"	n/a	n/a	"2021-01-18 13:49:47.597920"	"2021-01-18 13:49:48.374595"	118	6.59610588333333
"S210118"	"Conflict_Resolution"	"LEFT"	"LEFT"	501.126000000113	1116.6666689	n/a	n/a	n/a	n/a	"True"	n/a	n/a	"2021-01-18 13:49:49.513202"	"2021-01-18 13:49:50.223653"	119	6.59610588333333
"S210118"	"Conflict_Resolution"	"LEFT"	"LEFT"	394.661499999984	1366.6666694	n/a	n/a	n/a	n/a	"False"	n/a	n/a	"2021-01-18 13:49:51.611571"	"2021-01-18 13:49:52.214660"	120	6.59610588333333
"S210118"	"Conflict_Resolution"	"RIGHT"	"RIGHT"	447.018000000071	1050.0000021	n/a	n/a	n/a	n/a	"False"	n/a	n/a	"2021-01-18 13:49:53.287235"	"2021-01-18 13:49:53.945395"	121	6.59610588333333
"S210118"	"Conflict_Resolution"	"RIGHT"	"RIGHT"	568.927600000052	1133.3333356	n/a	n/a	n/a	n/a	"True"	n/a	n/a	"2021-01-18 13:49:55.101693"	"2021-01-18 13:49:55.879656"	122	6.59610588333333
"S210118"	"Conflict_Resolution"	"RIGHT"	"RIGHT"	430.836399999862	833.333335	n/a	n/a	n/a	n/a	"False"	n/a	n/a	"2021-01-18 13:49:56.736166"	"2021-01-18 13:49:57.374335"	123	6.59610588333333
"S210118"	"Conflict_Resolution"	"RIGHT"	"RIGHT"	670.85730000008	883.3333351	n/a	n/a	n/a	n/a	"True"	n/a	n/a	"2021-01-18 13:49:58.279186"	"2021-01-18 13:49:59.159399"	124	6.59610588333333
"S210118"	"Conflict_Resolution"	"LEFT"	"LEFT"	450.415300000031	566.6666678	n/a	n/a	n/a	n/a	"False"	n/a	n/a	"2021-01-18 13:49:59.747912"	"2021-01-18 13:50:00.408918"	125	6.59610588333333
"S210118"	"Conflict_Resolution"	"LEFT"	"LEFT"	341.667299999926	850.0000017	n/a	n/a	n/a	n/a	"False"	n/a	n/a	"2021-01-18 13:50:01.280404"	"2021-01-18 13:50:01.831620"	126	6.59610588333333
"S210118"	"Conflict_Resolution"	"LEFT"	"LEFT"	341.837799999894	1266.6666692	n/a	n/a	n/a	n/a	"False"	n/a	n/a	"2021-01-18 13:50:03.121035"	"2021-01-18 13:50:03.672295"	127	6.59610588333333
"S210118"	"Conflict_Resolution"	"LEFT"	"LEFT"	433.08920000004	516.6666677	n/a	n/a	n/a	n/a	"False"	n/a	n/a	"2021-01-18 13:50:04.213369"	"2021-01-18 13:50:04.855541"	128	6.59610588333333
"S210118"	"Conflict_Resolution"	"RIGHT"	"RIGHT"	565.806700000167	1233.3333358	n/a	n/a	n/a	n/a	"True"	n/a	n/a	"2021-01-18 13:50:06.112501"	"2021-01-18 13:50:06.887524"	129	6.59610588333333
"S210118"	"Conflict_Resolution"	"LEFT"	"LEFT"	413.513100000046	1100.0000022	n/a	n/a	n/a	n/a	"False"	n/a	n/a	"2021-01-18 13:50:08.008660"	"2021-01-18 13:50:08.632179"	130	6.59610588333333
"S210118"	"Conflict_Resolution"	"RIGHT"	"RIGHT"	581.15910000015	683.3333347	n/a	n/a	n/a	n/a	"True"	n/a	n/a	"2021-01-18 13:50:09.337100"	"2021-01-18 13:50:10.128608"	131	6.59610588333333
"S210118"	"Conflict_Resolution"	"LEFT"	"LEFT"	577.06179999991	1166.666669	n/a	n/a	n/a	n/a	"True"	n/a	n/a	"2021-01-18 13:50:11.317427"	"2021-01-18 13:50:12.103308"	132	6.59610588333333
"S210118"	"Conflict_Resolution"	"RIGHT"	"RIGHT"	426.774999999907	1383.3333361	n/a	n/a	n/a	n/a	"False"	n/a	n/a	"2021-01-18 13:50:13.507748"	"2021-01-18 13:50:14.143820"	133	6.59610588333333
"S210118"	"Conflict_Resolution"	"RIGHT"	"RIGHT"	675.261899999896	550.0000011	n/a	n/a	n/a	n/a	"True"	n/a	n/a	"2021-01-18 13:50:14.715256"	"2021-01-18 13:50:15.600233"	134	6.59610588333333
"S210118"	"Conflict_Resolution"	"RIGHT"	"RIGHT"	362.587800000028	1133.3333356	n/a	n/a	n/a	n/a	"False"	n/a	n/a	"2021-01-18 13:50:16.755465"	"2021-01-18 13:50:17.330736"	135	6.59610588333333
"S210118"	"Conflict_Resolution"	"LEFT"	"LEFT"	448.266099999955	1150.0000023	n/a	n/a	n/a	n/a	"False"	n/a	n/a	"2021-01-18 13:50:18.502343"	"2021-01-18 13:50:19.159407"	136	6.59610588333333
"S210118"	"Conflict_Resolution"	"LEFT"	"LEFT"	664.1932	1216.6666691	n/a	n/a	n/a	n/a	"True"	n/a	n/a	"2021-01-18 13:50:20.398418"	"2021-01-18 13:50:21.271532"	137	6.59610588333333
"S210118"	"Conflict_Resolution"	"LEFT"	"LEFT"	388.229600000159	900.0000018	n/a	n/a	n/a	n/a	"False"	n/a	n/a	"2021-01-18 13:50:22.194125"	"2021-01-18 13:50:22.796771"	138	6.59610588333333
"S210118"	"Conflict_Resolution"	"LEFT"	"LEFT"	370.454400000199	616.6666679	n/a	n/a	n/a	n/a	"False"	n/a	n/a	"2021-01-18 13:50:23.436124"	"2021-01-18 13:50:24.015597"	139	6.59610588333333
"S210118"	"Conflict_Resolution"	"RIGHT"	"RIGHT"	479.766000000154	1033.3333354	n/a	n/a	n/a	n/a	"False"	n/a	n/a	"2021-01-18 13:50:25.071090"	"2021-01-18 13:50:25.760251"	140	6.59610588333333
"S210118"	"Conflict_Resolution"	"RIGHT"	"RIGHT"	485.619199999974	1466.6666696	n/a	n/a	n/a	n/a	"False"	n/a	n/a	"2021-01-18 13:50:27.248516"	"2021-01-18 13:50:27.943032"	141	6.59610588333333
"S210118"	"Conflict_Resolution"	"RIGHT"	"RIGHT"	368.173399999932	983.3333353	n/a	n/a	n/a	n/a	"False"	n/a	n/a	"2021-01-18 13:50:28.950302"	"2021-01-18 13:50:29.527335"	142	6.59610588333333
"S210118"	"Conflict_Resolution"	"LEFT"	"LEFT"	484.896899999967	1300.0000026	n/a	n/a	n/a	n/a	"True"	n/a	n/a	"2021-01-18 13:50:30.849433"	"2021-01-18 13:50:31.544230"	143	6.59610588333333
"S210118"	"Conflict_Resolution"	"LEFT"	"LEFT"	423.44490000005	1450.0000029	n/a	n/a	n/a	n/a	"False"	n/a	n/a	"2021-01-18 13:50:33.014957"	"2021-01-18 13:50:33.649477"	144	6.59610588333333
"S210118"	"Conflict_Resolution"	"RIGHT"	"RIGHT"	453.570000000127	1000.000002	n/a	n/a	n/a	n/a	"False"	n/a	n/a	"2021-01-18 13:50:34.672833"	"2021-01-18 13:50:35.334822"	145	6.59610588333333
"S210118"	"Conflict_Resolution"	"RIGHT"	"LEFT"	445.032600000104	1283.3333359	n/a	n/a	n/a	n/a	"True"	n/a	n/a	"2021-01-18 13:50:36.641727"	"2021-01-18 13:50:37.296101"	146	6.59610588333333
"S210118"	"Conflict_Resolution"	"LEFT"	"LEFT"	681.590200000073	566.6666678	n/a	n/a	n/a	n/a	"True"	n/a	n/a	"2021-01-18 13:50:37.885129"	"2021-01-18 13:50:38.774687"	147	6.59610588333333
"S210118"	"Conflict_Resolution"	"RIGHT"	"RIGHT"	517.286900000045	1316.6666693	n/a	n/a	n/a	n/a	"True"	n/a	n/a	"2021-01-18 13:50:40.113525"	"2021-01-18 13:50:40.838998"	148	6.59610588333333
"S210118"	"Conflict_Resolution"	"LEFT"	"LEFT"	569.461700000147	616.6666679	n/a	n/a	n/a	n/a	"True"	n/a	n/a	"2021-01-18 13:50:41.477454"	"2021-01-18 13:50:42.254328"	149	6.59610588333333
"S210118"	"Conflict_Resolution"	"RIGHT"	"RIGHT"	402.724399999897	1366.6666694	n/a	n/a	n/a	n/a	"False"	n/a	n/a	"2021-01-18 13:50:43.643492"	"2021-01-18 13:50:44.254401"	150	6.59610588333333
"S210118"	"Conflict_Resolution"	"LEFT"	"LEFT"	504.760599999827	1450.0000029	n/a	n/a	n/a	n/a	"True"	n/a	n/a	"2021-01-18 13:50:45.725178"	"2021-01-18 13:50:46.438992"	151	6.59610588333333
"S210118"	"Conflict_Resolution"	"LEFT"	"LEFT"	467.001900000014	766.6666682	n/a	n/a	n/a	n/a	"True"	n/a	n/a	"2021-01-18 13:50:47.227383"	"2021-01-18 13:50:47.903320"	152	6.59610588333333
"S210118"	"Conflict_Resolution"	"RIGHT"	"RIGHT"	405.73419999987	1083.3333355	n/a	n/a	n/a	n/a	"False"	n/a	n/a	"2021-01-18 13:50:49.008958"	"2021-01-18 13:50:49.624003"	153	6.59610588333333
"S210118"	"Conflict_Resolution"	"LEFT"	"LEFT"	389.56619999999	683.3333347	n/a	n/a	n/a	n/a	"False"	n/a	n/a	"2021-01-18 13:50:50.328498"	"2021-01-18 13:50:50.927749"	154	6.59610588333333
"S210118"	"Conflict_Resolution"	"LEFT"	"LEFT"	387.107599999808	1350.0000027	n/a	n/a	n/a	n/a	"False"	n/a	n/a	"2021-01-18 13:50:52.299125"	"2021-01-18 13:50:52.895541"	155	6.59610588333333
"S210118"	"Conflict_Resolution"	"LEFT"	"LEFT"	510.335700000041	1066.6666688	n/a	n/a	n/a	n/a	"True"	n/a	n/a	"2021-01-18 13:50:53.984061"	"2021-01-18 13:50:54.702975"	156	6.59610588333333
"S210118"	"Conflict_Resolution"	"LEFT"	"LEFT"	404.374299999972	733.3333348	n/a	n/a	n/a	n/a	"False"	n/a	n/a	"2021-01-18 13:50:55.457892"	"2021-01-18 13:50:56.071867"	157	6.59610588333333
"S210118"	"Conflict_Resolution"	"RIGHT"	"RIGHT"	641.206800000191	783.3333349	n/a	n/a	n/a	n/a	"True"	n/a	n/a	"2021-01-18 13:50:56.877041"	"2021-01-18 13:50:57.727018"	158	6.59610588333333
"S210118"	"Conflict_Resolution"	"LEFT"	"LEFT"	343.68500000005	1050.0000021	n/a	n/a	n/a	n/a	"False"	n/a	n/a	"2021-01-18 13:50:58.798555"	"2021-01-18 13:50:59.351490"	159	6.59610588333333
"S210118"	"Conflict_Resolution"	"LEFT"	"LEFT"	603.584400000045	516.6666677	n/a	n/a	n/a	n/a	"True"	n/a	n/a	"2021-01-18 13:50:59.891083"	"2021-01-18 13:51:00.703011"	160	6.59610588333333
"S210118"	"Processing_Speed"	"RIGHT"	"DOWN"	586.974800000007	733.3333348	n/a	n/a	n/a	n/a	n/a	n/a	n/a	"2021-01-18 13:34:09.436021"	"2021-01-18 13:34:10.241155"	1	2.26082063333333
"S210118"	"Processing_Speed"	"RIGHT"	"DOWN"	359.271800000016	916.6666685	n/a	n/a	n/a	n/a	n/a	n/a	n/a	"2021-01-18 13:34:11.168683"	"2021-01-18 13:34:11.736459"	2	2.26082063333333
"S210118"	"Processing_Speed"	"LEFT"	"DOWN"	237.470099999996	1150.0000023	n/a	n/a	n/a	n/a	n/a	n/a	n/a	"2021-01-18 13:34:12.898649"	"2021-01-18 13:34:13.346130"	3	2.26082063333333
"S210118"	"Processing_Speed"	"LEFT"	"DOWN"	295.371899999992	500.000001	n/a	n/a	n/a	n/a	n/a	n/a	n/a	"2021-01-18 13:34:13.855835"	"2021-01-18 13:34:14.359908"	4	2.26082063333333
"S210118"	"Processing_Speed"	"LEFT"	"DOWN"	258.327599999973	1083.3333355	n/a	n/a	n/a	n/a	n/a	n/a	n/a	"2021-01-18 13:34:15.453404"	"2021-01-18 13:34:15.919853"	5	2.26082063333333
"S210118"	"Processing_Speed"	"RIGHT"	"DOWN"	280.719500000004	533.3333344	n/a	n/a	n/a	n/a	n/a	n/a	n/a	"2021-01-18 13:34:16.462443"	"2021-01-18 13:34:16.952338"	6	2.26082063333333
"S210118"	"Processing_Speed"	"RIGHT"	"DOWN"	289.967000000019	1083.3333355	n/a	n/a	n/a	n/a	n/a	n/a	n/a	"2021-01-18 13:34:18.045293"	"2021-01-18 13:34:18.545183"	7	2.26082063333333
"S210118"	"Processing_Speed"	"RIGHT"	"DOWN"	209.687799999983	816.6666683	n/a	n/a	n/a	n/a	n/a	n/a	n/a	"2021-01-18 13:34:19.374089"	"2021-01-18 13:34:19.791327"	8	2.26082063333333
"S210118"	"Processing_Speed"	"LEFT"	"DOWN"	229.927599999996	1433.3333362	n/a	n/a	n/a	n/a	n/a	n/a	n/a	"2021-01-18 13:34:21.234177"	"2021-01-18 13:34:21.673343"	9	2.26082063333333
"S210118"	"Processing_Speed"	"LEFT"	"DOWN"	299.735500000025	1016.6666687	n/a	n/a	n/a	n/a	n/a	n/a	n/a	"2021-01-18 13:34:22.699779"	"2021-01-18 13:34:23.209569"	10	2.26082063333333
"S210118"	"Processing_Speed"	"RIGHT"	"DOWN"	250.058799999977	1400.0000028	n/a	n/a	n/a	n/a	n/a	n/a	n/a	"2021-01-18 13:34:24.621690"	"2021-01-18 13:34:25.079985"	11	2.26082063333333
"S210118"	"Processing_Speed"	"RIGHT"	"DOWN"	311.283400000008	950.0000019	n/a	n/a	n/a	n/a	n/a	n/a	n/a	"2021-01-18 13:34:26.040224"	"2021-01-18 13:34:26.560243"	12	2.26082063333333
"S210118"	"Processing_Speed"	"RIGHT"	"DOWN"	306.8423	1050.0000021	n/a	n/a	n/a	n/a	n/a	n/a	n/a	"2021-01-18 13:34:27.621044"	"2021-01-18 13:34:28.137214"	13	2.26082063333333
"S210118"	"Processing_Speed"	"RIGHT"	"DOWN"	283.253599999995	1016.6666687	n/a	n/a	n/a	n/a	n/a	n/a	n/a	"2021-01-18 13:34:29.164422"	"2021-01-18 13:34:29.656237"	14	2.26082063333333
"S210118"	"Processing_Speed"	"LEFT"	"DOWN"	244.226199999986	600.0000012	n/a	n/a	n/a	n/a	n/a	n/a	n/a	"2021-01-18 13:34:30.267216"	"2021-01-18 13:34:30.720317"	15	2.26082063333333
"S210118"	"Processing_Speed"	"LEFT"	"DOWN"	247.087499999992	1116.6666689	n/a	n/a	n/a	n/a	n/a	n/a	n/a	"2021-01-18 13:34:31.848127"	"2021-01-18 13:34:32.303599"	16	2.26082063333333
"S210118"	"Processing_Speed"	"RIGHT"	"DOWN"	238.75000000001	983.3333353	n/a	n/a	n/a	n/a	n/a	n/a	n/a	"2021-01-18 13:34:33.296954"	"2021-01-18 13:34:33.745145"	17	2.26082063333333
"S210118"	"Processing_Speed"	"RIGHT"	"DOWN"	279.121000000004	1500.000003	n/a	n/a	n/a	n/a	n/a	n/a	n/a	"2021-01-18 13:34:35.255891"	"2021-01-18 13:34:35.743536"	18	2.26082063333333
"S210118"	"Processing_Speed"	"LEFT"	"DOWN"	306.860400000005	666.666668	n/a	n/a	n/a	n/a	n/a	n/a	n/a	"2021-01-18 13:34:36.420470"	"2021-01-18 13:34:36.938156"	19	2.26082063333333
"S210118"	"Processing_Speed"	"LEFT"	"DOWN"	270.1706	1500.000003	n/a	n/a	n/a	n/a	n/a	n/a	n/a	"2021-01-18 13:34:38.449518"	"2021-01-18 13:34:38.932642"	20	2.26082063333333
"S210118"	"Processing_Speed"	"LEFT"	"DOWN"	237.86419999999	1466.6666696	n/a	n/a	n/a	n/a	n/a	n/a	n/a	"2021-01-18 13:34:40.409594"	"2021-01-18 13:34:40.855458"	21	2.26082063333333
"S210118"	"Processing_Speed"	"LEFT"	"DOWN"	279.989700000016	916.6666685	n/a	n/a	n/a	n/a	n/a	n/a	n/a	"2021-01-18 13:34:41.783845"	"2021-01-18 13:34:42.273093"	22	2.26082063333333
"S210118"	"Processing_Speed"	"RIGHT"	"DOWN"	274.254000000013	633.3333346	n/a	n/a	n/a	n/a	n/a	n/a	n/a	"2021-01-18 13:34:42.917524"	"2021-01-18 13:34:43.399424"	23	2.26082063333333
"S210118"	"Processing_Speed"	"LEFT"	"DOWN"	228.765500000009	1216.6666691	n/a	n/a	n/a	n/a	n/a	n/a	n/a	"2021-01-18 13:34:44.627003"	"2021-01-18 13:34:45.063435"	24	2.26082063333333
"S210118"	"Processing_Speed"	"RIGHT"	"DOWN"	254.220199999992	1183.3333357	n/a	n/a	n/a	n/a	n/a	n/a	n/a	"2021-01-18 13:34:46.257315"	"2021-01-18 13:34:46.719807"	25	2.26082063333333
"S210118"	"Processing_Speed"	"LEFT"	"DOWN"	288.151699999986	700.0000014	n/a	n/a	n/a	n/a	n/a	n/a	n/a	"2021-01-18 13:34:47.431178"	"2021-01-18 13:34:47.927329"	26	2.26082063333333
"S210118"	"Processing_Speed"	"LEFT"	"DOWN"	277.4584	1400.0000028	n/a	n/a	n/a	n/a	n/a	n/a	n/a	"2021-01-18 13:34:49.338334"	"2021-01-18 13:34:49.824370"	27	2.26082063333333
"S210118"	"Processing_Speed"	"LEFT"	"DOWN"	268.849899999992	950.0000019	n/a	n/a	n/a	n/a	n/a	n/a	n/a	"2021-01-18 13:34:50.786847"	"2021-01-18 13:34:51.265845"	28	2.26082063333333
"S210118"	"Processing_Speed"	"LEFT"	"DOWN"	227.496299999984	983.3333353	n/a	n/a	n/a	n/a	n/a	n/a	n/a	"2021-01-18 13:34:52.259495"	"2021-01-18 13:34:52.695914"	29	2.26082063333333
"S210118"	"Processing_Speed"	"RIGHT"	"DOWN"	289.118000000002	666.666668	n/a	n/a	n/a	n/a	n/a	n/a	n/a	"2021-01-18 13:34:53.374575"	"2021-01-18 13:34:53.873373"	30	2.26082063333333
"S210118"	"Processing_Speed"	"LEFT"	"DOWN"	225.024999999988	883.3333351	n/a	n/a	n/a	n/a	n/a	n/a	n/a	"2021-01-18 13:34:54.766197"	"2021-01-18 13:34:55.199613"	31	2.26082063333333
"S210118"	"Processing_Speed"	"RIGHT"	"DOWN"	242.917800000015	600.0000012	n/a	n/a	n/a	n/a	n/a	n/a	n/a	"2021-01-18 13:34:55.812082"	"2021-01-18 13:34:56.264001"	32	2.26082063333333
"S210118"	"Processing_Speed"	"RIGHT"	"DOWN"	235.708100000011	883.3333351	n/a	n/a	n/a	n/a	n/a	n/a	n/a	"2021-01-18 13:34:57.156911"	"2021-01-18 13:34:57.602225"	33	2.26082063333333
"S210118"	"Processing_Speed"	"RIGHT"	"DOWN"	325.366099999997	1333.333336	n/a	n/a	n/a	n/a	n/a	n/a	n/a	"2021-01-18 13:34:58.945789"	"2021-01-18 13:34:59.479369"	34	2.26082063333333
"S210118"	"Processing_Speed"	"RIGHT"	"DOWN"	250.2925	1466.6666696	n/a	n/a	n/a	n/a	n/a	n/a	n/a	"2021-01-18 13:35:00.957123"	"2021-01-18 13:35:01.417201"	35	2.26082063333333
"S210118"	"Processing_Speed"	"LEFT"	"DOWN"	266.561199999984	633.3333346	n/a	n/a	n/a	n/a	n/a	n/a	n/a	"2021-01-18 13:35:02.061778"	"2021-01-18 13:35:02.536741"	36	2.26082063333333
"S210118"	"Processing_Speed"	"LEFT"	"DOWN"	268.812099999991	1366.6666694	n/a	n/a	n/a	n/a	n/a	n/a	n/a	"2021-01-18 13:35:03.914576"	"2021-01-18 13:35:04.391436"	37	2.26082063333333
"S210118"	"Processing_Speed"	"RIGHT"	"DOWN"	208.6501	1116.6666689	n/a	n/a	n/a	n/a	n/a	n/a	n/a	"2021-01-18 13:35:05.518163"	"2021-01-18 13:35:05.937712"	38	2.26082063333333
"S210118"	"Processing_Speed"	"RIGHT"	"DOWN"	270.3329	1266.6666692	n/a	n/a	n/a	n/a	n/a	n/a	n/a	"2021-01-18 13:35:07.217316"	"2021-01-18 13:35:07.696179"	39	2.26082063333333
"S210118"	"Processing_Speed"	"LEFT"	"DOWN"	214.8684	1333.333336	n/a	n/a	n/a	n/a	n/a	n/a	n/a	"2021-01-18 13:35:09.040556"	"2021-01-18 13:35:09.464162"	40	2.26082063333333
"S210118"	"Processing_Speed"	"RIGHT"	"DOWN"	218.785399999973	1216.6666691	n/a	n/a	n/a	n/a	n/a	n/a	n/a	"2021-01-18 13:35:10.692175"	"2021-01-18 13:35:11.120550"	41	2.26082063333333
"S210118"	"Processing_Speed"	"LEFT"	"DOWN"	333.120500000007	566.6666678	n/a	n/a	n/a	n/a	n/a	n/a	n/a	"2021-01-18 13:35:11.698387"	"2021-01-18 13:35:12.240326"	42	2.26082063333333
"S210118"	"Processing_Speed"	"RIGHT"	"DOWN"	252.14840000001	783.3333349	n/a	n/a	n/a	n/a	n/a	n/a	n/a	"2021-01-18 13:35:13.035621"	"2021-01-18 13:35:13.500446"	43	2.26082063333333
"S210118"	"Processing_Speed"	"LEFT"	"DOWN"	258.725699999985	733.3333348	n/a	n/a	n/a	n/a	n/a	n/a	n/a	"2021-01-18 13:35:14.245090"	"2021-01-18 13:35:14.713119"	44	2.26082063333333
"S210118"	"Processing_Speed"	"LEFT"	"DOWN"	228.552699999995	783.3333349	n/a	n/a	n/a	n/a	n/a	n/a	n/a	"2021-01-18 13:35:15.506295"	"2021-01-18 13:35:15.943335"	45	2.26082063333333
"S210118"	"Processing_Speed"	"RIGHT"	"DOWN"	226.020500000004	700.0000014	n/a	n/a	n/a	n/a	n/a	n/a	n/a	"2021-01-18 13:35:16.653489"	"2021-01-18 13:35:17.092329"	46	2.26082063333333
"S210118"	"Processing_Speed"	"LEFT"	"DOWN"	269.599099999994	1266.6666692	n/a	n/a	n/a	n/a	n/a	n/a	n/a	"2021-01-18 13:35:18.370508"	"2021-01-18 13:35:18.848451"	47	2.26082063333333
"S210118"	"Processing_Speed"	"LEFT"	"DOWN"	264.874900000024	1300.0000026	n/a	n/a	n/a	n/a	n/a	n/a	n/a	"2021-01-18 13:35:20.158163"	"2021-01-18 13:35:20.632166"	48	2.26082063333333
"S210118"	"Processing_Speed"	"RIGHT"	"DOWN"	246.787500000011	1366.6666694	n/a	n/a	n/a	n/a	n/a	n/a	n/a	"2021-01-18 13:35:22.008476"	"2021-01-18 13:35:22.463564"	49	2.26082063333333
"S210118"	"Processing_Speed"	"LEFT"	"DOWN"	260.07709999999	850.0000017	n/a	n/a	n/a	n/a	n/a	n/a	n/a	"2021-01-18 13:35:23.323630"	"2021-01-18 13:35:23.791638"	50	2.26082063333333
"S210118"	"Processing_Speed"	"RIGHT"	"DOWN"	254.333700000018	566.6666678	n/a	n/a	n/a	n/a	n/a	n/a	n/a	"2021-01-18 13:35:24.369491"	"2021-01-18 13:35:24.833008"	51	2.26082063333333
"S210118"	"Processing_Speed"	"RIGHT"	"DOWN"	239.69679999999	500.000001	n/a	n/a	n/a	n/a	n/a	n/a	n/a	"2021-01-18 13:35:25.343316"	"2021-01-18 13:35:25.792662"	52	2.26082063333333
"S210118"	"Processing_Speed"	"RIGHT"	"DOWN"	246.398800000009	1150.0000023	n/a	n/a	n/a	n/a	n/a	n/a	n/a	"2021-01-18 13:35:26.952783"	"2021-01-18 13:35:27.409195"	53	2.26082063333333
"S210118"	"Processing_Speed"	"LEFT"	"DOWN"	269.125299999985	533.3333344	n/a	n/a	n/a	n/a	n/a	n/a	n/a	"2021-01-18 13:35:27.954188"	"2021-01-18 13:35:28.433064"	54	2.26082063333333
"S210118"	"Processing_Speed"	"RIGHT"	"DOWN"	227.279899999985	1433.3333362	n/a	n/a	n/a	n/a	n/a	n/a	n/a	"2021-01-18 13:35:29.875883"	"2021-01-18 13:35:30.313434"	55	2.26082063333333
"S210118"	"Processing_Speed"	"RIGHT"	"DOWN"	263.524100000012	1300.0000026	n/a	n/a	n/a	n/a	n/a	n/a	n/a	"2021-01-18 13:35:31.623918"	"2021-01-18 13:35:32.096714"	56	2.26082063333333
"S210118"	"Processing_Speed"	"LEFT"	"DOWN"	228.352999999998	816.6666683	n/a	n/a	n/a	n/a	n/a	n/a	n/a	"2021-01-18 13:35:32.924095"	"2021-01-18 13:35:33.360561"	57	2.26082063333333
"S210118"	"Processing_Speed"	"RIGHT"	"DOWN"	226.081800000003	850.0000017	n/a	n/a	n/a	n/a	n/a	n/a	n/a	"2021-01-18 13:35:34.221050"	"2021-01-18 13:35:34.656249"	58	2.26082063333333
"S210118"	"Processing_Speed"	"LEFT"	"DOWN"	210.069099999998	1050.0000021	n/a	n/a	n/a	n/a	n/a	n/a	n/a	"2021-01-18 13:35:35.717148"	"2021-01-18 13:35:36.136931"	59	2.26082063333333
"S210118"	"Processing_Speed"	"LEFT"	"DOWN"	276.742000000013	1183.3333357	n/a	n/a	n/a	n/a	n/a	n/a	n/a	"2021-01-18 13:35:37.330979"	"2021-01-18 13:35:37.816475"	60	2.26082063333333
"S210118"	"Response_Inhibition"	"RIGHT"	"RIGHT"	735.055999999986	1200.0000024	n/a	n/a	n/a	n/a	n/a	n/a	n/a	"2021-01-18 13:39:28.687898"	"2021-01-18 13:39:29.631914"	1	5.8319774
"S210118"	"Response_Inhibition"	"LEFT"	"LEFT"	318.769833499992	1250.0000025	n/a	n/a	n/a	n/a	n/a	n/a	n/a	"2021-01-18 13:39:30.892641"	"2021-01-18 13:39:31.425192"	2	5.8319774
"S210118"	"Response_Inhibition"	"RIGHT"	"RIGHT"	309.571099999971	1350.0000027	n/a	n/a	n/a	n/a	n/a	n/a	n/a	"2021-01-18 13:39:32.785195"	"2021-01-18 13:39:33.304378"	3	5.8319774
"S210118"	"Response_Inhibition"	"LEFT"	"LEFT"	384.752800000001	700.0000014	n/a	n/a	n/a	n/a	n/a	n/a	n/a	"2021-01-18 13:39:34.014301"	"2021-01-18 13:39:34.611865"	4	5.8319774
"S210118"	"Response_Inhibition"	"LEFT"	"LEFT"	430.056666799981	1366.6666694	n/a	n/a	n/a	n/a	n/a	n/a	n/a	"2021-01-18 13:39:35.989634"	"2021-01-18 13:39:36.633191"	5	5.8319774
"S210118"	"Response_Inhibition"	"RIGHT"	"RIGHT"	434.175299999993	1433.3333362	n/a	n/a	n/a	n/a	n/a	n/a	n/a	"2021-01-18 13:39:38.076903"	"2021-01-18 13:39:38.719610"	6	5.8319774
"S210118"	"Response_Inhibition"	"RIGHT"	"RIGHT"	337.925900000016	1266.6666692	n/a	n/a	n/a	n/a	n/a	n/a	n/a	"2021-01-18 13:39:39.996875"	"2021-01-18 13:39:40.544047"	7	5.8319774
"S210118"	"Response_Inhibition"	"RIGHT"	"RIGHT"	407.622199999992	1100.0000022	n/a	n/a	n/a	n/a	n/a	n/a	n/a	"2021-01-18 13:39:41.654984"	"2021-01-18 13:39:42.271679"	8	5.8319774
"S210118"	"Response_Inhibition"	"RIGHT"	"RIGHT"	354.216066699943	1366.6666694	n/a	n/a	n/a	n/a	n/a	n/a	n/a	"2021-01-18 13:39:43.648874"	"2021-01-18 13:39:44.216708"	9	5.8319774
"S210118"	"Response_Inhibition"	"RIGHT"	"RIGHT"	591.213767199961	1016.6666687	n/a	n/a	n/a	n/a	n/a	n/a	n/a	"2021-01-18 13:39:45.244265"	"2021-01-18 13:39:46.048558"	10	5.8319774
"S210118"	"Response_Inhibition"	"RIGHT"	"RIGHT"	533.107700000016	1383.3333361	n/a	n/a	n/a	n/a	n/a	n/a	n/a	"2021-01-18 13:39:47.441879"	"2021-01-18 13:39:48.183863"	11	5.8319774
"S210118"	"Response_Inhibition"	"RIGHT"	"RIGHT"	571.266799999989	1050.0000021	n/a	n/a	n/a	n/a	n/a	n/a	n/a	"2021-01-18 13:39:49.244153"	"2021-01-18 13:39:50.023665"	12	5.8319774
"S210118"	"Response_Inhibition"	"RIGHT"	"RIGHT"	737.736400000017	683.3333347	n/a	n/a	n/a	n/a	n/a	n/a	n/a	"2021-01-18 13:39:50.717170"	"2021-01-18 13:39:51.663853"	13	5.8319774
"S210118"	"Response_Inhibition"	"RIGHT"	"Time_Max_Exceeded"	1500.08006670002	1466.6666696	n/a	n/a	n/a	n/a	n/a	n/a	n/a	"2021-01-18 13:39:53.140918"	"2021-01-18 13:39:54.644941"	14	5.8319774
"S210118"	"Response_Inhibition"	"LEFT"	"LEFT"	503.589800000043	583.3333345	n/a	n/a	n/a	n/a	n/a	n/a	n/a	"2021-01-18 13:39:55.239083"	"2021-01-18 13:39:55.954017"	15	5.8319774
"S210118"	"Response_Inhibition"	"LEFT"	"LEFT"	449.926367200008	1316.6666693	n/a	n/a	n/a	n/a	n/a	n/a	n/a	"2021-01-18 13:39:57.281125"	"2021-01-18 13:39:57.942715"	16	5.8319774
"S210118"	"Response_Inhibition"	"RIGHT"	"RIGHT"	516.932800000006	833.333335	n/a	n/a	n/a	n/a	n/a	n/a	n/a	"2021-01-18 13:39:58.785636"	"2021-01-18 13:39:59.511995"	17	5.8319774
"S210118"	"Response_Inhibition"	"RIGHT"	"RIGHT"	540.109700000016	800.0000016	n/a	n/a	n/a	n/a	n/a	n/a	n/a	"2021-01-18 13:40:00.323025"	"2021-01-18 13:40:01.073922"	18	5.8319774
"S210118"	"Response_Inhibition"	"RIGHT"	"RIGHT"	524.09849999998	1366.6666694	n/a	n/a	n/a	n/a	n/a	n/a	n/a	"2021-01-18 13:40:02.450682"	"2021-01-18 13:40:03.183881"	19	5.8319774
"S210118"	"Response_Inhibition"	"LEFT"	"LEFT"	678.935299999978	950.0000019	n/a	n/a	n/a	n/a	n/a	n/a	n/a	"2021-01-18 13:40:04.143802"	"2021-01-18 13:40:05.031807"	20	5.8319774
"S210118"	"Response_Inhibition"	"RIGHT"	"RIGHT"	392.959000000019	900.0000018	n/a	n/a	n/a	n/a	n/a	n/a	n/a	"2021-01-18 13:40:05.942009"	"2021-01-18 13:40:06.544082"	21	5.8319774
"S210118"	"Response_Inhibition"	"RIGHT"	"RIGHT"	519.768499999998	1283.3333359	n/a	n/a	n/a	n/a	n/a	n/a	n/a	"2021-01-18 13:40:07.839674"	"2021-01-18 13:40:08.567912"	22	5.8319774
"S210118"	"Response_Inhibition"	"RIGHT"	"Time_Max_Exceeded"	1500.08739999998	866.6666684	n/a	n/a	n/a	n/a	n/a	n/a	n/a	"2021-01-18 13:40:09.445706"	"2021-01-18 13:40:10.946382"	23	5.8319774
"S210118"	"Response_Inhibition"	"LEFT"	"LEFT"	546.467899999925	583.3333345	n/a	n/a	n/a	n/a	n/a	n/a	n/a	"2021-01-18 13:40:11.540081"	"2021-01-18 13:40:12.297358"	24	5.8319774
"S210118"	"Response_Inhibition"	"RIGHT"	"RIGHT"	435.794900000019	533.3333344	n/a	n/a	n/a	n/a	n/a	n/a	n/a	"2021-01-18 13:40:12.843589"	"2021-01-18 13:40:13.488821"	25	5.8319774
"S210118"	"Response_Inhibition"	"RIGHT"	"Time_Max_Exceeded"	1500.05406680002	1266.6666692	n/a	n/a	n/a	n/a	n/a	n/a	n/a	"2021-01-18 13:40:14.765106"	"2021-01-18 13:40:16.269590"	26	5.8319774
"S210118"	"Response_Inhibition"	"LEFT"	"Time_Max_Exceeded"	1500.05546699997	900.0000018	n/a	n/a	n/a	n/a	n/a	n/a	n/a	"2021-01-18 13:40:17.179834"	"2021-01-18 13:40:18.683292"	27	5.8319774
"S210118"	"Response_Inhibition"	"LEFT"	"LEFT"	494.10469999998	1233.3333358	n/a	n/a	n/a	n/a	n/a	n/a	n/a	"2021-01-18 13:40:19.928877"	"2021-01-18 13:40:20.632226"	28	5.8319774
"S210118"	"Response_Inhibition"	"RIGHT"	"RIGHT"	358.453700000041	1116.6666689	n/a	n/a	n/a	n/a	n/a	n/a	n/a	"2021-01-18 13:40:21.760142"	"2021-01-18 13:40:22.328022"	29	5.8319774
"S210118"	"Response_Inhibition"	"RIGHT"	"Time_Max_Exceeded"	1500.07000040001	716.6666681	n/a	n/a	n/a	n/a	n/a	n/a	n/a	"2021-01-18 13:40:23.054925"	"2021-01-18 13:40:24.560068"	30	5.8319774
"S210118"	"Response_Inhibition"	"LEFT"	"LEFT"	374.622199999976	1100.0000022	n/a	n/a	n/a	n/a	n/a	n/a	n/a	"2021-01-18 13:40:25.672287"	"2021-01-18 13:40:26.256782"	31	5.8319774
"S210118"	"Response_Inhibition"	"RIGHT"	"RIGHT"	330.492800000002	1233.3333358	n/a	n/a	n/a	n/a	n/a	n/a	n/a	"2021-01-18 13:40:27.500530"	"2021-01-18 13:40:28.040317"	32	5.8319774
"S210118"	"Response_Inhibition"	"RIGHT"	"Time_Max_Exceeded"	1500.05680009997	916.6666685	n/a	n/a	n/a	n/a	n/a	n/a	n/a	"2021-01-18 13:40:28.967399"	"2021-01-18 13:40:30.471790"	33	5.8319774
"S210118"	"Response_Inhibition"	"LEFT"	"LEFT"	449.445299999979	1483.3333363	n/a	n/a	n/a	n/a	n/a	n/a	n/a	"2021-01-18 13:40:31.965440"	"2021-01-18 13:40:32.624772"	34	5.8319774
"S210118"	"Response_Inhibition"	"LEFT"	"LEFT"	454.751600600054	650.0000013	n/a	n/a	n/a	n/a	n/a	n/a	n/a	"2021-01-18 13:40:33.284663"	"2021-01-18 13:40:33.956039"	35	5.8319774
"S210118"	"Response_Inhibition"	"RIGHT"	"RIGHT"	456.769000000008	1000.000002	n/a	n/a	n/a	n/a	n/a	n/a	n/a	"2021-01-18 13:40:34.966740"	"2021-01-18 13:40:35.633285"	36	5.8319774
"S210118"	"Response_Inhibition"	"LEFT"	"LEFT"	469.017099999974	1150.0000023	n/a	n/a	n/a	n/a	n/a	n/a	n/a	"2021-01-18 13:40:36.793936"	"2021-01-18 13:40:37.473166"	37	5.8319774
"S210118"	"Response_Inhibition"	"RIGHT"	"RIGHT"	506.579700599907	1133.3333356	n/a	n/a	n/a	n/a	n/a	n/a	n/a	"2021-01-18 13:40:38.617096"	"2021-01-18 13:40:39.335713"	38	5.8319774
"S210118"	"Response_Inhibition"	"RIGHT"	"Time_Max_Exceeded"	1500.05583380001	1400.0000028	n/a	n/a	n/a	n/a	n/a	n/a	n/a	"2021-01-18 13:40:40.746548"	"2021-01-18 13:40:42.250226"	39	5.8319774
"S210118"	"Response_Inhibition"	"RIGHT"	"Time_Max_Exceeded"	1500.07813340001	666.666668	n/a	n/a	n/a	n/a	n/a	n/a	n/a	"2021-01-18 13:40:42.928767"	"2021-01-18 13:40:44.432832"	40	5.8319774
"S210118"	"Response_Inhibition"	"LEFT"	"LEFT"	478.026399999976	1350.0000027	n/a	n/a	n/a	n/a	n/a	n/a	n/a	"2021-01-18 13:40:45.793109"	"2021-01-18 13:40:46.483742"	41	5.8319774
"S210118"	"Response_Inhibition"	"LEFT"	"LEFT"	587.469999999939	733.3333348	n/a	n/a	n/a	n/a	n/a	n/a	n/a	"2021-01-18 13:40:47.227686"	"2021-01-18 13:40:48.024728"	42	5.8319774
"S210118"	"Response_Inhibition"	"RIGHT"	"RIGHT"	634.009200000037	1050.0000021	n/a	n/a	n/a	n/a	n/a	n/a	n/a	"2021-01-18 13:40:49.084978"	"2021-01-18 13:40:49.932782"	43	5.8319774
"S210118"	"Response_Inhibition"	"LEFT"	"LEFT"	528.767399999992	1366.6666694	n/a	n/a	n/a	n/a	n/a	n/a	n/a	"2021-01-18 13:40:51.310325"	"2021-01-18 13:40:52.047680"	44	5.8319774
"S210118"	"Response_Inhibition"	"LEFT"	"Time_Max_Exceeded"	1500.06433380005	1416.6666695	n/a	n/a	n/a	n/a	n/a	n/a	n/a	"2021-01-18 13:40:53.474633"	"2021-01-18 13:40:54.978864"	45	5.8319774
"S210118"	"Response_Inhibition"	"RIGHT"	"Time_Max_Exceeded"	1500.08746669998	583.3333345	n/a	n/a	n/a	n/a	n/a	n/a	n/a	"2021-01-18 13:40:55.572741"	"2021-01-18 13:40:57.077848"	46	5.8319774
"S210118"	"Response_Inhibition"	"RIGHT"	"RIGHT"	490.76290000005	1100.0000022	n/a	n/a	n/a	n/a	n/a	n/a	n/a	"2021-01-18 13:40:58.188138"	"2021-01-18 13:40:58.889814"	47	5.8319774
"S210118"	"Response_Inhibition"	"LEFT"	"LEFT"	420.72189999999	550.0000011	n/a	n/a	n/a	n/a	n/a	n/a	n/a	"2021-01-18 13:40:59.449726"	"2021-01-18 13:41:00.082365"	48	5.8319774
"S210118"	"Response_Inhibition"	"LEFT"	"LEFT"	474.233700000013	950.0000019	n/a	n/a	n/a	n/a	n/a	n/a	n/a	"2021-01-18 13:41:01.044789"	"2021-01-18 13:41:01.728944"	49	5.8319774
"S210118"	"Response_Inhibition"	"LEFT"	"Time_Max_Exceeded"	1500.06353340003	766.6666682	n/a	n/a	n/a	n/a	n/a	n/a	n/a	"2021-01-18 13:41:02.508154"	"2021-01-18 13:41:04.012100"	50	5.8319774
"S210118"	"Response_Inhibition"	"LEFT"	"Time_Max_Exceeded"	1500.06170049995	850.0000017	n/a	n/a	n/a	n/a	n/a	n/a	n/a	"2021-01-18 13:41:04.871250"	"2021-01-18 13:41:06.375139"	51	5.8319774
"S210118"	"Response_Inhibition"	"RIGHT"	"RIGHT"	313.968766900002	1183.3333357	n/a	n/a	n/a	n/a	n/a	n/a	n/a	"2021-01-18 13:41:07.569800"	"2021-01-18 13:41:08.096643"	52	5.8319774
"S210118"	"Response_Inhibition"	"LEFT"	"LEFT"	354.969199999914	816.6666683	n/a	n/a	n/a	n/a	n/a	n/a	n/a	"2021-01-18 13:41:08.923648"	"2021-01-18 13:41:09.488267"	53	5.8319774
"S210118"	"Response_Inhibition"	"RIGHT"	"RIGHT"	464.896000000067	1300.0000026	n/a	n/a	n/a	n/a	n/a	n/a	n/a	"2021-01-18 13:41:10.797989"	"2021-01-18 13:41:11.471699"	54	5.8319774
"S210118"	"Response_Inhibition"	"LEFT"	"LEFT"	447.298200000091	533.3333344	n/a	n/a	n/a	n/a	n/a	n/a	n/a	"2021-01-18 13:41:12.015208"	"2021-01-18 13:41:12.671712"	55	5.8319774
"S210118"	"Response_Inhibition"	"LEFT"	"Time_Max_Exceeded"	1500.0557003001	666.666668	n/a	n/a	n/a	n/a	n/a	n/a	n/a	"2021-01-18 13:41:13.348788"	"2021-01-18 13:41:14.853065"	56	5.8319774
"S210118"	"Response_Inhibition"	"LEFT"	"LEFT"	541.205399999967	633.3333346	n/a	n/a	n/a	n/a	n/a	n/a	n/a	"2021-01-18 13:41:15.498034"	"2021-01-18 13:41:16.247445"	57	5.8319774
"S210118"	"Response_Inhibition"	"LEFT"	"LEFT"	458.064599999943	683.3333347	n/a	n/a	n/a	n/a	n/a	n/a	n/a	"2021-01-18 13:41:16.941170"	"2021-01-18 13:41:17.608823"	58	5.8319774
"S210118"	"Response_Inhibition"	"RIGHT"	"Time_Max_Exceeded"	1500.07606679996	816.6666683	n/a	n/a	n/a	n/a	n/a	n/a	n/a	"2021-01-18 13:41:18.436957"	"2021-01-18 13:41:19.941683"	59	5.8319774
"S210118"	"Response_Inhibition"	"RIGHT"	"RIGHT"	462.622099999976	1216.6666691	n/a	n/a	n/a	n/a	n/a	n/a	n/a	"2021-01-18 13:41:21.168523"	"2021-01-18 13:41:21.838729"	60	5.8319774
"S210118"	"Response_Inhibition"	"LEFT"	"Time_Max_Exceeded"	1500.06296689996	1466.6666696	n/a	n/a	n/a	n/a	n/a	n/a	n/a	"2021-01-18 13:41:23.316705"	"2021-01-18 13:41:24.820176"	61	5.8319774
"S210118"	"Response_Inhibition"	"RIGHT"	"RIGHT"	322.610599999962	700.0000014	n/a	n/a	n/a	n/a	n/a	n/a	n/a	"2021-01-18 13:41:25.531915"	"2021-01-18 13:41:26.064202"	62	5.8319774
"S210118"	"Response_Inhibition"	"LEFT"	"LEFT"	495.035099999996	750.0000015	n/a	n/a	n/a	n/a	n/a	n/a	n/a	"2021-01-18 13:41:26.823652"	"2021-01-18 13:41:27.527640"	63	5.8319774
"S210118"	"Response_Inhibition"	"RIGHT"	"Time_Max_Exceeded"	1500.06343360004	783.3333349	n/a	n/a	n/a	n/a	n/a	n/a	n/a	"2021-01-18 13:41:28.319676"	"2021-01-18 13:41:29.824386"	64	5.8319774
"S210118"	"Response_Inhibition"	"LEFT"	"LEFT"	446.322399999985	1300.0000026	n/a	n/a	n/a	n/a	n/a	n/a	n/a	"2021-01-18 13:41:31.136499"	"2021-01-18 13:41:31.791608"	65	5.8319774
"S210118"	"Response_Inhibition"	"RIGHT"	"Time_Max_Exceeded"	1500.07953359997	1250.0000025	n/a	n/a	n/a	n/a	n/a	n/a	n/a	"2021-01-18 13:41:33.051086"	"2021-01-18 13:41:34.555004"	66	5.8319774
"S210118"	"Response_Inhibition"	"LEFT"	"LEFT"	452.46439999994	1083.3333355	n/a	n/a	n/a	n/a	n/a	n/a	n/a	"2021-01-18 13:41:35.650786"	"2021-01-18 13:41:36.311731"	67	5.8319774
"S210118"	"Response_Inhibition"	"LEFT"	"LEFT"	522.181499999988	850.0000017	n/a	n/a	n/a	n/a	n/a	n/a	n/a	"2021-01-18 13:41:37.172789"	"2021-01-18 13:41:37.903803"	68	5.8319774
"S210118"	"Response_Inhibition"	"RIGHT"	"Time_Max_Exceeded"	1500.05480009998	1483.3333363	n/a	n/a	n/a	n/a	n/a	n/a	n/a	"2021-01-18 13:41:39.398691"	"2021-01-18 13:41:40.902340"	69	5.8319774
"S210118"	"Response_Inhibition"	"LEFT"	"LEFT"	435.787199999936	1050.0000021	n/a	n/a	n/a	n/a	n/a	n/a	n/a	"2021-01-18 13:41:41.963633"	"2021-01-18 13:41:42.606831"	70	5.8319774
"S210118"	"Response_Inhibition"	"RIGHT"	"RIGHT"	536.025900000027	750.0000015	n/a	n/a	n/a	n/a	n/a	n/a	n/a	"2021-01-18 13:41:43.367112"	"2021-01-18 13:41:44.111505"	71	5.8319774
"S210118"	"Response_Inhibition"	"LEFT"	"LEFT"	477.749700000004	533.3333344	n/a	n/a	n/a	n/a	n/a	n/a	n/a	"2021-01-18 13:41:44.656884"	"2021-01-18 13:41:45.343407"	72	5.8319774
"S210118"	"Response_Inhibition"	"LEFT"	"LEFT"	426.321600000051	1466.6666696	n/a	n/a	n/a	n/a	n/a	n/a	n/a	"2021-01-18 13:41:46.821042"	"2021-01-18 13:41:47.455806"	73	5.8319774
"S210118"	"Response_Inhibition"	"RIGHT"	"Time_Max_Exceeded"	1500.05383370009	733.3333348	n/a	n/a	n/a	n/a	n/a	n/a	n/a	"2021-01-18 13:41:48.201815"	"2021-01-18 13:41:49.705930"	74	5.8319774
"S210118"	"Response_Inhibition"	"LEFT"	"LEFT"	370.109666999993	716.6666681	n/a	n/a	n/a	n/a	n/a	n/a	n/a	"2021-01-18 13:41:50.432647"	"2021-01-18 13:41:51.016220"	75	5.8319774
"S210118"	"Response_Inhibition"	"RIGHT"	"RIGHT"	506.07930000001	633.3333346	n/a	n/a	n/a	n/a	n/a	n/a	n/a	"2021-01-18 13:41:51.660769"	"2021-01-18 13:41:52.376037"	76	5.8319774
"S210118"	"Response_Inhibition"	"RIGHT"	"RIGHT"	475.748899999985	1416.6666695	n/a	n/a	n/a	n/a	n/a	n/a	n/a	"2021-01-18 13:41:53.803410"	"2021-01-18 13:41:54.487751"	77	5.8319774
"S210118"	"Response_Inhibition"	"LEFT"	"Time_Max_Exceeded"	1500.06043389996	800.0000016	n/a	n/a	n/a	n/a	n/a	n/a	n/a	"2021-01-18 13:41:55.300042"	"2021-01-18 13:41:56.805195"	78	5.8319774
"S210118"	"Response_Inhibition"	"RIGHT"	"RIGHT"	439.770299999964	1150.0000023	n/a	n/a	n/a	n/a	n/a	n/a	n/a	"2021-01-18 13:41:57.966889"	"2021-01-18 13:41:58.616880"	79	5.8319774
"S210118"	"Response_Inhibition"	"LEFT"	"LEFT"	423.103699999956	683.3333347	n/a	n/a	n/a	n/a	n/a	n/a	n/a	"2021-01-18 13:41:59.311918"	"2021-01-18 13:41:59.943847"	80	5.8319774
"S210118"	"Response_Inhibition"	"LEFT"	"LEFT"	435.262999999964	633.3333346	n/a	n/a	n/a	n/a	n/a	n/a	n/a	"2021-01-18 13:42:00.588084"	"2021-01-18 13:42:01.232023"	81	5.8319774
"S210118"	"Response_Inhibition"	"LEFT"	"LEFT"	435.794200000032	1400.0000028	n/a	n/a	n/a	n/a	n/a	n/a	n/a	"2021-01-18 13:42:02.643043"	"2021-01-18 13:42:03.288110"	82	5.8319774
"S210118"	"Response_Inhibition"	"LEFT"	"LEFT"	385.059799999908	883.3333351	n/a	n/a	n/a	n/a	n/a	n/a	n/a	"2021-01-18 13:42:04.182011"	"2021-01-18 13:42:04.780813"	83	5.8319774
"S210118"	"Response_Inhibition"	"RIGHT"	"RIGHT"	425.992000000065	733.3333348	n/a	n/a	n/a	n/a	n/a	n/a	n/a	"2021-01-18 13:42:05.524941"	"2021-01-18 13:42:06.161226"	84	5.8319774
"S210118"	"Response_Inhibition"	"LEFT"	"LEFT"	370.350700000017	1383.3333361	n/a	n/a	n/a	n/a	n/a	n/a	n/a	"2021-01-18 13:42:07.556379"	"2021-01-18 13:42:08.136675"	85	5.8319774
"S210118"	"Response_Inhibition"	"LEFT"	"LEFT"	377.349833700089	1116.6666689	n/a	n/a	n/a	n/a	n/a	n/a	n/a	"2021-01-18 13:42:09.265566"	"2021-01-18 13:42:09.855677"	86	5.8319774
"S210118"	"Response_Inhibition"	"RIGHT"	"RIGHT"	464.660299999991	900.0000018	n/a	n/a	n/a	n/a	n/a	n/a	n/a	"2021-01-18 13:42:10.765993"	"2021-01-18 13:42:11.441063"	87	5.8319774
"S210118"	"Response_Inhibition"	"LEFT"	"LEFT"	480.729100000076	1266.6666692	n/a	n/a	n/a	n/a	n/a	n/a	n/a	"2021-01-18 13:42:12.718689"	"2021-01-18 13:42:13.407647"	88	5.8319774
"S210118"	"Response_Inhibition"	"RIGHT"	"Time_Max_Exceeded"	1500.11360000008	1083.3333355	n/a	n/a	n/a	n/a	n/a	n/a	n/a	"2021-01-18 13:42:14.502663"	"2021-01-18 13:42:16.002931"	89	5.8319774
"S210118"	"Response_Inhibition"	"LEFT"	"LEFT"	431.459600000039	1050.0000021	n/a	n/a	n/a	n/a	n/a	n/a	n/a	"2021-01-18 13:42:17.063617"	"2021-01-18 13:42:17.705866"	90	5.8319774
"S210118"	"Response_Inhibition"	"RIGHT"	"RIGHT"	691.491400000018	516.6666677	n/a	n/a	n/a	n/a	n/a	n/a	n/a	"2021-01-18 13:42:18.235830"	"2021-01-18 13:42:19.135333"	91	5.8319774
"S210118"	"Response_Inhibition"	"LEFT"	"LEFT"	301.227600400016	1283.3333359	n/a	n/a	n/a	n/a	n/a	n/a	n/a	"2021-01-18 13:42:20.429757"	"2021-01-18 13:42:20.943328"	92	5.8319774
"S210118"	"Response_Inhibition"	"RIGHT"	"RIGHT"	458.169600000019	850.0000017	n/a	n/a	n/a	n/a	n/a	n/a	n/a	"2021-01-18 13:42:21.804853"	"2021-01-18 13:42:22.471613"	93	5.8319774
"S210118"	"Response_Inhibition"	"LEFT"	"LEFT"	402.569099999937	1216.6666691	n/a	n/a	n/a	n/a	n/a	n/a	n/a	"2021-01-18 13:42:23.700722"	"2021-01-18 13:42:24.315662"	94	5.8319774
"S210118"	"Response_Inhibition"	"LEFT"	"LEFT"	369.021633900015	1066.6666688	n/a	n/a	n/a	n/a	n/a	n/a	n/a	"2021-01-18 13:42:25.394347"	"2021-01-18 13:42:25.975678"	95	5.8319774
"S210118"	"Response_Inhibition"	"LEFT"	"LEFT"	451.918066999993	833.333335	n/a	n/a	n/a	n/a	n/a	n/a	n/a	"2021-01-18 13:42:26.822794"	"2021-01-18 13:42:27.492828"	96	5.8319774
"S210118"	"Response_Inhibition"	"RIGHT"	"RIGHT"	498.635400000012	1500.000003	n/a	n/a	n/a	n/a	n/a	n/a	n/a	"2021-01-18 13:42:29.003585"	"2021-01-18 13:42:29.711935"	97	5.8319774
"S210118"	"Response_Inhibition"	"LEFT"	"LEFT"	542.904499999963	916.6666685	n/a	n/a	n/a	n/a	n/a	n/a	n/a	"2021-01-18 13:42:30.639688"	"2021-01-18 13:42:31.391835"	98	5.8319774
"S210118"	"Response_Inhibition"	"LEFT"	"Time_Max_Exceeded"	1500.05993359999	933.3333352	n/a	n/a	n/a	n/a	n/a	n/a	n/a	"2021-01-18 13:42:32.335795"	"2021-01-18 13:42:33.839768"	99	5.8319774
"S210118"	"Response_Inhibition"	"RIGHT"	"RIGHT"	480.285499999923	850.0000017	n/a	n/a	n/a	n/a	n/a	n/a	n/a	"2021-01-18 13:42:34.702183"	"2021-01-18 13:42:35.397643"	100	5.8319774
"S210118"	"Response_Inhibition"	"RIGHT"	"RIGHT"	496.133200000031	683.3333347	n/a	n/a	n/a	n/a	n/a	n/a	n/a	"2021-01-18 13:42:36.095041"	"2021-01-18 13:42:36.799959"	101	5.8319774
"S210118"	"Response_Inhibition"	"RIGHT"	"Time_Max_Exceeded"	1500.07136710001	500.000001	n/a	n/a	n/a	n/a	n/a	n/a	n/a	"2021-01-18 13:42:37.312685"	"2021-01-18 13:42:38.816926"	102	5.8319774
"S210118"	"Response_Inhibition"	"RIGHT"	"Time_Max_Exceeded"	1500.05810020002	1166.666669	n/a	n/a	n/a	n/a	n/a	n/a	n/a	"2021-01-18 13:42:39.994815"	"2021-01-18 13:42:41.498932"	103	5.8319774
"S210118"	"Response_Inhibition"	"RIGHT"	"Time_Max_Exceeded"	1500.08670039995	983.3333353	n/a	n/a	n/a	n/a	n/a	n/a	n/a	"2021-01-18 13:42:42.493475"	"2021-01-18 13:42:43.998369"	104	5.8319774
"S210118"	"Response_Inhibition"	"LEFT"	"LEFT"	298.739333800053	966.6666686	n/a	n/a	n/a	n/a	n/a	n/a	n/a	"2021-01-18 13:42:44.975913"	"2021-01-18 13:42:45.488788"	105	5.8319774
"S210118"	"Response_Inhibition"	"RIGHT"	"RIGHT"	473.903900000096	633.3333346	n/a	n/a	n/a	n/a	n/a	n/a	n/a	"2021-01-18 13:42:46.132708"	"2021-01-18 13:42:46.819723"	106	5.8319774
"S210118"	"Response_Inhibition"	"RIGHT"	"RIGHT"	503.035899999986	583.3333345	n/a	n/a	n/a	n/a	n/a	n/a	n/a	"2021-01-18 13:42:47.415321"	"2021-01-18 13:42:48.130689"	107	5.8319774
"S210118"	"Response_Inhibition"	"LEFT"	"LEFT"	408.196299999986	783.3333349	n/a	n/a	n/a	n/a	n/a	n/a	n/a	"2021-01-18 13:42:48.926894"	"2021-01-18 13:42:49.544049"	108	5.8319774
"S210118"	"Response_Inhibition"	"RIGHT"	"RIGHT"	555.73830000003	550.0000011	n/a	n/a	n/a	n/a	n/a	n/a	n/a	"2021-01-18 13:42:50.107428"	"2021-01-18 13:42:50.871817"	109	5.8319774
"S210118"	"Response_Inhibition"	"RIGHT"	"RIGHT"	391.388800000072	1150.0000023	n/a	n/a	n/a	n/a	n/a	n/a	n/a	"2021-01-18 13:42:52.031042"	"2021-01-18 13:42:52.631730"	110	5.8319774
"S210118"	"Response_Inhibition"	"LEFT"	"Time_Max_Exceeded"	1500.08963369995	566.6666678	n/a	n/a	n/a	n/a	n/a	n/a	n/a	"2021-01-18 13:42:53.208039"	"2021-01-18 13:42:54.711923"	111	5.8319774
"S210118"	"Response_Inhibition"	"LEFT"	"LEFT"	455.03356709996	1216.6666691	n/a	n/a	n/a	n/a	n/a	n/a	n/a	"2021-01-18 13:42:55.939803"	"2021-01-18 13:42:56.607612"	112	5.8319774
"S210118"	"Response_Inhibition"	"LEFT"	"LEFT"	448.92276729995	616.6666679	n/a	n/a	n/a	n/a	n/a	n/a	n/a	"2021-01-18 13:42:57.234885"	"2021-01-18 13:42:57.895919"	113	5.8319774
"S210118"	"Response_Inhibition"	"LEFT"	"Time_Max_Exceeded"	1500.09506719998	1100.0000022	n/a	n/a	n/a	n/a	n/a	n/a	n/a	"2021-01-18 13:42:59.006630"	"2021-01-18 13:43:00.509885"	114	5.8319774
"S210118"	"Response_Inhibition"	"LEFT"	"LEFT"	470.435200000111	783.3333349	n/a	n/a	n/a	n/a	n/a	n/a	n/a	"2021-01-18 13:43:01.304618"	"2021-01-18 13:43:01.983981"	115	5.8319774
"S210118"	"Response_Inhibition"	"RIGHT"	"RIGHT"	411.460300000044	1216.6666691	n/a	n/a	n/a	n/a	n/a	n/a	n/a	"2021-01-18 13:43:03.211558"	"2021-01-18 13:43:03.831391"	116	5.8319774
"S210118"	"Response_Inhibition"	"RIGHT"	"RIGHT"	475.918299999989	783.3333349	n/a	n/a	n/a	n/a	n/a	n/a	n/a	"2021-01-18 13:43:04.626641"	"2021-01-18 13:43:05.312087"	117	5.8319774
"S210118"	"Response_Inhibition"	"RIGHT"	"RIGHT"	485.956099999953	533.3333344	n/a	n/a	n/a	n/a	n/a	n/a	n/a	"2021-01-18 13:43:05.856862"	"2021-01-18 13:43:06.552580"	118	5.8319774
"S210118"	"Response_Inhibition"	"RIGHT"	"RIGHT"	451.78240050007	1316.6666693	n/a	n/a	n/a	n/a	n/a	n/a	n/a	"2021-01-18 13:43:07.879181"	"2021-01-18 13:43:08.544253"	119	5.8319774
"S210118"	"Response_Inhibition"	"LEFT"	"Time_Max_Exceeded"	1500.05140010001	1183.3333357	n/a	n/a	n/a	n/a	n/a	n/a	n/a	"2021-01-18 13:43:09.737056"	"2021-01-18 13:43:11.241132"	120	5.8319774
"S210118"	"Response_Inhibition"	"RIGHT"	"Time_Max_Exceeded"	1500.05930020007	566.6666678	n/a	n/a	n/a	n/a	n/a	n/a	n/a	"2021-01-18 13:43:11.818640"	"2021-01-18 13:43:13.322439"	121	5.8319774
"S210118"	"Response_Inhibition"	"RIGHT"	"RIGHT"	464.463300000034	1450.0000029	n/a	n/a	n/a	n/a	n/a	n/a	n/a	"2021-01-18 13:43:14.782465"	"2021-01-18 13:43:15.456629"	122	5.8319774
"S210118"	"Response_Inhibition"	"RIGHT"	"RIGHT"	462.599999999952	1333.333336	n/a	n/a	n/a	n/a	n/a	n/a	n/a	"2021-01-18 13:43:16.799772"	"2021-01-18 13:43:17.472314"	123	5.8319774
"S210118"	"Response_Inhibition"	"RIGHT"	"Time_Max_Exceeded"	1500.06203350002	616.6666679	n/a	n/a	n/a	n/a	n/a	n/a	n/a	"2021-01-18 13:43:18.099072"	"2021-01-18 13:43:19.602783"	124	5.8319774
"S210118"	"Response_Inhibition"	"RIGHT"	"RIGHT"	554.639300000076	950.0000019	n/a	n/a	n/a	n/a	n/a	n/a	n/a	"2021-01-18 13:43:20.564662"	"2021-01-18 13:43:21.328196"	125	5.8319774
"S210118"	"Response_Inhibition"	"RIGHT"	"Time_Max_Exceeded"	1500.07253349994	883.3333351	n/a	n/a	n/a	n/a	n/a	n/a	n/a	"2021-01-18 13:43:22.221791"	"2021-01-18 13:43:23.725805"	126	5.8319774
"S210118"	"Response_Inhibition"	"LEFT"	"LEFT"	526.329099999998	1166.666669	n/a	n/a	n/a	n/a	n/a	n/a	n/a	"2021-01-18 13:43:24.904458"	"2021-01-18 13:43:25.639790"	127	5.8319774
"S210118"	"Response_Inhibition"	"RIGHT"	"RIGHT"	559.264700600017	1033.3333354	n/a	n/a	n/a	n/a	n/a	n/a	n/a	"2021-01-18 13:43:26.684209"	"2021-01-18 13:43:27.455454"	128	5.8319774
"S210118"	"Response_Inhibition"	"LEFT"	"LEFT"	655.500399999937	1133.3333356	n/a	n/a	n/a	n/a	n/a	n/a	n/a	"2021-01-18 13:43:28.598954"	"2021-01-18 13:43:29.462954"	129	5.8319774
"S210118"	"Response_Inhibition"	"LEFT"	"LEFT"	418.924000000061	1433.3333362	n/a	n/a	n/a	n/a	n/a	n/a	n/a	"2021-01-18 13:43:30.908077"	"2021-01-18 13:43:31.536475"	130	5.8319774
"S210118"	"Response_Inhibition"	"LEFT"	"LEFT"	667.337199999906	1200.0000024	n/a	n/a	n/a	n/a	n/a	n/a	n/a	"2021-01-18 13:43:32.747536"	"2021-01-18 13:43:33.623636"	131	5.8319774
"S210118"	"Response_Inhibition"	"RIGHT"	"RIGHT"	596.905600000014	766.6666682	n/a	n/a	n/a	n/a	n/a	n/a	n/a	"2021-01-18 13:43:34.401652"	"2021-01-18 13:43:35.207648"	132	5.8319774
"S210118"	"Response_Inhibition"	"LEFT"	"LEFT"	433.151899999984	900.0000018	n/a	n/a	n/a	n/a	n/a	n/a	n/a	"2021-01-18 13:43:36.117536"	"2021-01-18 13:43:36.759663"	133	5.8319774
"S210118"	"Response_Inhibition"	"LEFT"	"LEFT"	628.885999999966	1016.6666687	n/a	n/a	n/a	n/a	n/a	n/a	n/a	"2021-01-18 13:43:37.785688"	"2021-01-18 13:43:38.626537"	134	5.8319774
"S210118"	"Response_Inhibition"	"LEFT"	"LEFT"	508.609699999965	1316.6666693	n/a	n/a	n/a	n/a	n/a	n/a	n/a	"2021-01-18 13:43:39.953741"	"2021-01-18 13:43:40.671894"	135	5.8319774
"S210118"	"Response_Inhibition"	"LEFT"	"LEFT"	426.650199999926	1266.6666692	n/a	n/a	n/a	n/a	n/a	n/a	n/a	"2021-01-18 13:43:41.947911"	"2021-01-18 13:43:42.584009"	136	5.8319774
"S210118"	"Response_Inhibition"	"LEFT"	"LEFT"	407.214899999985	1500.000003	n/a	n/a	n/a	n/a	n/a	n/a	n/a	"2021-01-18 13:43:44.095434"	"2021-01-18 13:43:44.711558"	137	5.8319774
"S210118"	"Response_Inhibition"	"RIGHT"	"RIGHT"	558.390700000018	966.6666686	n/a	n/a	n/a	n/a	n/a	n/a	n/a	"2021-01-18 13:43:45.688192"	"2021-01-18 13:43:46.455464"	138	5.8319774
"S210118"	"Response_Inhibition"	"RIGHT"	"RIGHT"	479.599200000052	950.0000019	n/a	n/a	n/a	n/a	n/a	n/a	n/a	"2021-01-18 13:43:47.415001"	"2021-01-18 13:43:48.104482"	139	5.8319774
"S210118"	"Response_Inhibition"	"LEFT"	"LEFT"	658.965399999943	600.0000012	n/a	n/a	n/a	n/a	n/a	n/a	n/a	"2021-01-18 13:43:48.716101"	"2021-01-18 13:43:49.582878"	140	5.8319774
"S210118"	"Response_Inhibition"	"RIGHT"	"RIGHT"	335.607800000048	1316.6666693	n/a	n/a	n/a	n/a	n/a	n/a	n/a	"2021-01-18 13:43:50.911413"	"2021-01-18 13:43:51.456006"	141	5.8319774
"S210118"	"Response_Inhibition"	"RIGHT"	"RIGHT"	551.731700000005	933.3333352	n/a	n/a	n/a	n/a	n/a	n/a	n/a	"2021-01-18 13:43:52.400101"	"2021-01-18 13:43:53.159772"	142	5.8319774
"S210118"	"Response_Inhibition"	"RIGHT"	"RIGHT"	326.169200499981	1416.6666695	n/a	n/a	n/a	n/a	n/a	n/a	n/a	"2021-01-18 13:43:54.588669"	"2021-01-18 13:43:55.127451"	143	5.8319774
"S210118"	"Response_Inhibition"	"LEFT"	"LEFT"	697.999900000013	866.6666684	n/a	n/a	n/a	n/a	n/a	n/a	n/a	"2021-01-18 13:43:56.004883"	"2021-01-18 13:43:56.910557"	144	5.8319774
"S210118"	"Response_Inhibition"	"LEFT"	"LEFT"	545.958799999994	500.000001	n/a	n/a	n/a	n/a	n/a	n/a	n/a	"2021-01-18 13:43:57.420615"	"2021-01-18 13:43:58.175578"	145	5.8319774
"S210118"	"Response_Inhibition"	"LEFT"	"Time_Max_Exceeded"	1500.10286690001	1000.000002	n/a	n/a	n/a	n/a	n/a	n/a	n/a	"2021-01-18 13:43:59.186556"	"2021-01-18 13:44:00.690345"	146	5.8319774
"S210118"	"Response_Inhibition"	"LEFT"	"LEFT"	418.872599999986	1150.0000023	n/a	n/a	n/a	n/a	n/a	n/a	n/a	"2021-01-18 13:44:01.851466"	"2021-01-18 13:44:02.479757"	147	5.8319774
"S210118"	"Response_Inhibition"	"RIGHT"	"RIGHT"	570.052400000009	650.0000013	n/a	n/a	n/a	n/a	n/a	n/a	n/a	"2021-01-18 13:44:03.141165"	"2021-01-18 13:44:03.919793"	148	5.8319774
"S210118"	"Response_Inhibition"	"LEFT"	"LEFT"	382.987300000082	733.3333348	n/a	n/a	n/a	n/a	n/a	n/a	n/a	"2021-01-18 13:44:04.663886"	"2021-01-18 13:44:05.257257"	149	5.8319774
"S210118"	"Response_Inhibition"	"LEFT"	"LEFT"	403.209600000082	983.3333353	n/a	n/a	n/a	n/a	n/a	n/a	n/a	"2021-01-18 13:44:06.251883"	"2021-01-18 13:44:06.864042"	150	5.8319774
"S210118"	"Response_Inhibition"	"LEFT"	"LEFT"	388.462599999912	1000.000002	n/a	n/a	n/a	n/a	n/a	n/a	n/a	"2021-01-18 13:44:07.874985"	"2021-01-18 13:44:08.473271"	151	5.8319774
"S210118"	"Response_Inhibition"	"LEFT"	"LEFT"	342.14170000007	1333.333336	n/a	n/a	n/a	n/a	n/a	n/a	n/a	"2021-01-18 13:44:09.816568"	"2021-01-18 13:44:10.367837"	152	5.8319774
"S210118"	"Response_Inhibition"	"RIGHT"	"RIGHT"	476.878899999974	1000.000002	n/a	n/a	n/a	n/a	n/a	n/a	n/a	"2021-01-18 13:44:11.378038"	"2021-01-18 13:44:12.067709"	153	5.8319774
"S210118"	"Response_Inhibition"	"RIGHT"	"RIGHT"	592.741000000046	600.0000012	n/a	n/a	n/a	n/a	n/a	n/a	n/a	"2021-01-18 13:44:12.677670"	"2021-01-18 13:44:13.480420"	154	5.8319774
"S210118"	"Response_Inhibition"	"LEFT"	"LEFT"	307.393999999931	1416.6666695	n/a	n/a	n/a	n/a	n/a	n/a	n/a	"2021-01-18 13:44:14.907342"	"2021-01-18 13:44:15.423584"	155	5.8319774
"S210118"	"Response_Inhibition"	"RIGHT"	"RIGHT"	314.473300000031	1466.6666696	n/a	n/a	n/a	n/a	n/a	n/a	n/a	"2021-01-18 13:44:16.900554"	"2021-01-18 13:44:17.423639"	156	5.8319774
"S210118"	"Response_Inhibition"	"LEFT"	"LEFT"	354.134199999976	1450.0000029	n/a	n/a	n/a	n/a	n/a	n/a	n/a	"2021-01-18 13:44:18.884814"	"2021-01-18 13:44:19.447474"	157	5.8319774
"S210118"	"Response_Inhibition"	"LEFT"	"LEFT"	466.898000000015	1033.3333354	n/a	n/a	n/a	n/a	n/a	n/a	n/a	"2021-01-18 13:44:20.491383"	"2021-01-18 13:44:21.168015"	158	5.8319774
"S210118"	"Response_Inhibition"	"RIGHT"	"RIGHT"	361.313300000006	1066.6666688	n/a	n/a	n/a	n/a	n/a	n/a	n/a	"2021-01-18 13:44:22.245011"	"2021-01-18 13:44:22.816804"	159	5.8319774
"S210118"	"Response_Inhibition"	"LEFT"	"Time_Max_Exceeded"	1500.04900030001	516.6666677	n/a	n/a	n/a	n/a	n/a	n/a	n/a	"2021-01-18 13:44:23.345675"	"2021-01-18 13:44:24.849717"	160	5.8319774
"S210118"	"Response_Selection"	"LEFT"	"LEFT"	305.647599999986	1266.6666692	n/a	n/a	n/a	n/a	n/a	n/a	n/a	"2021-01-18 13:36:32.373057"	"2021-01-18 13:36:32.892739"	1	2.91902023333333
"S210118"	"Response_Selection"	"LEFT"	"LEFT"	429.582700000026	866.6666684	n/a	n/a	n/a	n/a	n/a	n/a	n/a	"2021-01-18 13:36:33.769526"	"2021-01-18 13:36:34.408186"	2	2.91902023333333
"S210118"	"Response_Selection"	"LEFT"	"LEFT"	284.338100000014	1216.6666691	n/a	n/a	n/a	n/a	n/a	n/a	n/a	"2021-01-18 13:36:35.635348"	"2021-01-18 13:36:36.128763"	3	2.91902023333333
"S210118"	"Response_Selection"	"RIGHT"	"RIGHT"	285.855599999991	1133.3333356	n/a	n/a	n/a	n/a	n/a	n/a	n/a	"2021-01-18 13:36:37.273388"	"2021-01-18 13:36:37.768414"	4	2.91902023333333
"S210118"	"Response_Selection"	"RIGHT"	"RIGHT"	331.781500000034	1016.6666687	n/a	n/a	n/a	n/a	n/a	n/a	n/a	"2021-01-18 13:36:38.795607"	"2021-01-18 13:36:39.336483"	5	2.91902023333333
"S210118"	"Response_Selection"	"LEFT"	"LEFT"	410.9014	650.0000013	n/a	n/a	n/a	n/a	n/a	n/a	n/a	"2021-01-18 13:36:39.997502"	"2021-01-18 13:36:40.618095"	6	2.91902023333333
"S210118"	"Response_Selection"	"LEFT"	"LEFT"	307.681500000001	983.3333353	n/a	n/a	n/a	n/a	n/a	n/a	n/a	"2021-01-18 13:36:41.611997"	"2021-01-18 13:36:42.128985"	7	2.91902023333333
"S210118"	"Response_Selection"	"LEFT"	"LEFT"	300.855600000034	750.0000015	n/a	n/a	n/a	n/a	n/a	n/a	n/a	"2021-01-18 13:36:42.890424"	"2021-01-18 13:36:43.399854"	8	2.91902023333333
"S210118"	"Response_Selection"	"RIGHT"	"RIGHT"	315.50470000002	633.3333346	n/a	n/a	n/a	n/a	n/a	n/a	n/a	"2021-01-18 13:36:44.043296"	"2021-01-18 13:36:44.568930"	9	2.91902023333333
"S210118"	"Response_Selection"	"LEFT"	"LEFT"	266.814400000044	1166.666669	n/a	n/a	n/a	n/a	n/a	n/a	n/a	"2021-01-18 13:36:45.747991"	"2021-01-18 13:36:46.225846"	10	2.91902023333333
"S210118"	"Response_Selection"	"LEFT"	"LEFT"	324.709399999961	1133.3333356	n/a	n/a	n/a	n/a	n/a	n/a	n/a	"2021-01-18 13:36:47.370187"	"2021-01-18 13:36:47.905926"	11	2.91902023333333
"S210118"	"Response_Selection"	"LEFT"	"LEFT"	396.179500000017	1366.6666694	n/a	n/a	n/a	n/a	n/a	n/a	n/a	"2021-01-18 13:36:49.282881"	"2021-01-18 13:36:49.888261"	12	2.91902023333333
"S210118"	"Response_Selection"	"LEFT"	"LEFT"	289.58879999999	1250.0000025	n/a	n/a	n/a	n/a	n/a	n/a	n/a	"2021-01-18 13:36:51.149990"	"2021-01-18 13:36:51.650593"	13	2.91902023333333
"S210118"	"Response_Selection"	"RIGHT"	"RIGHT"	269.59260000001	883.3333351	n/a	n/a	n/a	n/a	n/a	n/a	n/a	"2021-01-18 13:36:52.545935"	"2021-01-18 13:36:53.023875"	14	2.91902023333333
"S210118"	"Response_Selection"	"RIGHT"	"RIGHT"	408.665900000017	683.3333347	n/a	n/a	n/a	n/a	n/a	n/a	n/a	"2021-01-18 13:36:53.718999"	"2021-01-18 13:36:54.336005"	15	2.91902023333333
"S210118"	"Response_Selection"	"LEFT"	"LEFT"	295.741299999975	533.3333344	n/a	n/a	n/a	n/a	n/a	n/a	n/a	"2021-01-18 13:36:54.879582"	"2021-01-18 13:36:55.383642"	16	2.91902023333333
"S210118"	"Response_Selection"	"LEFT"	"LEFT"	300.712299999986	583.3333345	n/a	n/a	n/a	n/a	n/a	n/a	n/a	"2021-01-18 13:36:55.978653"	"2021-01-18 13:36:56.487651"	17	2.91902023333333
"S210118"	"Response_Selection"	"LEFT"	"LEFT"	298.15050000002	1083.3333355	n/a	n/a	n/a	n/a	n/a	n/a	n/a	"2021-01-18 13:36:57.580792"	"2021-01-18 13:36:58.087909"	18	2.91902023333333
"S210118"	"Response_Selection"	"LEFT"	"LEFT"	279.525299999989	1316.6666693	n/a	n/a	n/a	n/a	n/a	n/a	n/a	"2021-01-18 13:36:59.415168"	"2021-01-18 13:36:59.904167"	19	2.91902023333333
"S210118"	"Response_Selection"	"RIGHT"	"RIGHT"	290.484800000002	866.6666684	n/a	n/a	n/a	n/a	n/a	n/a	n/a	"2021-01-18 13:37:00.780587"	"2021-01-18 13:37:01.281143"	20	2.91902023333333
"S210118"	"Response_Selection"	"RIGHT"	"RIGHT"	374.300199999993	1316.6666693	n/a	n/a	n/a	n/a	n/a	n/a	n/a	"2021-01-18 13:37:02.609365"	"2021-01-18 13:37:03.192961"	21	2.91902023333333
"S210118"	"Response_Selection"	"LEFT"	"LEFT"	397.070400000018	550.0000011	n/a	n/a	n/a	n/a	n/a	n/a	n/a	"2021-01-18 13:37:03.754135"	"2021-01-18 13:37:04.359533"	22	2.91902023333333
"S210118"	"Response_Selection"	"RIGHT"	"RIGHT"	297.047799999973	1500.000003	n/a	n/a	n/a	n/a	n/a	n/a	n/a	"2021-01-18 13:37:05.870610"	"2021-01-18 13:37:06.377282"	23	2.91902023333333
"S210118"	"Response_Selection"	"RIGHT"	"RIGHT"	429.085499999985	1366.6666694	n/a	n/a	n/a	n/a	n/a	n/a	n/a	"2021-01-18 13:37:07.753998"	"2021-01-18 13:37:08.393049"	24	2.91902023333333
"S210118"	"Response_Selection"	"LEFT"	"LEFT"	309.019200000023	783.3333349	n/a	n/a	n/a	n/a	n/a	n/a	n/a	"2021-01-18 13:37:09.186320"	"2021-01-18 13:37:09.704291"	25	2.91902023333333
"S210118"	"Response_Selection"	"RIGHT"	"RIGHT"	299.600199999986	833.333335	n/a	n/a	n/a	n/a	n/a	n/a	n/a	"2021-01-18 13:37:10.547853"	"2021-01-18 13:37:11.056709"	26	2.91902023333333
"S210118"	"Response_Selection"	"LEFT"	"LEFT"	432.167600000014	500.000001	n/a	n/a	n/a	n/a	n/a	n/a	n/a	"2021-01-18 13:37:11.567322"	"2021-01-18 13:37:12.208940"	27	2.91902023333333
"S210118"	"Response_Selection"	"LEFT"	"LEFT"	340.849800000001	1200.0000024	n/a	n/a	n/a	n/a	n/a	n/a	n/a	"2021-01-18 13:37:13.418180"	"2021-01-18 13:37:13.969749"	28	2.91902023333333
"S210118"	"Response_Selection"	"LEFT"	"LEFT"	337.394399999994	1450.0000029	n/a	n/a	n/a	n/a	n/a	n/a	n/a	"2021-01-18 13:37:15.429881"	"2021-01-18 13:37:15.976993"	29	2.91902023333333
"S210118"	"Response_Selection"	"RIGHT"	"RIGHT"	273.33010000001	1266.6666692	n/a	n/a	n/a	n/a	n/a	n/a	n/a	"2021-01-18 13:37:17.253932"	"2021-01-18 13:37:17.735979"	30	2.91902023333333
"S210118"	"Response_Selection"	"RIGHT"	"RIGHT"	494.631000000027	550.0000011	n/a	n/a	n/a	n/a	n/a	n/a	n/a	"2021-01-18 13:37:18.296330"	"2021-01-18 13:37:19.000065"	31	2.91902023333333
"S210118"	"Response_Selection"	"LEFT"	"LEFT"	319.7002	700.0000014	n/a	n/a	n/a	n/a	n/a	n/a	n/a	"2021-01-18 13:37:19.711206"	"2021-01-18 13:37:20.239611"	32	2.91902023333333
"S210118"	"Response_Selection"	"RIGHT"	"RIGHT"	286.499600000013	1166.666669	n/a	n/a	n/a	n/a	n/a	n/a	n/a	"2021-01-18 13:37:21.416315"	"2021-01-18 13:37:21.912100"	33	2.91902023333333
"S210118"	"Response_Selection"	"RIGHT"	"RIGHT"	353.458799999999	1083.3333355	n/a	n/a	n/a	n/a	n/a	n/a	n/a	"2021-01-18 13:37:23.005459"	"2021-01-18 13:37:23.569022"	34	2.91902023333333
"S210118"	"Response_Selection"	"LEFT"	"LEFT"	280.171399999972	683.3333347	n/a	n/a	n/a	n/a	n/a	n/a	n/a	"2021-01-18 13:37:24.263061"	"2021-01-18 13:37:24.752057"	35	2.91902023333333
"S210118"	"Response_Selection"	"RIGHT"	"RIGHT"	321.097599999973	700.0000014	n/a	n/a	n/a	n/a	n/a	n/a	n/a	"2021-01-18 13:37:25.462305"	"2021-01-18 13:37:25.992159"	36	2.91902023333333
"S210118"	"Response_Selection"	"LEFT"	"LEFT"	234.146899999985	1066.6666688	n/a	n/a	n/a	n/a	n/a	n/a	n/a	"2021-01-18 13:37:27.068888"	"2021-01-18 13:37:27.511442"	37	2.91902023333333
"S210118"	"Response_Selection"	"RIGHT"	"RIGHT"	271.5551	933.3333352	n/a	n/a	n/a	n/a	n/a	n/a	n/a	"2021-01-18 13:37:28.455909"	"2021-01-18 13:37:28.935873"	38	2.91902023333333
"S210118"	"Response_Selection"	"RIGHT"	"RIGHT"	349.153699999988	983.3333353	n/a	n/a	n/a	n/a	n/a	n/a	n/a	"2021-01-18 13:37:29.929943"	"2021-01-18 13:37:30.488607"	39	2.91902023333333
"S210118"	"Response_Selection"	"RIGHT"	"RIGHT"	326.096800000016	733.3333348	n/a	n/a	n/a	n/a	n/a	n/a	n/a	"2021-01-18 13:37:31.233036"	"2021-01-18 13:37:31.768421"	40	2.91902023333333
"S210118"	"Response_Selection"	"LEFT"	"LEFT"	314.6433	1033.3333354	n/a	n/a	n/a	n/a	n/a	n/a	n/a	"2021-01-18 13:37:32.812822"	"2021-01-18 13:37:33.335953"	41	2.91902023333333
"S210118"	"Response_Selection"	"RIGHT"	"RIGHT"	264.037200000018	916.6666685	n/a	n/a	n/a	n/a	n/a	n/a	n/a	"2021-01-18 13:37:34.262996"	"2021-01-18 13:37:34.736812"	42	2.91902023333333
"S210118"	"Response_Selection"	"RIGHT"	"RIGHT"	381.931000000009	750.0000015	n/a	n/a	n/a	n/a	n/a	n/a	n/a	"2021-01-18 13:37:35.497431"	"2021-01-18 13:37:36.088174"	43	2.91902023333333
"S210118"	"Response_Selection"	"RIGHT"	"RIGHT"	430.523999999991	533.3333344	n/a	n/a	n/a	n/a	n/a	n/a	n/a	"2021-01-18 13:37:36.632615"	"2021-01-18 13:37:37.273273"	44	2.91902023333333
"S210118"	"Response_Selection"	"LEFT"	"LEFT"	228.1744	966.6666686	n/a	n/a	n/a	n/a	n/a	n/a	n/a	"2021-01-18 13:37:38.251237"	"2021-01-18 13:37:38.687463"	45	2.91902023333333
"S210118"	"Response_Selection"	"RIGHT"	"RIGHT"	290.468799999985	1466.6666696	n/a	n/a	n/a	n/a	n/a	n/a	n/a	"2021-01-18 13:37:40.164225"	"2021-01-18 13:37:40.663489"	46	2.91902023333333
"S210118"	"Response_Selection"	"RIGHT"	"RIGHT"	365.397799999982	1400.0000028	n/a	n/a	n/a	n/a	n/a	n/a	n/a	"2021-01-18 13:37:42.073525"	"2021-01-18 13:37:42.647555"	47	2.91902023333333
"S210118"	"Response_Selection"	"LEFT"	"LEFT"	289.71359999997	883.3333351	n/a	n/a	n/a	n/a	n/a	n/a	n/a	"2021-01-18 13:37:43.541160"	"2021-01-18 13:37:44.039323"	48	2.91902023333333
"S210118"	"Response_Selection"	"LEFT"	"LEFT"	312.020599999983	933.3333352	n/a	n/a	n/a	n/a	n/a	n/a	n/a	"2021-01-18 13:37:44.983510"	"2021-01-18 13:37:45.504535"	49	2.91902023333333
"S210118"	"Response_Selection"	"LEFT"	"LEFT"	325.058399999989	800.0000016	n/a	n/a	n/a	n/a	n/a	n/a	n/a	"2021-01-18 13:37:46.314447"	"2021-01-18 13:37:46.847549"	50	2.91902023333333
"S210118"	"Response_Selection"	"RIGHT"	"RIGHT"	247.741200000007	1350.0000027	n/a	n/a	n/a	n/a	n/a	n/a	n/a	"2021-01-18 13:37:48.207686"	"2021-01-18 13:37:48.664570"	51	2.91902023333333
"S210118"	"Response_Selection"	"LEFT"	"LEFT"	266.870199999971	833.333335	n/a	n/a	n/a	n/a	n/a	n/a	n/a	"2021-01-18 13:37:49.508297"	"2021-01-18 13:37:49.983416"	52	2.91902023333333
"S210118"	"Response_Selection"	"RIGHT"	"RIGHT"	272.124600000041	1300.0000026	n/a	n/a	n/a	n/a	n/a	n/a	n/a	"2021-01-18 13:37:51.295234"	"2021-01-18 13:37:51.776000"	53	2.91902023333333
"S210118"	"Response_Selection"	"LEFT"	"LEFT"	248.066100000017	1116.6666689	n/a	n/a	n/a	n/a	n/a	n/a	n/a	"2021-01-18 13:37:52.902886"	"2021-01-18 13:37:53.358850"	54	2.91902023333333
"S210118"	"Response_Selection"	"LEFT"	"LEFT"	260.611400000016	1416.6666695	n/a	n/a	n/a	n/a	n/a	n/a	n/a	"2021-01-18 13:37:54.786950"	"2021-01-18 13:37:55.258463"	55	2.91902023333333
"S210118"	"Response_Selection"	"RIGHT"	"RIGHT"	322.487700000011	600.0000012	n/a	n/a	n/a	n/a	n/a	n/a	n/a	"2021-01-18 13:37:55.869037"	"2021-01-18 13:37:56.400331"	56	2.91902023333333
"S210118"	"Response_Selection"	"LEFT"	"LEFT"	264.790199999993	1300.0000026	n/a	n/a	n/a	n/a	n/a	n/a	n/a	"2021-01-18 13:37:57.710650"	"2021-01-18 13:37:58.184823"	57	2.91902023333333
"S210118"	"Response_Selection"	"RIGHT"	"RIGHT"	417.676000000029	650.0000013	n/a	n/a	n/a	n/a	n/a	n/a	n/a	"2021-01-18 13:37:58.845559"	"2021-01-18 13:37:59.472057"	58	2.91902023333333
"S210118"	"Response_Selection"	"RIGHT"	"RIGHT"	410.235200000045	1066.6666688	n/a	n/a	n/a	n/a	n/a	n/a	n/a	"2021-01-18 13:38:00.549025"	"2021-01-18 13:38:01.167460"	59	2.91902023333333
"S210118"	"Response_Selection"	"RIGHT"	"RIGHT"	364.23110000004	1033.3333354	n/a	n/a	n/a	n/a	n/a	n/a	n/a	"2021-01-18 13:38:02.210424"	"2021-01-18 13:38:02.783813"	60	2.91902023333333
"S210118"	"Response_Selection"	"RIGHT"	"RIGHT"	341.596799999991	1200.0000024	n/a	n/a	n/a	n/a	n/a	n/a	n/a	"2021-01-18 13:38:03.994039"	"2021-01-18 13:38:04.544201"	61	2.91902023333333
"S210118"	"Response_Selection"	"LEFT"	"LEFT"	300.119999999993	1016.6666687	n/a	n/a	n/a	n/a	n/a	n/a	n/a	"2021-01-18 13:38:05.570921"	"2021-01-18 13:38:06.081796"	62	2.91902023333333
"S210118"	"Response_Selection"	"LEFT"	"LEFT"	397.680600000001	916.6666685	n/a	n/a	n/a	n/a	n/a	n/a	n/a	"2021-01-18 13:38:07.009209"	"2021-01-18 13:38:07.618999"	63	2.91902023333333
"S210118"	"Response_Selection"	"RIGHT"	"RIGHT"	289.545700000019	783.3333349	n/a	n/a	n/a	n/a	n/a	n/a	n/a	"2021-01-18 13:38:08.413058"	"2021-01-18 13:38:08.911923"	64	2.91902023333333
"S210118"	"Response_Selection"	"LEFT"	"LEFT"	367.265900000007	733.3333348	n/a	n/a	n/a	n/a	n/a	n/a	n/a	"2021-01-18 13:38:09.656225"	"2021-01-18 13:38:10.231623"	65	2.91902023333333
"S210118"	"Response_Selection"	"LEFT"	"LEFT"	361.750499999971	1500.000003	n/a	n/a	n/a	n/a	n/a	n/a	n/a	"2021-01-18 13:38:11.741386"	"2021-01-18 13:38:12.314709"	66	2.91902023333333
"S210118"	"Response_Selection"	"LEFT"	"LEFT"	406.72330000001	633.3333346	n/a	n/a	n/a	n/a	n/a	n/a	n/a	"2021-01-18 13:38:12.960377"	"2021-01-18 13:38:13.577211"	67	2.91902023333333
"S210118"	"Response_Selection"	"LEFT"	"LEFT"	328.535299999999	1466.6666696	n/a	n/a	n/a	n/a	n/a	n/a	n/a	"2021-01-18 13:38:15.054382"	"2021-01-18 13:38:15.592608"	68	2.91902023333333
"S210118"	"Response_Selection"	"RIGHT"	"RIGHT"	364.327000000003	583.3333345	n/a	n/a	n/a	n/a	n/a	n/a	n/a	"2021-01-18 13:38:16.187121"	"2021-01-18 13:38:16.761538"	69	2.91902023333333
"S210118"	"Response_Selection"	"LEFT"	"LEFT"	354.345799999976	600.0000012	n/a	n/a	n/a	n/a	n/a	n/a	n/a	"2021-01-18 13:38:17.373116"	"2021-01-18 13:38:17.937778"	70	2.91902023333333
"S210118"	"Response_Selection"	"RIGHT"	"RIGHT"	334.627699999999	1116.6666689	n/a	n/a	n/a	n/a	n/a	n/a	n/a	"2021-01-18 13:38:19.064908"	"2021-01-18 13:38:19.608141"	71	2.91902023333333
"S210118"	"Response_Selection"	"RIGHT"	"RIGHT"	356.049700000028	1416.6666695	n/a	n/a	n/a	n/a	n/a	n/a	n/a	"2021-01-18 13:38:21.034679"	"2021-01-18 13:38:21.599825"	72	2.91902023333333
"S210118"	"Response_Selection"	"RIGHT"	"RIGHT"	415.472000000022	500.000001	n/a	n/a	n/a	n/a	n/a	n/a	n/a	"2021-01-18 13:38:22.111789"	"2021-01-18 13:38:22.736707"	73	2.91902023333333
"S210118"	"Response_Selection"	"RIGHT"	"RIGHT"	349.596099999985	966.6666686	n/a	n/a	n/a	n/a	n/a	n/a	n/a	"2021-01-18 13:38:23.714000"	"2021-01-18 13:38:24.273146"	74	2.91902023333333
"S210118"	"Response_Selection"	"LEFT"	"LEFT"	250.754200000017	1400.0000028	n/a	n/a	n/a	n/a	n/a	n/a	n/a	"2021-01-18 13:38:25.684719"	"2021-01-18 13:38:26.145416"	75	2.91902023333333
"S210118"	"Response_Selection"	"RIGHT"	"RIGHT"	307.319000000007	1216.6666691	n/a	n/a	n/a	n/a	n/a	n/a	n/a	"2021-01-18 13:38:27.371592"	"2021-01-18 13:38:27.889152"	76	2.91902023333333
"S210118"	"Response_Selection"	"RIGHT"	"RIGHT"	345.335599999999	1450.0000029	n/a	n/a	n/a	n/a	n/a	n/a	n/a	"2021-01-18 13:38:29.350083"	"2021-01-18 13:38:29.903956"	77	2.91902023333333
"S210118"	"Response_Selection"	"RIGHT"	"RIGHT"	341.076200000032	800.0000016	n/a	n/a	n/a	n/a	n/a	n/a	n/a	"2021-01-18 13:38:30.714264"	"2021-01-18 13:38:31.263800"	78	2.91902023333333
"S210118"	"Response_Selection"	"LEFT"	"LEFT"	269.633100000021	1350.0000027	n/a	n/a	n/a	n/a	n/a	n/a	n/a	"2021-01-18 13:38:32.625348"	"2021-01-18 13:38:33.104234"	79	2.91902023333333
"S210118"	"Response_Selection"	"RIGHT"	"RIGHT"	282.184400000006	1250.0000025	n/a	n/a	n/a	n/a	n/a	n/a	n/a	"2021-01-18 13:38:34.365307"	"2021-01-18 13:38:34.855698"	80	2.91902023333333
