index	Trial_Type	Participant_ID	Trial_Probability	Question_Position_Prediction_Correct	Question_Position_Prediction_Agent	Question_Position_Comparison_Self	Question_Position_Comparison_Irrelevant	Trial_Stake	Trial_Stake_Jitter	Trial_Type_Jitter	Trial_Result_Jitter	Balance_Update_Jitter	Question_Comparison_Condition	Question_Comparison_Type	Question_Comparison_Question	Question_Comparison_Label	Question_Comparison_Item	Question_Comparison_Proportion_Yes	Question_Factual_Condition	Question_Factual_Item	Question_Factual_Question	Question_Factual_Label	Question_Factual_Proportion_DontKnow	Question_Factual_Type	Answer_Prediction_Correct	Answer_Prediction_Correct_RT	Answer_Prediction_Agent	Answer_Prediction_Agent_RT	Answer_Self	Answer_Self_RT	Answer_Irrelevant	Answer_Irrelevant_RT	Trial_Balance	Trial_Balance_Effect	Trial_Condition	Trial_ProbableSide	Prediction_Choice	Prediction_Result	Prediction_RT	Trial_Order	Trial_Datetime
99	Computer	S201126	0.5	1	2	1	2	0.7	1283.333336	1000.000002	1650.000003	2500.000005	Minor	Good_deeds	28	You have stolen something	C1_50	0.1	Easy	I1_11	38	The Earth turns the closest to the sun in May	0.0	Yes	LEFT	1201.3024	LEFT	1000.3093	LEFT	1159.2825	RIGHT	1718.8607	10.0	0.7	Probable_Lie	RIGHT	RIGHT	1	985.4165004	0	31:16.5
85	Self	S201126	0.833333333	1	2	2	1	0.3	1216.666669	1066.666669	2350.000005	1783.333337	Major	Good_deeds	34	You have signed up as a bone marrow donor	C2_34	0.95	Hard	I1_26	21	Marijuana is legal in Singapore	0.833333333	No	LEFT	979.5102	RIGHT	777.1543	LEFT	1959.0897	LEFT	1490.2099	9.7	0.3	Probable_Lie	LEFT	RIGHT	1	1660.4131	1	31:42.4
27	Self	S201126	0.666666667	2	1	1	2	0.6	1000.000002	1433.333336	2066.666671	1783.333337	Minor	Wrong_doings	33	You have started a hotline for victims of bully	C2_10	0.0	Easy	I2_6	10	Nanyang Technological University is in Australia	1.0	No	RIGHT	3408.1816	RIGHT	1166.4673	LEFT	3635.6761	LEFT	1663.3138	10.3	0.6	Probable_Lie	RIGHT	LEFT	5	2775.5138	2	32:13.9
123	Computer	S201126	0.666666667	2	1	1	2	0.4	1350.000003	1500.000003	2350.000005	2066.666671	Minor	Wrong_doings	33	You have started a hotline for victims of bully	C2_10	0.0	Easy	I2_6	10	Nanyang Technological University is in Australia	1.0	No	LEFT	1648.3194	LEFT	832.5694	LEFT	1750.9481	LEFT	2103.8332	10.3	0.4	Probable_Lie	RIGHT	LEFT	5	673.2995678	3	32:40.7
14	Self	S201126	0.5	2	1	2	1	0.8	1500.000003	1350.000003	2216.666671	2350.000005	Major	Wrong_doings	50	You have let a homeless man into your house	C2_50	0.0	Easy	I2_56	42	Acoustic Kitty refers to cat with implants	0.0	Yes	RIGHT	536.3484	RIGHT	1095.0578	LEFT	1903.9945	LEFT	2580.5238	11.1	0.8	Probable_Truth	RIGHT	LEFT	3	2719.5213	4	33:09.5
88	Self	S201126	0.833333333	2	1	1	2	0.2	1000.000002	1350.000003	1500.000003	1650.000003	Major	Wrong_doings	31	You have borrowed things and never returned	C2_31	0.0	Easy	I2_48	39	Cleopatra was born in Greece	0.722222222	Yes	RIGHT	1039.5612	RIGHT	757.5799	LEFT	2855.979	LEFT	2342.6085	11.3	0.2	Probable_Lie	RIGHT	LEFT	3	1644.3092	5	33:36.2
122	Computer	S201126	0.666666667	2	1	1	2	0.7	1500.000003	1150.000002	1783.333337	2500.000005	Minor	Good_deeds	3	You have used heroin	C1_36	0.0	Hard	I2_5	6	There are 6000 spoken languages in the World	0.0	Yes	LEFT	1705.1305	LEFT	954.0284	LEFT	1303.5022	RIGHT	1528.3636	11.3	0.7	Probable_Lie	LEFT	RIGHT	1	752.3718747	6	34:02.0
35	Self	S201126	0.833333333	1	2	1	2	0.7	1216.666669	1066.666669	1933.333337	2500.000005	Minor	Good_deeds	27	You have held the door open for a stranger	C2_1	1.0	Easy	I2_1	9	The human's inner ear is larger than a pencil eraser	0.888888889	No	LEFT	2076.3558	RIGHT	719.9059	RIGHT	2564.8958	LEFT	3815.2175	10.6	0.7	Probable_Lie	LEFT	RIGHT	1	1491.8132	7	34:32.0
96	Computer	S201126	0.5	1	2	1	2	0.8	1000.000002	1350.000003	1500.000003	1783.333337	Major	Good_deeds	16	You have cheated on a national exam	C2_28	0.85	Easy	I2_13	33	Polish is 20th most spoken language in the World	0.0	Yes	LEFT	2411.9223	LEFT	840.4263	LEFT	2570.5676	LEFT	2343.393	10.6	0.8	Probable_Lie	LEFT	RIGHT	3	979.1547863	8	34:59.3
26	Self	S201126	0.666666667	2	1	1	2	0.8	1350.000003	1500.000003	2350.000005	1933.333337	Minor	Good_deeds	3	You have used heroin	C1_36	0.0	Hard	I2_5	6	There are 6000 spoken languages in the World	0.0	Yes	LEFT	703.9235	RIGHT	907.9136	LEFT	1275.9426	RIGHT	2670.9032	9.8	0.8	Probable_Lie	RIGHT	LEFT	4	1511.2316	9	35:26.1
65	Self	S201126	0.666666667	1	2	1	2	0.5	1283.333336	1350.000003	2500.000005	1650.000003	Major	Good_deeds	23	You have given up your seat in the MRT	C1_57	0.5	Hard	I1_39	39	Mozambique is the world's poorest country	0.0	Yes	RIGHT	1341.0604	RIGHT	497.111	RIGHT	1320.9449	LEFT	1823.8805	10.3	0.5	Probable_Lie	RIGHT	RIGHT	2	2912.0852	10	35:53.3
43	Self	S201126	0.833333333	2	1	1	2	0.8	1066.666669	1283.333336	2350.000005	1500.000003	Minor	Wrong_doings	3	You have given way to the handicapped	C2_42	0.0	Hard	I2_12	52	Dutch is the 6th Europe's most widely spoken language	0.0	Yes	RIGHT	416.8848	RIGHT	940.3801	RIGHT	2244.7861	LEFT	2559.2562	11.1	0.8	Probable_Lie	RIGHT	LEFT	2	1963.8464	11	36:20.2
8	Self	S201126	0.5	2	1	1	2	0.2	1216.666669	1150.000002	1783.333337	1500.000003	Minor	Wrong_doings	25	You have eaten something in the MRT train	C2_46	1.0	Hard	I2_28	25	It sometimes snows in Singapore	0.0	Yes	RIGHT	464.7425	RIGHT	931.3046	LEFT	1515.2061	LEFT	1799.2577	11.3	0.2	Probable_Truth	RIGHT	LEFT	3	1736.4804	12	36:44.9
42	Self	S201126	0.833333333	2	1	1	2	0.7	1433.333336	1500.000003	2216.666671	1783.333337	Major	Good_deeds	40	You have donated a pay cheque to charity	C1_8	0.0	Easy	I2_41	6	Arabi is the oldest surviving breed of horse	0.888888889	No	RIGHT	487.9283	RIGHT	1025.6169	RIGHT	1475.4969	RIGHT	2279.2183	12.0	0.7	Probable_Truth	LEFT	LEFT	1	1540.9508	13	37:11.2
129	Computer	S201126	0.833333333	1	2	1	2	0.5	1433.333336	1350.000003	1783.333337	1783.333337	Major	Wrong_doings	13	You have stopped using plastics completely	C2_27	1.0	Easy	I1_50	25	Mexico's National Day is September 16	0.0	Yes	LEFT	2360.8241	LEFT	689.1074	RIGHT	2145.386	LEFT	1496.6413	12.0	0.5	Probable_Lie	LEFT	RIGHT	1	501.3924466	14	37:37.3
120	Computer	S201126	0.666666667	2	1	1	2	0.5	1216.666669	1066.666669	2066.666671	1500.000003	Major	Good_deeds	36	You have started a movement to support a cause	C1_51	0.7	Easy	I1_44	44	The current century is 21st	0.944444444	Yes	LEFT	545.4145	LEFT	826.0791	RIGHT	1950.103	RIGHT	1920.0837	12.0	0.5	Probable_Lie	LEFT	LEFT	5	504.7023135	15	38:01.5
98	Computer	S201126	0.5	1	2	1	2	0.4	1216.666669	1500.000003	1783.333337	2216.666671	Major	Wrong_doings	50	You have rescued others from a catastrophe	C1_43	0.85	Hard	I1_38	45	Astatine is the rarest element in the Earth's crust	0.888888889	No	LEFT	877.7613	LEFT	793.6849	RIGHT	1432.8281	LEFT	2430.5258	12.0	0.4	Probable_Truth	RIGHT	LEFT	2	625.1603765	16	38:26.9
92	Self	S201126	0.833333333	2	1	2	1	0.7	1216.666669	1066.666669	2500.000005	1500.000003	Minor	Good_deeds	39	You have said sorry when you were rude	C1_4	0.95	Easy	I1_48	58	Fibers in oranges can be used to make fabric	0.722222222	Yes	RIGHT	519.2066	RIGHT	837.7703	RIGHT	1311.1824	RIGHT	3012.2379	12.7	0.7	Probable_Lie	RIGHT	LEFT	5	1293.4914	17	38:52.8
48	Self	S201126	0.5	1	2	1	2	0.1	1066.666669	1433.333336	2066.666671	1783.333337	Minor	Good_deeds	20	You have been restricting your electricity consumption	C1_19	1.0	Hard	I2_8	37	Hot chocolate was created by the Mayan culture	0.666666667	No	RIGHT	815.6433	RIGHT	696.7018	RIGHT	1594.5833	RIGHT	2631.9207	12.8	0.1	Probable_Truth	LEFT	LEFT	1	971.5757	18	39:18.4
113	Computer	S201126	0.666666667	1	2	1	2	0.6	1283.333336	1000.000002	1783.333337	1783.333337	Major	Wrong_doings	42	You have faked an illness	C1_42	1.0	Easy	I2_16	58	There are 6 million animal species on Earth	0.666666667	No	LEFT	899.2072	LEFT	816.6104	LEFT	1281.7542	RIGHT	2950.9065	12.8	0.6	Probable_Lie	RIGHT	RIGHT	2	825.2199068	19	39:43.6
103	Computer	S201126	0.5	1	2	2	1	0.5	1433.333336	1283.333336	1933.333337	1933.333337	Minor	Wrong_doings	7	You have intentionally let others cut in line	C2_54	0.05	Hard	I2_60	60	There are 9 rings in the Olympic flag	0.055555556	No	LEFT	1184.9312	LEFT	799.7338	LEFT	3479.2499	LEFT	2115.9452	12.8	0.5	Probable_Lie	RIGHT	RIGHT	3	875.518502	20	40:11.2
118	Computer	S201126	0.666666667	1	2	2	1	0.8	1216.666669	1500.000003	2216.666671	2500.000005	Minor	Wrong_doings	57	You have participated in a scamming business	C2_14	0.05	Hard	I2_11	31	Statute of Liberty is in New York	0.722222222	Yes	RIGHT	915.1808	LEFT	576.4142	LEFT	1552.0317	RIGHT	1189.2973	12.8	0.8	Probable_Truth	RIGHT	RIGHT	3	507.2680321	21	40:35.9
41	Self	S201126	0.833333333	2	1	1	2	0.6	1216.666669	1000.000002	2500.000005	1933.333337	Minor	Good_deeds	42	You have gossiped about your best friend	C2_2	0.55	Easy	I2_52	41	Brazil is in South America	0.888888889	Yes	RIGHT	432.781	RIGHT	804.3041	LEFT	1490.4838	RIGHT	847.3005	13.4	0.6	Probable_Truth	LEFT	LEFT	1	1323.3417	22	41:00.1
128	Computer	S201126	0.833333333	1	2	1	2	0.1	1500.000003	1433.333336	1650.000003	2066.666671	Minor	Good_deeds	45	You have told someone's secret to others	C1_44	0.05	Hard	I1_40	50	Animals are living things	1.0	Yes	LEFT	734.2165	LEFT	576.6919	LEFT	2743.7367	RIGHT	967.0604	13.4	0.1	Probable_Lie	RIGHT	LEFT	4	958.1646047	23	41:25.3
117	Computer	S201126	0.666666667	1	2	2	1	0.3	1433.333336	1350.000003	1500.000003	1933.333337	Minor	Good_deeds	5	You have been sued	C1_5	0.9	Easy	I2_33	17	It is snowing outside now	0.055555556	Yes	LEFT	639.5472	LEFT	497.4558	LEFT	1079.6405	LEFT	1141.3346	13.4	0.3	Probable_Lie	RIGHT	RIGHT	1	835.6192386	24	41:48.2
22	Self	S201126	0.666666667	1	2	2	1	0.1	1216.666669	1066.666669	2216.666671	2066.666671	Minor	Wrong_doings	57	You have participated in a scamming business	C2_14	0.05	Hard	I2_11	31	Statute of Liberty is in New York	0.722222222	Yes	RIGHT	1184.1133	RIGHT	695.9251	LEFT	1007.2039	RIGHT	1175.399	13.5	0.1	Probable_Truth	LEFT	LEFT	1	1283.1809	25	42:12.7
40	Self	S201126	0.833333333	2	1	1	2	0.4	1283.333336	1216.666669	1650.000003	2216.666671	Major	Good_deeds	31	You have started an NGO using your savings	C1_20	1.0	Hard	I2_22	8	Afghan Hound is the first cloned cat	0.055555556	Yes	RIGHT	464.1117	RIGHT	640.3552	RIGHT	3265.3165	LEFT	2462.7066	13.9	0.4	Probable_Truth	RIGHT	RIGHT	2	1030.3007	26	42:39.5
81	Self	S201126	0.833333333	1	2	1	2	0.8	1433.333336	1283.333336	1650.000003	2350.000005	Minor	Wrong_doings	9	You have done something against your values	C2_17	0.1	Easy	I2_46	59	It takes 112 years to build the Pisa Tower	0.944444444	Yes	RIGHT	694.8625	RIGHT	613.6402	LEFT	1652.826	RIGHT	1871.6101	14.7	0.8	Probable_Truth	RIGHT	RIGHT	4	955.2062	27	43:04.6
24	Self	S201126	0.666666667	2	1	1	2	0.7	1500.000003	1283.333336	2216.666671	2350.000005	Major	Good_deeds	36	You have started a movement to support a cause	C1_51	0.7	Easy	I1_44	44	The current century is 21st	0.944444444	Yes	RIGHT	615.5137	RIGHT	743.6448	RIGHT	1299.205	RIGHT	711.7391	15.4	0.7	Probable_Lie	LEFT	LEFT	3	1002.7012	28	43:28.9
78	Self	S201126	0.666666667	2	1	2	1	0.5	1066.666669	1066.666669	1783.333337	1500.000003	Minor	Wrong_doings	38	You have adopted a zero-waste lifestyle	C1_30	0.15	Hard	I2_24	53	Kangaroos live in Africa	0.888888889	No	RIGHT	368.4155	RIGHT	627.7037	RIGHT	1943.3785	LEFT	1436.0395	15.9	0.5	Probable_Truth	RIGHT	RIGHT	3	1074.1129	29	43:52.3
45	Self	S201126	0.833333333	2	1	2	1	0.1	1500.000003	1350.000003	2066.666671	2500.000005	Major	Good_deeds	20	You have illegally stayed in a country	C1_31	0.2	Hard	I1_45	45	Milwaukee Art Museum is located in California	0.0	Yes	RIGHT	407.8299	RIGHT	838.1839	LEFT	1158.8946	RIGHT	2301.7537	16.0	0.1	Probable_Lie	RIGHT	RIGHT	1	868.2159	30	44:17.9
84	Self	S201126	0.833333333	1	2	2	1	0.5	1283.333336	1216.666669	2216.666671	2500.000005	Minor	Good_deeds	34	You have helped your parents when asked to	C1_47	0.05	Easy	I1_53	23	Septicemia is a lung infection condition	0.0	Yes	RIGHT	1024.7786	RIGHT	544.8629	RIGHT	2271.852	RIGHT	4341.9888	16.5	0.5	Probable_Truth	LEFT	LEFT	1	1035.4295	31	44:46.9
80	Self	S201126	0.833333333	1	2	1	2	0.6	1350.000003	1000.000002	1783.333337	1933.333337	Minor	Wrong_doings	47	You have bribed a police officer	C1_12	1.0	Easy	I1_36	31	Teddy Roosevelt was the youngest US President	0.833333333	No	RIGHT	1354.0777	RIGHT	679.8658	LEFT	1019.6829	RIGHT	2446.9444	17.1	0.6	Probable_Lie	LEFT	LEFT	6	634.572	32	45:11.7
130	Computer	S201126	0.833333333	1	2	1	2	0.2	1066.666669	1066.666669	1933.333337	2216.666671	Major	Wrong_doings	49	You have risked your life to save another person's life	C2_37	0.0	Hard	I1_13	40	"Statue of Liberty is 151 feet tall"	0.666666667	Yes	LEFT	958.3584	LEFT	1025.1584	RIGHT	2192.6913	LEFT	2343.4379	17.1	0.2	Probable_Lie	LEFT	RIGHT	1	747.4843218	33	45:37.8
124	Computer	S201126	0.666666667	2	1	2	1	0.3	1000.000002	1433.333336	2216.666671	2216.666671	Major	Good_deeds	53	You have said thank you when you have received help	C2_33	0.0	Hard	I1_15	5	A dog has four legs	0.888888889	No	LEFT	1343.7468	LEFT	992.0586	LEFT	1408.3271	RIGHT	1208.4998	17.1	0.3	Probable_Lie	LEFT	RIGHT	2	825.9516337	34	46:03.0
21	Self	S201126	0.666666667	1	2	2	1	0.7	1433.333336	1433.333336	1650.000003	2350.000005	Minor	Good_deeds	5	You have been sued	C1_5	0.9	Easy	I2_33	17	It is snowing outside now	0.055555556	Yes	RIGHT	893.6163	RIGHT	673.0191	LEFT	904.3328	LEFT	1026.1414	17.8	0.7	Probable_Truth	LEFT	LEFT	2	679.1132	35	46:26.6
51	Self	S201126	0.5	1	2	1	2	0.8	1350.000003	1216.666669	2350.000005	2500.000005	Minor	Wrong_doings	38	You have complimented others for good work	C1_48	0.95	Hard	I1_4	50	Singapore is in Africa	0.777777778	Yes	RIGHT	746.7731	RIGHT	583.3333	RIGHT	1622.9914	LEFT	896.4665	18.6	0.8	Probable_Truth	RIGHT	LEFT	3	1489.0009	36	46:52.0
115	Computer	S201126	0.666666667	1	2	1	2	0.2	1500.000003	1283.333336	2066.666671	1650.000003	Minor	Good_deeds	18	You have provided shelter for stray animals	C2_56	0.2	Easy	I1_31	11	Singapore is a poor country	0.888888889	No	RIGHT	1326.4312	LEFT	592.443	LEFT	2000.1848	LEFT	968.7703	18.6	0.2	Probable_Truth	RIGHT	RIGHT	5	615.1789986	37	47:16.5
7	Self	S201126	0.5	1	2	2	1	0.6	1216.666669	1433.333336	1500.000003	2500.000005	Minor	Wrong_doings	7	You have intentionally let others cut in line	C2_54	0.05	Hard	I2_60	60	There are 9 rings in the Olympic flag	0.055555556	No	RIGHT	936.9284	RIGHT	952.5314	LEFT	2912.273	LEFT	1237.0867	19.2	0.6	Probable_Truth	LEFT	LEFT	2	1293.2262	38	47:43.1
141	Computer	S201126	0.833333333	2	1	2	1	0.4	1000.000002	1500.000003	2216.666671	2066.666671	Major	Good_deeds	20	You have illegally stayed in a country	C1_31	0.2	Hard	I1_45	45	Milwaukee Art Museum is located in California	0.0	Yes	LEFT	488.257	LEFT	716.4532	LEFT	896.1123	LEFT	2126.096	19.2	0.4	Probable_Lie	RIGHT	RIGHT	1	815.2300748	39	48:07.5
66	Self	S201126	0.666666667	1	2	1	2	0.3	1216.666669	1000.000002	2350.000005	2350.000005	Minor	Good_deeds	57	You have engaged in drink-driving	C1_23	0.05	Hard	I2_3	14	Some owl species hunt fish	0.0	No	RIGHT	1203.7647	RIGHT	929.072	LEFT	1044.2582	RIGHT	2967.7612	19.5	0.3	Probable_Truth	RIGHT	RIGHT	4	752.4038	40	48:33.9
34	Self	S201126	0.833333333	1	2	1	2	0.2	1000.000002	1350.000003	1783.333337	1933.333337	Major	Wrong_doings	49	You have risked your life to save another person's life	C2_37	0.0	Hard	I1_13	40	"Statue of Liberty is 151 feet tall"	0.666666667	Yes	RIGHT	626.3534	RIGHT	448.8456	RIGHT	1692.9809	LEFT	1662.6209	19.7	0.2	Probable_Lie	LEFT	LEFT	3	899.2795	41	48:57.9
39	Self	S201126	0.833333333	1	2	2	1	0.8	1433.333336	1283.333336	1650.000003	2216.666671	Minor	Good_deeds	1	You have extorted money from anyone	C1_49	0.95	Easy	I2_43	2	The sun rises at night	1.0	Yes	RIGHT	966.9648	RIGHT	687.5911	LEFT	983.301	LEFT	1320.5865	20.5	0.8	Probable_Truth	LEFT	LEFT	1	745.9707	42	49:21.7
63	Self	S201126	0.5	2	1	2	1	0.2	1216.666669	1150.000002	2350.000005	2350.000005	Major	Wrong_doings	22	You have taken months off to volunteer	C1_11	0.7	Hard	I1_57	12	North Korea is more developed than South Korea	0.611111111	No	RIGHT	368.5669	RIGHT	842.2689	RIGHT	2392.3331	LEFT	2034.0322	20.7	0.2	Probable_Truth	LEFT	RIGHT	6	1584.1303	43	49:48.6
114	Computer	S201126	0.666666667	1	2	1	2	0.5	1150.000002	1150.000002	1933.333337	1500.000003	Major	Wrong_doings	56	You have volunteered for a disaster-related humanitarian mission	C1_58	0.9	Hard	I1_58	3	A caterpillar has more muscle than a human	0.0	Yes	LEFT	1924.8131	LEFT	800.7826	RIGHT	2037.7039	LEFT	1999.6221	20.7	0.5	Probable_Lie	RIGHT	LEFT	3	969.5009426	44	50:14.6
127	Computer	S201126	0.666666667	2	1	2	1	0.6	1283.333336	1350.000003	1650.000003	2350.000005	Minor	Wrong_doings	10	You have engaged in arson	C1_1	1.0	Hard	I2_4	15	French is Singapore's official language	0.944444444	Yes	LEFT	1079.708	LEFT	780.9314	LEFT	1408.6575	LEFT	1379.7643	20.7	0.6	Probable_Lie	RIGHT	RIGHT	2	734.4587491	45	50:39.2
116	Computer	S201126	0.666666667	1	2	2	1	0.7	1066.666669	1216.666669	2350.000005	2066.666671	Minor	Good_deeds	27	You have switched off appliances when not in use	C2_57	0.0	Hard	I1_17	33	There are 7 days in a week	0.777777778	No	RIGHT	1036.5812	LEFT	823.8355	RIGHT	1358.5863	RIGHT	1222.6803	20.7	0.7	Probable_Truth	LEFT	RIGHT	5	782.2129193	46	51:03.7
11	Self	S201126	0.5	2	1	1	2	0.6	1066.666669	1216.666669	1500.000003	1783.333337	Major	Good_deeds	17	You have bribed someone to improve a grade	C1_17	0.05	Hard	I1_2	56	Lehman Brothers went bankrupt on 20th September	0.055555556	Yes	RIGHT	520.5093	RIGHT	716.9447	LEFT	1570.7565	RIGHT	2735.5443	21.3	0.6	Probable_Truth	RIGHT	LEFT	2	926.8993	47	51:28.3
57	Self	S201126	0.5	2	1	1	2	0.6	1000.000002	1216.666669	1650.000003	1783.333337	Minor	Good_deeds	11	You have made counterfeit money	C2_13	0.75	Hard	I2_36	30	Most plants emit oxygen in the day	0.611111111	Yes	RIGHT	393.2904	RIGHT	631.078	LEFT	1111.7932	RIGHT	1568.5777	21.9	0.6	Probable_Lie	RIGHT	LEFT	5	1236.3373	48	53:50.4
90	Self	S201126	0.833333333	2	1	1	2	0.3	1066.666669	1433.333336	2350.000005	2350.000005	Minor	Wrong_doings	29	You have donated blood every 6 months for many years	C2_29	0.95	Hard	I1_24	48	Carnivore refers to meat-eater	0.611111111	Yes	RIGHT	360.4808	RIGHT	660.5431	RIGHT	1810.6234	RIGHT	2584.6629	22.2	0.3	Probable_Lie	LEFT	LEFT	4	746.7465	49	54:16.3
16	Self	S201126	0.666666667	1	2	1	2	0.4	1500.000003	1283.333336	1500.000003	1783.333337	Major	Good_deeds	58	You have helped with household chores	C2_18	0.7	Hard	I1_3	16	Earth's atmosphere extends up to 10,000km into space	0.0	No	RIGHT	733.192	RIGHT	536.0981	RIGHT	1162.9131	RIGHT	2485.6589	22.6	0.4	Probable_Lie	RIGHT	RIGHT	1	871.5581	50	54:40.8
136	Computer	S201126	0.833333333	2	1	1	2	0.5	1066.666669	1000.000002	2066.666671	1783.333337	Major	Good_deeds	31	You have started an NGO using your savings	C1_20	1.0	Hard	I2_22	8	Afghan Hound is the first cloned cat	0.055555556	Yes	LEFT	1095.624	LEFT	848.0278	RIGHT	2490.9977	LEFT	1768.2499	22.6	0.5	Probable_Lie	LEFT	RIGHT	1	510.8517182	51	55:06.0
1	Self	S201126	0.5	1	2	1	2	0.4	1433.333336	1216.666669	2066.666671	1500.000003	Major	Good_deeds	7	You have shown your appreciation to your teachers	C2_7	1.0	Hard	I1_33	5	Chickens lay eggs	0.888888889	No	RIGHT	774.3932	RIGHT	928.3799	RIGHT	2348.3831	RIGHT	934.9923	23.0	0.4	Probable_Truth	LEFT	RIGHT	6	1277.8067	52	55:31.0
105	Computer	S201126	0.5	2	1	1	2	0.7	1283.333336	1350.000003	2216.666671	1783.333337	Minor	Good_deeds	35	You have bought cigarettes for a minor	C1_35	0.0	Hard	I2_35	41	A triangle has three sides	0.722222222	No	LEFT	1135.3342	LEFT	1092.8065	LEFT	1466.6744	RIGHT	1880.4439	23.0	0.7	Probable_Truth	RIGHT	LEFT	2	889.4838386	53	55:56.7
38	Self	S201126	0.833333333	1	2	2	1	0.3	1066.666669	1500.000003	2350.000005	2066.666671	Major	Wrong_doings	44	You have engaged in underage smoking	C1_9	0.8	Easy	I1_9	13	Malay is one of the races in Singapore	0.0	No	RIGHT	546.6056	RIGHT	552.4855	LEFT	1008.9916	RIGHT	2647.7095	23.3	0.3	Probable_Truth	RIGHT	RIGHT	5	858.8684	54	56:21.9
17	Self	S201126	0.666666667	1	2	1	2	0.6	1000.000002	1150.000002	2500.000005	1650.000003	Major	Wrong_doings	42	You have faked an illness	C1_42	1.0	Easy	I2_16	58	There are 6 million animal species on Earth	0.666666667	No	RIGHT	580.4124	RIGHT	552.927	LEFT	783.1813	RIGHT	2270.8712	23.9	0.6	Probable_Truth	RIGHT	RIGHT	3	881.5157	55	56:45.8
20	Self	S201126	0.666666667	1	2	2	1	0.5	1283.333336	1000.000002	1933.333337	2500.000005	Minor	Good_deeds	27	You have switched off appliances when not in use	C2_57	0.0	Hard	I1_17	33	There are 7 days in a week	0.777777778	No	RIGHT	626.9016	RIGHT	688.193	RIGHT	1272.6907	RIGHT	877.6027	24.4	0.5	Probable_Truth	RIGHT	RIGHT	6	763.8862	56	57:09.3
138	Computer	S201126	0.833333333	2	1	1	2	0.3	1500.000003	1066.666669	1933.333337	1650.000003	Major	Good_deeds	40	You have donated a pay cheque to charity	C1_8	0.0	Easy	I2_41	6	Arabi is the oldest surviving breed of horse	0.888888889	No	LEFT	799.6091	LEFT	673.2739	RIGHT	1272.1832	RIGHT	1503.3366	24.4	0.3	Probable_Lie	LEFT	RIGHT	1	630.8205712	57	57:32.9
19	Self	S201126	0.666666667	1	2	1	2	0.8	1150.000002	1500.000003	2066.666671	1933.333337	Minor	Good_deeds	18	You have provided shelter for stray animals	C2_56	0.2	Easy	I1_31	11	Singapore is a poor country	0.888888889	No	RIGHT	750.3276	RIGHT	631.0803	RIGHT	1372.486	LEFT	944.0786	25.2	0.8	Probable_Truth	RIGHT	RIGHT	6	747.8081	58	57:56.6
142	Computer	S201126	0.833333333	2	1	2	1	0.6	1150.000002	1350.000003	1500.000003	2350.000005	Major	Wrong_doings	8	You have bought cocaine	C2_40	1.0	Easy	I1_6	43	There are 30 hours in a day	0.0	No	LEFT	592.8088	LEFT	714.6718	LEFT	864.6825	LEFT	1708.6113	25.2	0.6	Probable_Lie	LEFT	RIGHT	1	992.9953784	59	58:20.4
133	Computer	S201126	0.833333333	1	2	2	1	0.3	1150.000002	1150.000002	2500.000005	2500.000005	Minor	Good_deeds	9	You have confessed to your mistake	C2_45	0.05	Hard	I2_2	1	R. Amundsen discovered the South Pole	0.0	No	LEFT	1308.4858	LEFT	657.0829	RIGHT	1383.1035	RIGHT	2318.7808	25.2	0.3	Probable_Lie	RIGHT	LEFT	2	772.487589	60	58:46.7
58	Self	S201126	0.5	2	1	1	2	0.1	1433.333336	1283.333336	2066.666671	2216.666671	Major	Good_deeds	45	You have attended all lectures as a student	C1_22	0.2	Easy	I1_28	26	The hardest bone in human body is the jawbone	0.0	No	RIGHT	487.5021	RIGHT	901.8813	RIGHT	1534.5954	RIGHT	1510.6506	25.3	0.1	Probable_Truth	RIGHT	RIGHT	4	1004.1606	61	59:11.7
77	Self	S201126	0.666666667	2	1	2	1	0.1	1433.333336	1150.000002	1933.333337	2500.000005	Major	Wrong_doings	30	You have cheated on a test	C2_6	1.0	Hard	I1_27	21	The first Olympic Games was held in the 5th century B.C	0.944444444	No	RIGHT	360.0121	RIGHT	651.3839	LEFT	1071.7088	RIGHT	2604.4317	25.4	0.1	Probable_Lie	RIGHT	RIGHT	1	913.5638	62	59:36.9
54	Self	S201126	0.5	1	2	2	1	0.3	1150.000002	1000.000002	1783.333337	1650.000003	Major	Good_deeds	48	You have been arrested	C2_20	0.0	Easy	I2_18	19	Nomophobia is the fear of being without a phone or computer	0.0	No	RIGHT	858.4054	RIGHT	577.4207	LEFT	856.2516	RIGHT	3088.5082	25.7	0.3	Probable_Lie	LEFT	LEFT	4	1909.9531	63	00:02.4
86	Self	S201126	0.833333333	1	2	2	1	0.4	1500.000003	1350.000003	1500.000003	2216.666671	Major	Wrong_doings	12	You have organized a violent protest	C1_34	0.0	Hard	I2_31	36	China is a part of Asia	1.0	No	RIGHT	860.6131	RIGHT	592.465	LEFT	991.4469	RIGHT	1520.6817	26.1	0.4	Probable_Truth	RIGHT	RIGHT	5	742.2336	64	00:26.2
70	Self	S201126	0.666666667	1	2	2	1	0.2	1433.333336	1500.000003	1783.333337	2066.666671	Major	Wrong_doings	14	You have assisted in a crime	C2_30	1.0	Hard	I1_14	34	Obama is the USA president now	0.833333333	No	RIGHT	1081.843	RIGHT	367.4257	LEFT	1088.7447	LEFT	1542.5542	26.3	0.2	Probable_Lie	RIGHT	RIGHT	1	725.0149	65	00:50.4
89	Self	S201126	0.833333333	2	1	1	2	0.5	1150.000002	1283.333336	1783.333337	2500.000005	Major	Wrong_doings	48	You have pretended to be busy to avoid a social situation	C1_39	0.8	Easy	I2_58	48	Bears have the biggest eyes among mammals	0.055555556	No	RIGHT	424.439	RIGHT	659.0607	RIGHT	2572.8129	LEFT	2798.2448	26.8	0.5	Probable_Truth	LEFT	LEFT	1	776.7218	66	01:16.9
10	Self	S201126	0.5	2	1	1	2	0.5	1433.333336	1066.666669	2066.666671	1650.000003	Major	Wrong_doings	33	You have kept your promises	C2_19	0.55	Easy	I1_41	38	Algeria is Africa's second largest country	0.888888889	No	RIGHT	672.3734	RIGHT	707.7348	RIGHT	1047.3688	RIGHT	1736.6358	27.3	0.5	Probable_Lie	RIGHT	RIGHT	1	973.2707	67	01:40.8
87	Self	S201126	0.833333333	1	2	2	1	0.2	1000.000002	1150.000002	1933.333337	2066.666671	Minor	Good_deeds	29	You have claimed doing things that you never did	C1_29	0.55	Easy	I2_59	46	Singapore ranked 8th in World's smallest countries	0.0	Yes	RIGHT	835.5795	RIGHT	480.1262	LEFT	2023.5038	LEFT	3336.0714	27.5	0.2	Probable_Truth	RIGHT	RIGHT	2	896.1605	68	02:07.1
119	Computer	S201126	0.666666667	1	2	2	1	0.4	1000.000002	1066.666669	2500.000005	2216.666671	Major	Wrong_doings	14	You have downloaded pirated movies	C1_27	0.0	Easy	I2_27	27	The Amazon forest covers an area of 1 billion acres	0.0	Yes	LEFT	1237.3548	LEFT	816.2018	LEFT	1087.8963	RIGHT	2089.2957	27.5	0.4	Probable_Truth	LEFT	LEFT	2	770.5242989	69	02:32.5
60	Self	S201126	0.5	2	1	2	1	0.8	1066.666669	1350.000003	2216.666671	2500.000005	Minor	Good_deeds	16	You have violated a traffic law	C2_59	0.0	Easy	I2_49	49	The Franco-Prussian War occurred in the 19th century	0.833333333	Yes	RIGHT	416.3867	RIGHT	951.5247	LEFT	1199.3402	RIGHT	2789.7167	28.3	0.8	Probable_Lie	RIGHT	RIGHT	1	1117.2489	70	02:58.7
32	Self	S201126	0.833333333	1	2	1	2	0.5	1283.333336	1433.333336	2216.666671	1783.333337	Minor	Good_deeds	45	You have told someone's secret to others	C1_44	0.05	Hard	I1_40	50	Animals are living things	1.0	Yes	RIGHT	856.0473	RIGHT	888.8377	LEFT	2203.2678	RIGHT	855.8446	28.8	0.5	Probable_Lie	RIGHT	RIGHT	1	872.9262	71	03:23.6
37	Self	S201126	0.833333333	1	2	2	1	0.4	1350.000003	1216.666669	1500.000003	1650.000003	Minor	Good_deeds	9	You have confessed to your mistake	C2_45	0.05	Hard	I2_2	1	R. Amundsen discovered the South Pole	0.0	No	RIGHT	517.8993	RIGHT	329.3556	RIGHT	1032.0481	RIGHT	1232.1366	29.2	0.4	Probable_Truth	RIGHT	RIGHT	6	590.9922	72	03:45.6
23	Self	S201126	0.666666667	1	2	2	1	0.2	1350.000003	1216.666669	1783.333337	2216.666671	Major	Wrong_doings	14	You have downloaded pirated movies	C1_27	0.0	Easy	I2_27	27	The Amazon forest covers an area of 1 billion acres	0.0	Yes	RIGHT	782.4427	RIGHT	430.9135	LEFT	711.9279	RIGHT	1433.7782	29.4	0.2	Probable_Lie	RIGHT	RIGHT	2	663.7743	73	04:08.8
137	Computer	S201126	0.833333333	2	1	1	2	0.7	1433.333336	1150.000002	2500.000005	2216.666671	Minor	Good_deeds	42	You have gossiped about your best friend	C2_2	0.55	Easy	I2_52	41	Brazil is in South America	0.888888889	Yes	LEFT	632.1281	LEFT	1262.2028	LEFT	1489.4809	RIGHT	1104.5941	29.4	0.7	Probable_Lie	LEFT	LEFT	6	881.0276243	74	04:34.0
91	Self	S201126	0.833333333	2	1	1	2	0.1	1433.333336	1150.000002	1933.333337	1783.333337	Major	Wrong_doings	4	You have volunteered every week for many years	C1_37	1.0	Hard	I1_1	1	Penguin can fly with their wings	0.0	No	RIGHT	327.3646	RIGHT	557.1203	RIGHT	1410.7904	LEFT	1752.3037	29.5	0.1	Probable_Truth	RIGHT	RIGHT	3	905.4486	75	04:57.8
100	Computer	S201126	0.5	1	2	2	1	0.3	1350.000003	1150.000002	2216.666671	1500.000003	Minor	Wrong_doings	54	You have failed to keep promises	C1_16	0.65	Easy	I2_51	51	A square has 3 corners	0.777777778	Yes	LEFT	1524.6212	LEFT	711.6675	LEFT	1071.772	LEFT	1478.3381	29.5	0.3	Probable_Lie	LEFT	RIGHT	1	687.4331332	76	05:22.1
5	Self	S201126	0.5	1	2	2	1	0.5	1500.000003	1283.333336	1783.333337	1933.333337	Minor	Good_deeds	43	You have stopped using products tested on animals	C2_39	0.05	Hard	I2_45	13	The Earth is round	0.0	No	RIGHT	569.5779	RIGHT	720.8432	RIGHT	2688.4143	RIGHT	1053.8483	30.0	0.5	Probable_Truth	RIGHT	RIGHT	6	904.4409	77	05:47.1
134	Computer	S201126	0.833333333	1	2	2	1	0.6	1283.333336	1283.333336	2066.666671	2350.000005	Major	Wrong_doings	44	You have engaged in underage smoking	C1_9	0.8	Easy	I1_9	13	Malay is one of the races in Singapore	0.0	No	LEFT	743.1545	LEFT	545.3657	LEFT	992.6069	RIGHT	1325.3354	30.0	0.6	Probable_Lie	LEFT	RIGHT	1	906.8243323	78	06:11.2
52	Self	S201126	0.5	1	2	2	1	0.5	1433.333336	1283.333336	1650.000003	2350.000005	Major	Good_deeds	60	You have coveted things that belong to others	C2_58	0.95	Hard	I1_37	60	Fishes can swim in water	0.111111111	Yes	RIGHT	1326.9548	RIGHT	520.7284	LEFT	1110.4022	RIGHT	2396.7655	30.5	0.5	Probable_Lie	LEFT	RIGHT	2	780.6733	79	06:36.6
67	Self	S201126	0.666666667	1	2	1	2	0.1	1150.000002	1066.666669	1500.000003	2500.000005	Major	Good_deeds	30	You have given directions to a lost tourist	C2_23	0.95	Hard	I2_44	54	The first Grammy awards was held in 1959	0.0	Yes	RIGHT	942.099	RIGHT	543.4764	RIGHT	1527.864	RIGHT	1614.72	30.6	0.1	Probable_Lie	RIGHT	RIGHT	2	938.8394	80	07:01.0
33	Self	S201126	0.833333333	1	2	1	2	0.1	1500.000003	1150.000002	2500.000005	2350.000005	Major	Wrong_doings	13	You have stopped using plastics completely	C2_27	1.0	Easy	I1_50	25	Mexico's National Day is September 16	0.0	Yes	RIGHT	724.5038	RIGHT	551.5083	RIGHT	1564.9766	RIGHT	1000.3386	30.7	0.1	Probable_Truth	RIGHT	RIGHT	4	1484.3988	81	07:26.4
56	Self	S201126	0.5	2	1	1	2	0.4	1150.000002	1500.000003	1783.333337	2066.666671	Minor	Good_deeds	59	You have returned your trays in food courts	C2_52	0.0	Hard	I2_30	47	Africa is the continent with the least rainfall	0.055555556	No	RIGHT	704.5359	RIGHT	794.9113	RIGHT	1293.0923	RIGHT	2288.2003	31.1	0.4	Probable_Truth	RIGHT	RIGHT	4	853.6734	82	07:51.4
71	Self	S201126	0.666666667	1	2	2	1	0.4	1500.000003	1283.333336	1933.333337	1500.000003	Major	Wrong_doings	36	You have fabricated facts about yourself	C1_53	0.65	Easy	I2_54	29	There are 20 bones in the human skull	0.0	Yes	RIGHT	652.4899	RIGHT	575.4272	LEFT	1159.1663	RIGHT	1685.3791	31.5	0.4	Probable_Truth	RIGHT	RIGHT	4	685.5222	83	08:14.9
50	Self	S201126	0.5	1	2	1	2	0.2	1283.333336	1500.000003	1933.333337	1933.333337	Major	Wrong_doings	8	You have taken responsibility for your actions	C1_60	0.0	Easy	I1_60	8	The Eiffel Tower is in Paris	0.777777778	Yes	RIGHT	531.696	RIGHT	608.7452	RIGHT	1716.7225	RIGHT	848.4037	31.7	0.2	Probable_Truth	LEFT	RIGHT	4	718.4503	84	08:38.6
95	Self	S201126	0.833333333	2	1	2	1	0.6	1500.000003	1500.000003	1650.000003	2066.666671	Minor	Good_deeds	37	You have taken part in burglary	C2_48	0.1	Hard	I1_52	52	December is the last month of the year	0.0	No	RIGHT	310.7508	RIGHT	605.6367	LEFT	1000.308	RIGHT	1039.4862	32.3	0.6	Probable_Lie	RIGHT	RIGHT	1	727.143	85	09:01.5
112	Computer	S201126	0.666666667	1	2	1	2	0.1	1350.000003	1433.333336	1650.000003	2350.000005	Major	Good_deeds	58	You have helped with household chores	C2_18	0.7	Hard	I1_3	16	Earth's atmosphere extends up to 10,000km into space	0.0	No	LEFT	646.2299	LEFT	577.1593	RIGHT	1380.2561	RIGHT	1496.486	32.3	0.1	Probable_Lie	RIGHT	LEFT	3	787.9769014	86	09:25.8
82	Self	S201126	0.833333333	1	2	1	2	0.1	1150.000002	1500.000003	2066.666671	1650.000003	Major	Good_deeds	17	You have followed instructions	C2_47	0.0	Hard	I1_21	53	Beer is an alcoholic drink	0.055555556	No	RIGHT	1141.1656	RIGHT	488.2407	RIGHT	1082.1092	RIGHT	1015.324	32.4	0.1	Probable_Truth	LEFT	LEFT	1	823.3776	87	09:49.3
15	Self	S201126	0.5	2	1	2	1	0.1	1350.000003	1433.333336	2350.000005	1933.333337	Minor	Good_deeds	24	You have helped others to pick up their belongings	C2_25	0.85	Hard	I2_38	35	Beef comes from cows	1.0	Yes	RIGHT	496.6202	RIGHT	739.8979	RIGHT	2039.589	RIGHT	1589.9789	32.5	0.1	Probable_Lie	RIGHT	LEFT	5	1120.431	88	10:14.9
64	Self	S201126	0.666666667	1	2	1	2	0.8	1066.666669	1150.000002	2066.666671	1783.333337	Minor	Good_deeds	53	You have a non-judgmental attitude towards everyone	C1_14	0.25	Easy	I1_32	32	Today is a weekday	0.764705882	No	RIGHT	703.1099	RIGHT	687.3019	RIGHT	2146.6546	RIGHT	1320.4345	33.3	0.8	Probable_Truth	RIGHT	RIGHT	3	773.3529	89	10:39.2
111	Computer	S201126	0.5	2	1	2	1	0.3	1350.000003	1433.333336	1783.333337	2216.666671	Minor	Good_deeds	24	You have helped others to pick up their belongings	C2_25	0.85	Hard	I2_38	35	Beef comes from cows	1.0	Yes	LEFT	575.8364	LEFT	707.79	RIGHT	904.3499	RIGHT	1297.8213	33.3	0.3	Probable_Lie	RIGHT	RIGHT	2	520.012402	90	11:02.5
28	Self	S201126	0.666666667	2	1	2	1	0.4	1433.333336	1066.666669	1933.333337	2216.666671	Major	Good_deeds	53	You have said thank you when you have received help	C2_33	0.0	Hard	I1_15	5	A dog has four legs	0.888888889	No	RIGHT	472.362	RIGHT	804.495	RIGHT	838.9747	RIGHT	856.6544	33.7	0.4	Probable_Truth	LEFT	LEFT	2	937.4483	91	11:25.6
25	Self	S201126	0.666666667	2	1	1	2	0.3	1283.333336	1000.000002	1500.000003	2066.666671	Major	Wrong_doings	1	You have used a fake name online	C2_53	0.0	Easy	I2_55	54	Cernan was the second last man to walk on the Moon	0.0	No	RIGHT	273.0673	RIGHT	853.3067	LEFT	1549.3456	LEFT	2936.0537	34.0	0.3	Probable_Lie	LEFT	LEFT	5	772.5575	92	11:50.5
47	Self	S201126	0.833333333	2	1	2	1	0.3	1350.000003	1150.000002	1783.333337	2350.000005	Minor	Wrong_doings	2	You have offered a listening ear to a friend	C1_46	0.0	Easy	I1_8	12	Red is a color	0.666666667	No	RIGHT	320.6997	RIGHT	578.1219	RIGHT	1207.9404	RIGHT	788.6678	34.3	0.3	Probable_Lie	RIGHT	RIGHT	1	673.3816	93	12:13.2
49	Self	S201126	0.5	1	2	1	2	0.6	1000.000002	1066.666669	2500.000005	2216.666671	Minor	Wrong_doings	6	You have lost everything just to help others	C2_8	0.45	Easy	I2_50	18	Cheese is an Asian staple	0.944444444	Yes	RIGHT	893.4385	RIGHT	470.4424	RIGHT	1910.1459	LEFT	3127.3071	34.9	0.6	Probable_Lie	RIGHT	RIGHT	2	1276.633	94	12:40.3
0	Self	S201126	0.5	1	2	1	2	0.8	1150.000002	1150.000002	2350.000005	1650.000003	Major	Good_deeds	16	You have cheated on a national exam	C2_28	0.85	Easy	I2_13	33	Polish is 20th most spoken language in the World	0.0	Yes	RIGHT	1082.4292	RIGHT	551.4813	LEFT	1041.9563	RIGHT	1231.9649	35.7	0.8	Probable_Lie	RIGHT	LEFT	4	857.5144	95	13:03.9
140	Computer	S201126	0.833333333	2	1	2	1	0.1	1216.666669	1216.666669	2350.000005	1933.333337	Minor	Wrong_doings	46	You have deceived a loved one	C2_3	0.65	Hard	I1_43	22	Singapore has four seasons	0.833333333	No	RIGHT	584.9157	LEFT	848.7535	LEFT	1391.8697	LEFT	1277.2918	35.7	0.1	Probable_Lie	LEFT	LEFT	4	834.6046835	96	14:55.1
97	Computer	S201126	0.5	1	2	1	2	0.6	1500.000003	1066.666669	2350.000005	1650.000003	Major	Good_deeds	7	You have shown your appreciation to your teachers	C2_7	1.0	Hard	I1_33	5	Chickens lay eggs	0.888888889	No	RIGHT	676.3657	LEFT	857.0754	RIGHT	1608.3349	RIGHT	912.6808	35.7	0.6	Probable_Truth	RIGHT	RIGHT	5	786.1444154	97	15:19.1
109	Computer	S201126	0.5	2	1	2	1	0.6	1066.666669	1216.666669	1650.000003	1933.333337	Major	Wrong_doings	19	You have been physically hurt to protect others	C1_33	0.85	Easy	I1_42	28	It is night time now	0.0	No	RIGHT	1529.0122	LEFT	1461.1219	RIGHT	2336.0369	LEFT	1510.3251	35.7	0.6	Probable_Truth	RIGHT	LEFT	3	820.3929112	98	15:45.2
121	Computer	S201126	0.666666667	2	1	1	2	0.8	1150.000002	1216.666669	1500.000003	1783.333337	Major	Wrong_doings	1	You have used a fake name online	C2_53	0.0	Easy	I2_55	54	Cernan was the second last man to walk on the Moon	0.0	No	RIGHT	432.1762	LEFT	762.0721	LEFT	1106.1746	LEFT	1767.6675	35.7	0.8	Probable_Truth	RIGHT	RIGHT	4	583.7018852	99	16:08.1
30	Self	S201126	0.666666667	2	1	2	1	0.1	1066.666669	1216.666669	1783.333337	1500.000003	Minor	Good_deeds	51	You have made someone cry	C1_3	0.95	Hard	I1_54	4	The hyoid bone is the only jointless bone	0.0	Yes	RIGHT	385.0387	RIGHT	1001.9686	LEFT	1150.2722	RIGHT	2567.9491	35.8	0.1	Probable_Lie	RIGHT	RIGHT	2	1045.3366	100	16:32.3
108	Computer	S201126	0.5	2	1	2	1	0.1	1000.000002	1000.000002	2350.000005	2066.666671	Minor	Good_deeds	46	You have drunk alcohol when you were underage	C1_24	0.45	Easy	I1_25	2	Slavery was abolished in Cuba in 1886	0.944444444	No	LEFT	1520.6757	LEFT	851.3621	LEFT	2167.212	RIGHT	2239.9836	35.8	0.1	Probable_Lie	LEFT	LEFT	6	862.402854	101	16:59.0
83	Self	S201126	0.833333333	1	2	1	2	0.7	1066.666669	1433.333336	2500.000005	1500.000003	Major	Wrong_doings	47	You have sign up to sponsor a needy child	C2_9	0.9	Hard	I2_23	26	Last day of the year is 30th December	0.0	Yes	RIGHT	1222.2272	RIGHT	528.1578	RIGHT	2531.6061	RIGHT	2592.4418	36.5	0.7	Probable_Truth	LEFT	LEFT	1	802.5526	102	17:25.7
143	Computer	S201126	0.833333333	2	1	2	1	0.8	1283.333336	1283.333336	1650.000003	1500.000003	Minor	Wrong_doings	2	You have offered a listening ear to a friend	C1_46	0.0	Easy	I1_8	12	Red is a color	0.666666667	No	RIGHT	665.0254	LEFT	736.7081	RIGHT	1054.5432	RIGHT	791.8111	36.5	0.8	Probable_Truth	LEFT	LEFT	1	850.2810862	103	17:48.1
4	Self	S201126	0.5	1	2	2	1	0.2	1000.000002	1500.000003	1650.000003	2066.666671	Minor	Wrong_doings	54	You have failed to keep promises	C1_16	0.65	Easy	I2_51	51	A square has 3 corners	0.777777778	Yes	RIGHT	600.3177	RIGHT	488.4199	LEFT	1102.9208	LEFT	1063.7975	36.7	0.2	Probable_Truth	LEFT	LEFT	2	943.9249	104	18:11.1
31	Self	S201126	0.666666667	2	1	2	1	0.2	1216.666669	1150.000002	1650.000003	1650.000003	Minor	Wrong_doings	10	You have engaged in arson	C1_1	1.0	Hard	I2_4	15	French is Singapore's official language	0.944444444	Yes	RIGHT	504.1783	RIGHT	1230.9661	LEFT	1022.6512	LEFT	966.0598	36.9	0.2	Probable_Truth	LEFT	LEFT	1	858.8262	105	18:33.9
139	Computer	S201126	0.833333333	2	1	1	2	0.2	1350.000003	1433.333336	1783.333337	2500.000005	Minor	Wrong_doings	3	You have given way to the handicapped	C2_42	0.0	Hard	I2_12	52	Dutch is the 6th Europe's most widely spoken language	0.0	Yes	RIGHT	1182.2686	LEFT	701.3031	RIGHT	1291.8201	RIGHT	1119.6219	36.9	0.2	Probable_Truth	RIGHT	RIGHT	5	781.2555712	106	18:58.6
106	Computer	S201126	0.5	2	1	1	2	0.8	1500.000003	1066.666669	2066.666671	2350.000005	Major	Wrong_doings	33	You have kept your promises	C2_19	0.55	Easy	I1_41	38	Algeria is Africa's second largest country	0.888888889	No	LEFT	583.899	LEFT	1375.5417	RIGHT	1530.6397	RIGHT	1247.0271	36.9	0.8	Probable_Lie	RIGHT	LEFT	6	578.2262934	107	19:23.5
72	Self	S201126	0.666666667	2	1	1	2	0.8	1150.000002	1433.333336	2500.000005	1783.333337	Minor	Good_deeds	35	You have sheltered others from disasters	C1_15	0.65	Easy	I1_46	46	There is typically 0.6 grams of mercury in glass thermometer	0.833333333	Yes	RIGHT	408.4135	RIGHT	620.2724	RIGHT	1019.1564	RIGHT	2192.1481	37.7	0.8	Probable_Lie	RIGHT	RIGHT	1	792.1905	108	19:48.0
135	Computer	S201126	0.833333333	1	2	2	1	0.4	1350.000003	1000.000002	1500.000003	1650.000003	Minor	Good_deeds	1	You have extorted money from anyone	C1_49	0.95	Easy	I2_43	2	The sun rises at night	1.0	Yes	LEFT	869.9349	LEFT	769.1172	LEFT	822.9102	LEFT	952.2399	37.7	0.4	Probable_Lie	LEFT	RIGHT	1	873.6485998	109	20:10.4
131	Computer	S201126	0.833333333	1	2	1	2	0.7	1000.000002	1216.666669	2350.000005	1933.333337	Minor	Good_deeds	27	You have held the door open for a stranger	C2_1	1.0	Easy	I2_1	9	The human's inner ear is larger than a pencil eraser	0.888888889	No	LEFT	2182.5922	LEFT	665.0218	RIGHT	1125.3441	RIGHT	1575.5384	37.7	0.7	Probable_Truth	LEFT	LEFT	1	960.8208212	110	20:35.9
46	Self	S201126	0.833333333	2	1	2	1	0.5	1000.000002	1066.666669	1500.000003	1650.000003	Major	Wrong_doings	8	You have bought cocaine	C2_40	1.0	Easy	I1_6	43	There are 30 hours in a day	0.0	No	RIGHT	345.2338	RIGHT	684.8583	LEFT	830.8843	LEFT	1046.3705	38.2	0.5	Probable_Lie	RIGHT	RIGHT	1	901.5097	111	20:57.5
61	Self	S201126	0.5	2	1	2	1	0.3	1350.000003	1000.000002	2500.000005	1933.333337	Major	Wrong_doings	59	You have sold illegal drugs	C2_16	0.05	Hard	I1_12	28	Airbags in cars are filled with sodium azide	0.888888889	Yes	RIGHT	616.7164	RIGHT	885.8573	LEFT	1207.8183	RIGHT	2355.9442	38.5	0.3	Probable_Lie	RIGHT	LEFT	4	1113.1658	112	21:23.1
107	Computer	S201126	0.5	2	1	1	2	0.4	1216.666669	1500.000003	2500.000005	2500.000005	Major	Good_deeds	17	You have bribed someone to improve a grade	C1_17	0.05	Hard	I1_2	56	Lehman Brothers went bankrupt on 20th September	0.055555556	Yes	LEFT	887.1805	LEFT	735.1839	LEFT	1174.6462	RIGHT	1015.0108	38.5	0.4	Probable_Truth	LEFT	RIGHT	4	882.532499	113	21:48.1
2	Self	S201126	0.5	1	2	1	2	0.3	1350.000003	1350.000003	2500.000005	2216.666671	Major	Wrong_doings	50	You have rescued others from a catastrophe	C1_43	0.85	Hard	I1_38	45	Astatine is the rarest element in the Earth's crust	0.888888889	No	RIGHT	652.8833	RIGHT	448.6308	RIGHT	904.8241	RIGHT	1368.237	38.8	0.3	Probable_Truth	LEFT	LEFT	3	1083.6957	114	22:12.5
53	Self	S201126	0.5	1	2	2	1	0.7	1216.666669	1150.000002	2216.666671	1500.000003	Major	Good_deeds	19	You have watched a pirated movie	C2_38	0.0	Easy	I1_19	4	South East Asia is currently free from polio	0.0	No	RIGHT	519.9635	RIGHT	663.0591	LEFT	863.0164	RIGHT	1813.6871	39.5	0.7	Probable_Truth	LEFT	LEFT	1	967.9552	115	22:36.0
79	Self	S201126	0.666666667	2	1	2	1	0.4	1000.000002	1350.000003	1650.000003	2066.666671	Major	Wrong_doings	60	You have taken part in violent demonstration	C1_40	0.95	Easy	I2_21	24	There are 10 continents in the World	0.0	No	RIGHT	368.7496	RIGHT	567.1928	LEFT	1445.7301	LEFT	1496.7534	39.9	0.4	Probable_Lie	RIGHT	RIGHT	1	1554.1394	116	23:00.1
110	Computer	S201126	0.5	2	1	2	1	0.5	1433.333336	1150.000002	1500.000003	1500.000003	Major	Wrong_doings	50	You have let a homeless man into your house	C2_50	0.0	Easy	I2_56	42	Acoustic Kitty refers to cat with implants	0.0	Yes	RIGHT	264.4796	LEFT	849.9747	RIGHT	1375.6529	RIGHT	2284.7346	39.9	0.5	Probable_Truth	LEFT	LEFT	1	982.062605	117	23:24.0
6	Self	S201126	0.5	1	2	2	1	0.7	1066.666669	1000.000002	1933.333337	2350.000005	Major	Wrong_doings	39	You have engaged in money laundering	C1_7	0.0	Easy	I1_5	11	Feijoa is a type of grape	0.777777778	Yes	RIGHT	923.9664	RIGHT	328.6379	LEFT	1168.649	RIGHT	1844.5264	40.6	0.7	Probable_Truth	LEFT	LEFT	2	980.4753	118	23:48.1
75	Self	S201126	0.666666667	2	1	1	2	0.7	1500.000003	1216.666669	2350.000005	1933.333337	Major	Good_deeds	15	You have cursed at others	C1_38	0.05	Hard	I1_35	27	Singapore is a country	0.944444444	Yes	RIGHT	344.23	RIGHT	633.2171	LEFT	1245.4576	RIGHT	839.2022	41.3	0.7	Probable_Truth	RIGHT	RIGHT	5	1239.712	119	24:12.0
104	Computer	S201126	0.5	2	1	1	2	0.2	1150.000002	1283.333336	1933.333337	1650.000003	Minor	Wrong_doings	25	You have eaten something in the MRT train	C2_46	1.0	Hard	I2_28	25	It sometimes snows in Singapore	0.0	Yes	LEFT	656.6774	LEFT	792.3291	LEFT	1025.6091	LEFT	1024.2085	41.3	0.2	Probable_Truth	RIGHT	RIGHT	5	832.0218315	120	24:34.9
94	Self	S201126	0.833333333	2	1	2	1	0.8	1283.333336	1000.000002	2066.666671	1933.333337	Major	Good_deeds	24	You have thrown your trash into the bin	C2_24	0.15	Hard	I2_40	24	Today is Sunday	0.0	Yes	RIGHT	504.0409	RIGHT	565.577	RIGHT	1735.5954	LEFT	1310.0898	42.1	0.8	Probable_Lie	LEFT	LEFT	4	739.9944	121	24:58.6
59	Self	S201126	0.5	2	1	1	2	0.5	1500.000003	1066.666669	1933.333337	1650.000003	Minor	Wrong_doings	52	You have cursed at your loved ones	C1_59	1.0	Easy	I1_47	57	Vegetarians can eat vegetable products	0.055555556	Yes	RIGHT	287.3934	RIGHT	652.5786	LEFT	1311.744	RIGHT	1616.0492	42.6	0.5	Probable_Lie	LEFT	LEFT	6	1021.1264	122	25:22.3
102	Computer	S201126	0.5	1	2	2	1	0.1	1066.666669	1433.333336	2066.666671	2350.000005	Major	Wrong_doings	39	You have engaged in money laundering	C1_7	0.0	Easy	I1_5	11	Feijoa is a type of grape	0.777777778	Yes	RIGHT	1052.4047	LEFT	719.7723	LEFT	832.0453	RIGHT	997.3022	42.6	0.1	Probable_Truth	RIGHT	LEFT	2	648.0233013	123	25:46.0
93	Self	S201126	0.833333333	2	1	2	1	0.4	1350.000003	1216.666669	2216.666671	2216.666671	Minor	Good_deeds	28	You have been convicted in court	C1_28	0.0	Easy	I2_39	40	It takes 500 days to travel from Earth to Mars	0.666666667	No	RIGHT	273.4199	RIGHT	807.7125	LEFT	880.3088	RIGHT	2318.6981	43.0	0.4	Probable_Lie	RIGHT	RIGHT	1	725.8313	124	26:10.6
69	Self	S201126	0.666666667	1	2	2	1	0.6	1350.000003	1433.333336	1650.000003	2216.666671	Minor	Wrong_doings	23	You have been donating all your excess food to a food bank	C2_43	0.0	Easy	I2_34	44	Christmas Day is in March	0.833333333	No	RIGHT	575.6252	RIGHT	520.929	RIGHT	1479.3602	LEFT	1449.6172	43.6	0.6	Probable_Truth	RIGHT	RIGHT	5	636.6997	125	26:34.5
125	Computer	S201126	0.666666667	2	1	2	1	0.1	1433.333336	1000.000002	2500.000005	1933.333337	Major	Wrong_doings	26	You have helped a friend in need	C2_26	1.0	Easy	I1_10	55	Pyramid of Giza is 468 feet tall	0.0	No	RIGHT	456.9265	LEFT	669.1107	RIGHT	1103.6364	RIGHT	1485.2634	43.6	0.1	Probable_Lie	LEFT	LEFT	3	833.4337098	126	26:58.5
55	Self	S201126	0.5	1	2	2	1	0.4	1500.000003	1350.000003	1500.000003	2066.666671	Minor	Wrong_doings	58	You have kidnapped someone	C1_6	0.7	Hard	I2_17	17	Saturn's rings are between 30 and 300 feet thick	0.0	No	RIGHT	597.0402	RIGHT	464.257	LEFT	872.2456	RIGHT	1909.3547	44.0	0.4	Probable_Lie	LEFT	LEFT	4	668.8405	127	27:22.0
44	Self	S201126	0.833333333	2	1	2	1	0.2	1150.000002	1433.333336	1933.333337	2066.666671	Minor	Wrong_doings	46	You have deceived a loved one	C2_3	0.65	Hard	I1_43	22	Singapore has four seasons	0.833333333	No	RIGHT	528.3238	RIGHT	612.7338	LEFT	759.948	LEFT	888.8394	44.2	0.2	Probable_Lie	LEFT	LEFT	4	695.47	128	27:44.6
68	Self	S201126	0.666666667	1	2	2	1	0.7	1000.000002	1216.666669	2216.666671	1933.333337	Minor	Wrong_doings	43	You have watched an M18 movie when you were underage	C2_36	0.0	Easy	I1_29	3	Summer is hotter than winter	0.944444444	Yes	RIGHT	1016.1969	RIGHT	503.0532	LEFT	1631.7273	RIGHT	2171.5324	44.9	0.7	Probable_Lie	LEFT	LEFT	5	805.1512	129	28:09.7
73	Self	S201126	0.666666667	2	1	1	2	0.2	1283.333336	1000.000002	1500.000003	2216.666671	Minor	Good_deeds	11	You have blackmailed others for money	C2_60	0.0	Hard	I1_23	23	The Seine river is 50 feet above sea level	0.111111111	Yes	RIGHT	264.6932	RIGHT	517.4933	LEFT	1061.796	RIGHT	2888.2438	45.1	0.2	Probable_Lie	RIGHT	RIGHT	2	1541.1715	130	28:34.5
13	Self	S201126	0.5	2	1	2	1	0.4	1000.000002	1000.000002	2500.000005	2500.000005	Major	Wrong_doings	19	You have been physically hurt to protect others	C1_33	0.85	Easy	I1_42	28	It is night time now	0.0	No	RIGHT	384.3235	RIGHT	597.3311	LEFT	1021.6077	LEFT	847.2179	45.5	0.4	Probable_Truth	LEFT	LEFT	2	924.8737	131	28:57.9
18	Self	S201126	0.666666667	1	2	1	2	0.3	1066.666669	1350.000003	2350.000005	1500.000003	Major	Wrong_doings	56	You have volunteered for a disaster-related humanitarian mission	C1_58	0.9	Hard	I1_58	3	A caterpillar has more muscle than a human	0.0	Yes	RIGHT	1154.4897	RIGHT	320.5959	RIGHT	1935.4905	RIGHT	1429.9466	45.8	0.3	Probable_Truth	LEFT	LEFT	2	700.5935	132	29:22.3
29	Self	S201126	0.666666667	2	1	2	1	0.5	1150.000002	1350.000003	2500.000005	2500.000005	Major	Wrong_doings	26	You have helped a friend in need	C2_26	1.0	Easy	I1_10	55	Pyramid of Giza is 468 feet tall	0.0	No	RIGHT	528.4124	RIGHT	812.6326	RIGHT	848.5001	RIGHT	1086.1977	46.3	0.5	Probable_Lie	LEFT	LEFT	6	680.5115	133	29:46.3
132	Computer	S201126	0.833333333	1	2	2	1	0.8	1216.666669	1500.000003	2216.666671	1500.000003	Major	Wrong_doings	37	You have lied to your parents	C1_13	0.05	Hard	I2_25	43	February has 30 days	0.0	No	LEFT	1119.8246	LEFT	670.8046	LEFT	807.6273	LEFT	1276.2119	46.3	0.8	Probable_Lie	LEFT	RIGHT	1	959.784375	134	30:10.1
101	Computer	S201126	0.5	1	2	2	1	0.2	1150.000002	1216.666669	2500.000005	2066.666671	Minor	Good_deeds	43	You have stopped using products tested on animals	C2_39	0.05	Hard	I2_45	13	The Earth is round	0.0	No	LEFT	1702.2072	LEFT	631.7153	RIGHT	1158.9184	RIGHT	777.6629	46.3	0.2	Probable_Lie	LEFT	LEFT	5	863.9079617	135	30:34.8
76	Self	S201126	0.666666667	2	1	2	1	0.3	1216.666669	1283.333336	2066.666671	1650.000003	Minor	Good_deeds	6	You have queued to enter the MRT train	C2_11	0.0	Easy	I2_53	35	The Moon orbits around the Earth	0.166666667	No	RIGHT	280.5388	RIGHT	558.6589	RIGHT	1648.3367	RIGHT	1384.726	46.6	0.3	Probable_Lie	RIGHT	RIGHT	2	793.9893	136	30:58.2
9	Self	S201126	0.5	2	1	1	2	0.3	1283.333336	1283.333336	1650.000003	2216.666671	Minor	Good_deeds	35	You have bought cigarettes for a minor	C1_35	0.0	Hard	I2_35	41	A triangle has three sides	0.722222222	No	RIGHT	288.3723	RIGHT	767.2416	LEFT	1817.6197	RIGHT	1392.1429	46.9	0.3	Probable_Lie	RIGHT	LEFT	5	1296.7788	137	31:22.8
74	Self	S201126	0.666666667	2	1	1	2	0.6	1350.000003	1500.000003	2216.666671	2350.000005	Major	Wrong_doings	40	You have held the elevator doors for others	C2_35	0.85	Easy	I2_42	42	Mageirocophobia is a fear of deathly disease	0.055555556	Yes	RIGHT	328.0182	RIGHT	537.0541	RIGHT	1764.8853	RIGHT	2526.9098	47.5	0.6	Probable_Truth	RIGHT	RIGHT	5	789.7863	138	31:48.7
3	Self	S201126	0.5	1	2	1	2	0.1	1283.333336	1066.666669	2216.666671	1783.333337	Minor	Good_deeds	28	You have stolen something	C1_50	0.1	Easy	I1_11	38	The Earth turns the closest to the sun in May	0.0	Yes	RIGHT	1024.615	RIGHT	504.7376	LEFT	849.2312	RIGHT	1999.2044	47.6	0.1	Probable_Truth	LEFT	LEFT	1	849.4647	139	32:12.9
36	Self	S201126	0.833333333	1	2	2	1	0.6	1150.000002	1000.000002	2066.666671	1500.000003	Major	Wrong_doings	37	You have lied to your parents	C1_13	0.05	Hard	I2_25	43	February has 30 days	0.0	No	RIGHT	638.0948	RIGHT	472.5897	LEFT	992.4229	LEFT	1087.8226	48.2	0.6	Probable_Lie	LEFT	LEFT	5	693.817	140	32:35.1
126	Computer	S201126	0.666666667	2	1	2	1	0.2	1066.666669	1283.333336	1933.333337	1650.000003	Minor	Good_deeds	51	You have made someone cry	C1_3	0.95	Hard	I1_54	4	The hyoid bone is the only jointless bone	0.0	Yes	LEFT	407.1192	LEFT	817.6367	LEFT	847.8178	RIGHT	1375.7901	48.2	0.2	Probable_Lie	LEFT	RIGHT	1	850.7572682	141	32:57.9
12	Self	S201126	0.5	2	1	2	1	0.7	1150.000002	1500.000003	1933.333337	2066.666671	Minor	Good_deeds	46	You have drunk alcohol when you were underage	C1_24	0.45	Easy	I1_25	2	Slavery was abolished in Cuba in 1886	0.944444444	No	RIGHT	384.6825	RIGHT	708.7043	LEFT	839.7436	RIGHT	1326.066	48.9	0.7	Probable_Truth	RIGHT	LEFT	3	837.4048	142	33:21.2
62	Self	S201126	0.5	2	1	2	1	0.7	1283.333336	1433.333336	1500.000003	1500.000003	Major	Wrong_doings	13	You have sorted your trash into recycling bin	C1_45	0.85	Easy	I2_26	36	It is 20th Century now	0.0	No	RIGHT	527.9257	RIGHT	725.4953	RIGHT	1800.1826	RIGHT	1052.7303	49.6	0.7	Probable_Lie	RIGHT	LEFT	5	833.3767	143	33:44.4
