Participant	Task	Stimulus_Side	Response	RT	ITI	Previous_Response	Previous_RT	Trial_Onset	Trial_End	Trial_Order	Duration	Conflict	Cue_Response	Cue_Response_RT	Stop_Signal	Stop_Signal_RT
S200228	Conflict_Resolution	LEFT	LEFT	603.293099999973	1416.6666695	n/a	n/a	2020-02-28 13:25:16.365616	2020-02-28 13:25:17.176303	1	6.50015598333333	False	n/a	n/a	n/a	n/a
S200228	Conflict_Resolution	RIGHT	RIGHT	1428.09839999995	1433.3333362	n/a	n/a	2020-02-28 13:25:18.629231	2020-02-28 13:25:20.264187	2	6.50015598333333	True	n/a	n/a	n/a	n/a
S200228	Conflict_Resolution	LEFT	LEFT	739.806199999975	1016.6666687	n/a	n/a	2020-02-28 13:25:21.300840	2020-02-28 13:25:22.247993	3	6.50015598333333	True	n/a	n/a	n/a	n/a
S200228	Conflict_Resolution	RIGHT	LEFT	557.866699999977	583.3333345	n/a	n/a	2020-02-28 13:25:22.850367	2020-02-28 13:25:23.616709	4	6.50015598333333	True	n/a	n/a	n/a	n/a
S200228	Conflict_Resolution	RIGHT	RIGHT	653.260900000078	1416.6666695	n/a	n/a	2020-02-28 13:25:25.050916	2020-02-28 13:25:25.912431	5	6.50015598333333	True	n/a	n/a	n/a	n/a
S200228	Conflict_Resolution	LEFT	LEFT	602.061899999967	900.0000018	n/a	n/a	2020-02-28 13:25:26.829924	2020-02-28 13:25:27.640113	6	6.50015598333333	True	n/a	n/a	n/a	n/a
S200228	Conflict_Resolution	LEFT	LEFT	481.529599999931	1466.6666696	n/a	n/a	2020-02-28 13:25:29.126813	2020-02-28 13:25:29.815885	7	6.50015598333333	False	n/a	n/a	n/a	n/a
S200228	Conflict_Resolution	RIGHT	RIGHT	495.092799999952	550.0000011	n/a	n/a	2020-02-28 13:25:30.385468	2020-02-28 13:25:31.088173	8	6.50015598333333	False	n/a	n/a	n/a	n/a
S200228	Conflict_Resolution	LEFT	LEFT	565.207200000032	766.6666682	n/a	n/a	2020-02-28 13:25:31.875677	2020-02-28 13:25:32.648024	9	6.50015598333333	True	n/a	n/a	n/a	n/a
S200228	Conflict_Resolution	LEFT	LEFT	521.278100000018	1500.000003	n/a	n/a	2020-02-28 13:25:34.166936	2020-02-28 13:25:34.896665	10	6.50015598333333	True	n/a	n/a	n/a	n/a
S200228	Conflict_Resolution	LEFT	LEFT	463.742000000025	1116.6666689	n/a	n/a	2020-02-28 13:25:36.033073	2020-02-28 13:25:36.704363	11	6.50015598333333	False	n/a	n/a	n/a	n/a
S200228	Conflict_Resolution	RIGHT	RIGHT	546.219599999972	1033.3333354	n/a	n/a	2020-02-28 13:25:37.758469	2020-02-28 13:25:38.511924	12	6.50015598333333	True	n/a	n/a	n/a	n/a
S200228	Conflict_Resolution	LEFT	LEFT	410.813100000041	866.6666684	n/a	n/a	2020-02-28 13:25:39.397966	2020-02-28 13:25:40.016162	13	6.50015598333333	False	n/a	n/a	n/a	n/a
S200228	Conflict_Resolution	LEFT	LEFT	430.61089999992	1400.0000028	n/a	n/a	2020-02-28 13:25:41.433930	2020-02-28 13:25:42.071975	14	6.50015598333333	False	n/a	n/a	n/a	n/a
S200228	Conflict_Resolution	LEFT	LEFT	401.520800000071	900.0000018	n/a	n/a	2020-02-28 13:25:42.991148	2020-02-28 13:25:43.600347	15	6.50015598333333	False	n/a	n/a	n/a	n/a
S200228	Conflict_Resolution	RIGHT	RIGHT	458.931200000052	850.0000017	n/a	n/a	2020-02-28 13:25:44.469861	2020-02-28 13:25:45.136300	16	6.50015598333333	False	n/a	n/a	n/a	n/a
S200228	Conflict_Resolution	RIGHT	RIGHT	571.435700000052	1233.3333358	n/a	n/a	2020-02-28 13:25:46.389480	2020-02-28 13:25:47.169636	17	6.50015598333333	True	n/a	n/a	n/a	n/a
S200228	Conflict_Resolution	RIGHT	RIGHT	464.089300000069	1483.3333363	n/a	n/a	2020-02-28 13:25:48.672052	2020-02-28 13:25:49.343853	18	6.50015598333333	False	n/a	n/a	n/a	n/a
S200228	Conflict_Resolution	LEFT	LEFT	517.025499999932	616.6666679	n/a	n/a	2020-02-28 13:25:49.979708	2020-02-28 13:25:50.705292	19	6.50015598333333	False	n/a	n/a	n/a	n/a
S200228	Conflict_Resolution	LEFT	LEFT	570.480399999951	1466.6666696	n/a	n/a	2020-02-28 13:25:52.189608	2020-02-28 13:25:52.969504	20	6.50015598333333	True	n/a	n/a	n/a	n/a
S200228	Conflict_Resolution	LEFT	LEFT	480.373200000031	716.6666681	n/a	n/a	2020-02-28 13:25:53.704329	2020-02-28 13:25:54.393546	21	6.50015598333333	False	n/a	n/a	n/a	n/a
S200228	Conflict_Resolution	LEFT	LEFT	525.263099999961	966.6666686	n/a	n/a	2020-02-28 13:25:55.379287	2020-02-28 13:25:56.111952	22	6.50015598333333	True	n/a	n/a	n/a	n/a
S200228	Conflict_Resolution	LEFT	LEFT	596.009900000013	1400.0000028	n/a	n/a	2020-02-28 13:25:57.532530	2020-02-28 13:25:58.337624	23	6.50015598333333	True	n/a	n/a	n/a	n/a
S200228	Conflict_Resolution	LEFT	LEFT	478.538100000151	716.6666681	n/a	n/a	2020-02-28 13:25:59.074220	2020-02-28 13:25:59.760510	24	6.50015598333333	True	n/a	n/a	n/a	n/a
S200228	Conflict_Resolution	LEFT	LEFT	416.085399999929	683.3333347	n/a	n/a	2020-02-28 13:26:00.464291	2020-02-28 13:26:01.089454	25	6.50015598333333	False	n/a	n/a	n/a	n/a
S200228	Conflict_Resolution	RIGHT	RIGHT	454.341500000055	533.3333344	n/a	n/a	2020-02-28 13:26:01.641945	2020-02-28 13:26:02.303845	26	6.50015598333333	True	n/a	n/a	n/a	n/a
S200228	Conflict_Resolution	LEFT	LEFT	555.863400000135	633.3333346	n/a	n/a	2020-02-28 13:26:02.956813	2020-02-28 13:26:03.721413	27	6.50015598333333	True	n/a	n/a	n/a	n/a
S200228	Conflict_Resolution	LEFT	LEFT	512.927399999853	1250.0000025	n/a	n/a	2020-02-28 13:26:04.991553	2020-02-28 13:26:05.713459	28	6.50015598333333	True	n/a	n/a	n/a	n/a
S200228	Conflict_Resolution	LEFT	LEFT	588.741900000059	583.3333345	n/a	n/a	2020-02-28 13:26:06.316034	2020-02-28 13:26:07.112254	29	6.50015598333333	True	n/a	n/a	n/a	n/a
S200228	Conflict_Resolution	LEFT	LEFT	510.267600000134	1366.6666694	n/a	n/a	2020-02-28 13:26:08.498485	2020-02-28 13:26:09.217674	30	6.50015598333333	True	n/a	n/a	n/a	n/a
S200228	Conflict_Resolution	RIGHT	RIGHT	528.491900000063	1050.0000021	n/a	n/a	2020-02-28 13:26:10.288235	2020-02-28 13:26:11.025531	31	6.50015598333333	False	n/a	n/a	n/a	n/a
S200228	Conflict_Resolution	RIGHT	RIGHT	633.35979999988	1050.0000021	n/a	n/a	2020-02-28 13:26:12.095066	2020-02-28 13:26:12.936686	32	6.50015598333333	True	n/a	n/a	n/a	n/a
S200228	Conflict_Resolution	RIGHT	RIGHT	456.555699999853	900.0000018	n/a	n/a	2020-02-28 13:26:13.855481	2020-02-28 13:26:14.520765	33	6.50015598333333	False	n/a	n/a	n/a	n/a
S200228	Conflict_Resolution	RIGHT	RIGHT	404.682500000035	1383.3333361	n/a	n/a	2020-02-28 13:26:15.923883	2020-02-28 13:26:16.537360	34	6.50015598333333	False	n/a	n/a	n/a	n/a
S200228	Conflict_Resolution	RIGHT	RIGHT	533.157799999799	750.0000015	n/a	n/a	2020-02-28 13:26:17.306833	2020-02-28 13:26:18.049591	35	6.50015598333333	True	n/a	n/a	n/a	n/a
S200228	Conflict_Resolution	RIGHT	RIGHT	308.388800000102	783.3333349	n/a	n/a	2020-02-28 13:26:18.851986	2020-02-28 13:26:19.368649	36	6.50015598333333	False	n/a	n/a	n/a	n/a
S200228	Conflict_Resolution	RIGHT	RIGHT	345.522300000084	683.3333347	n/a	n/a	2020-02-28 13:26:20.071444	2020-02-28 13:26:20.624621	37	6.50015598333333	False	n/a	n/a	n/a	n/a
S200228	Conflict_Resolution	LEFT	LEFT	489.713299999949	866.6666684	n/a	n/a	2020-02-28 13:26:21.510957	2020-02-28 13:26:22.208100	38	6.50015598333333	True	n/a	n/a	n/a	n/a
S200228	Conflict_Resolution	RIGHT	RIGHT	572.037899999941	1266.6666692	n/a	n/a	2020-02-28 13:26:23.492742	2020-02-28 13:26:24.272594	39	6.50015598333333	True	n/a	n/a	n/a	n/a
S200228	Conflict_Resolution	RIGHT	RIGHT	409.315800000059	1316.6666693	n/a	n/a	2020-02-28 13:26:25.607573	2020-02-28 13:26:26.224160	40	6.50015598333333	False	n/a	n/a	n/a	n/a
S200228	Conflict_Resolution	RIGHT	RIGHT	395.736799999895	833.333335	n/a	n/a	2020-02-28 13:26:27.076971	2020-02-28 13:26:27.681475	41	6.50015598333333	False	n/a	n/a	n/a	n/a
S200228	Conflict_Resolution	RIGHT	RIGHT	548.740700000053	733.3333348	n/a	n/a	2020-02-28 13:26:28.435123	2020-02-28 13:26:29.193161	42	6.50015598333333	True	n/a	n/a	n/a	n/a
S200228	Conflict_Resolution	RIGHT	RIGHT	541.915900000049	550.0000011	n/a	n/a	2020-02-28 13:26:29.762728	2020-02-28 13:26:30.512208	43	6.50015598333333	True	n/a	n/a	n/a	n/a
S200228	Conflict_Resolution	RIGHT	RIGHT	416.437799999812	700.0000014	n/a	n/a	2020-02-28 13:26:31.232198	2020-02-28 13:26:31.856539	44	6.50015598333333	False	n/a	n/a	n/a	n/a
S200228	Conflict_Resolution	LEFT	RIGHT	493.999799999983	966.6666686	n/a	n/a	2020-02-28 13:26:32.842827	2020-02-28 13:26:33.543970	45	6.50015598333333	False	n/a	n/a	n/a	n/a
S200228	Conflict_Resolution	RIGHT	RIGHT	590.891300000067	950.0000019	n/a	n/a	2020-02-28 13:26:34.513923	2020-02-28 13:26:35.313515	46	6.50015598333333	False	n/a	n/a	n/a	n/a
S200228	Conflict_Resolution	RIGHT	RIGHT	395.67779999993	1000.000002	n/a	n/a	2020-02-28 13:26:36.332889	2020-02-28 13:26:36.937289	47	6.50015598333333	False	n/a	n/a	n/a	n/a
S200228	Conflict_Resolution	LEFT	LEFT	455.195900000035	1316.6666693	n/a	n/a	2020-02-28 13:26:38.272997	2020-02-28 13:26:38.937315	48	6.50015598333333	True	n/a	n/a	n/a	n/a
S200228	Conflict_Resolution	RIGHT	RIGHT	597.378399999798	1333.333336	n/a	n/a	2020-02-28 13:26:40.290619	2020-02-28 13:26:41.096141	49	6.50015598333333	True	n/a	n/a	n/a	n/a
S200228	Conflict_Resolution	LEFT	LEFT	478.554900000063	1150.0000023	n/a	n/a	2020-02-28 13:26:42.266219	2020-02-28 13:26:42.953593	50	6.50015598333333	False	n/a	n/a	n/a	n/a
S200228	Conflict_Resolution	LEFT	LEFT	434.549900000093	850.0000017	n/a	n/a	2020-02-28 13:26:43.821898	2020-02-28 13:26:44.465475	51	6.50015598333333	False	n/a	n/a	n/a	n/a
S200228	Conflict_Resolution	RIGHT	RIGHT	515.915500000119	933.3333352	n/a	n/a	2020-02-28 13:26:45.420489	2020-02-28 13:26:46.143908	52	6.50015598333333	True	n/a	n/a	n/a	n/a
S200228	Conflict_Resolution	RIGHT	RIGHT	568.674599999895	900.0000018	n/a	n/a	2020-02-28 13:26:47.063612	2020-02-28 13:26:47.841624	53	6.50015598333333	True	n/a	n/a	n/a	n/a
S200228	Conflict_Resolution	LEFT	LEFT	536.538800000017	1450.0000029	n/a	n/a	2020-02-28 13:26:49.312426	2020-02-28 13:26:50.056149	54	6.50015598333333	True	n/a	n/a	n/a	n/a
S200228	Conflict_Resolution	RIGHT	RIGHT	436.460399999987	1416.6666695	n/a	n/a	2020-02-28 13:26:51.492389	2020-02-28 13:26:52.136335	55	6.50015598333333	False	n/a	n/a	n/a	n/a
S200228	Conflict_Resolution	RIGHT	RIGHT	523.484900000085	633.3333346	n/a	n/a	2020-02-28 13:26:52.788809	2020-02-28 13:26:53.519914	56	6.50015598333333	True	n/a	n/a	n/a	n/a
S200228	Conflict_Resolution	LEFT	LEFT	517.706599999883	1200.0000024	n/a	n/a	2020-02-28 13:26:54.738958	2020-02-28 13:26:55.465760	57	6.50015598333333	True	n/a	n/a	n/a	n/a
S200228	Conflict_Resolution	LEFT	LEFT	469.032200000129	950.0000019	n/a	n/a	2020-02-28 13:26:56.435856	2020-02-28 13:26:57.113348	58	6.50015598333333	True	n/a	n/a	n/a	n/a
S200228	Conflict_Resolution	LEFT	LEFT	419.492400000081	1000.000002	n/a	n/a	2020-02-28 13:26:58.133239	2020-02-28 13:26:58.761468	59	6.50015598333333	False	n/a	n/a	n/a	n/a
S200228	Conflict_Resolution	RIGHT	RIGHT	427.92600000007	600.0000012	n/a	n/a	2020-02-28 13:26:59.381412	2020-02-28 13:27:00.017158	60	6.50015598333333	False	n/a	n/a	n/a	n/a
S200228	Conflict_Resolution	RIGHT	RIGHT	449.786799999856	1216.6666691	n/a	n/a	2020-02-28 13:27:01.255015	2020-02-28 13:27:01.911851	61	6.50015598333333	True	n/a	n/a	n/a	n/a
S200228	Conflict_Resolution	RIGHT	RIGHT	458.325500000001	883.3333351	n/a	n/a	2020-02-28 13:27:02.813672	2020-02-28 13:27:03.480507	62	6.50015598333333	True	n/a	n/a	n/a	n/a
S200228	Conflict_Resolution	RIGHT	RIGHT	370.704899999964	1433.3333362	n/a	n/a	2020-02-28 13:27:04.933329	2020-02-28 13:27:05.512595	63	6.50015598333333	False	n/a	n/a	n/a	n/a
S200228	Conflict_Resolution	RIGHT	RIGHT	439.9820000001	683.3333347	n/a	n/a	2020-02-28 13:27:06.216670	2020-02-28 13:27:06.864009	64	6.50015598333333	True	n/a	n/a	n/a	n/a
S200228	Conflict_Resolution	LEFT	LEFT	385.752700000012	1300.0000026	n/a	n/a	2020-02-28 13:27:08.182543	2020-02-28 13:27:08.776269	65	6.50015598333333	False	n/a	n/a	n/a	n/a
S200228	Conflict_Resolution	LEFT	LEFT	543.230900000026	733.3333348	n/a	n/a	2020-02-28 13:27:09.528896	2020-02-28 13:27:10.279966	66	6.50015598333333	True	n/a	n/a	n/a	n/a
S200228	Conflict_Resolution	LEFT	LEFT	455.857900000183	533.3333344	n/a	n/a	2020-02-28 13:27:10.832281	2020-02-28 13:27:11.497381	67	6.50015598333333	True	n/a	n/a	n/a	n/a
S200228	Conflict_Resolution	LEFT	LEFT	393.424299999879	666.666668	n/a	n/a	2020-02-28 13:27:12.183459	2020-02-28 13:27:12.783860	68	6.50015598333333	True	n/a	n/a	n/a	n/a
S200228	Conflict_Resolution	RIGHT	RIGHT	513.51499999987	1283.3333359	n/a	n/a	2020-02-28 13:27:14.086966	2020-02-28 13:27:14.808242	69	6.50015598333333	True	n/a	n/a	n/a	n/a
S200228	Conflict_Resolution	LEFT	LEFT	515.920399999914	1216.6666691	n/a	n/a	2020-02-28 13:27:16.044248	2020-02-28 13:27:16.769484	70	6.50015598333333	True	n/a	n/a	n/a	n/a
S200228	Conflict_Resolution	RIGHT	RIGHT	406.097100000125	1150.0000023	n/a	n/a	2020-02-28 13:27:17.938659	2020-02-28 13:27:18.552240	71	6.50015598333333	False	n/a	n/a	n/a	n/a
S200228	Conflict_Resolution	RIGHT	RIGHT	470.113099999935	950.0000019	n/a	n/a	2020-02-28 13:27:19.522723	2020-02-28 13:27:20.201312	72	6.50015598333333	True	n/a	n/a	n/a	n/a
S200228	Conflict_Resolution	RIGHT	RIGHT	375.676200000044	1333.333336	n/a	n/a	2020-02-28 13:27:21.552799	2020-02-28 13:27:22.135872	73	6.50015598333333	False	n/a	n/a	n/a	n/a
S200228	Conflict_Resolution	LEFT	LEFT	474.869299999909	1266.6666692	n/a	n/a	2020-02-28 13:27:23.421693	2020-02-28 13:27:24.105355	74	6.50015598333333	True	n/a	n/a	n/a	n/a
S200228	Conflict_Resolution	LEFT	LEFT	505.631900000026	1066.6666688	n/a	n/a	2020-02-28 13:27:25.191478	2020-02-28 13:27:25.905528	75	6.50015598333333	True	n/a	n/a	n/a	n/a
S200228	Conflict_Resolution	RIGHT	RIGHT	502.450199999885	850.0000017	n/a	n/a	2020-02-28 13:27:26.777918	2020-02-28 13:27:27.488068	76	6.50015598333333	True	n/a	n/a	n/a	n/a
S200228	Conflict_Resolution	LEFT	LEFT	370.121899999958	1266.6666692	n/a	n/a	2020-02-28 13:27:28.774546	2020-02-28 13:27:29.352659	77	6.50015598333333	False	n/a	n/a	n/a	n/a
S200228	Conflict_Resolution	RIGHT	RIGHT	326.195899999902	1366.6666694	n/a	n/a	2020-02-28 13:27:30.738674	2020-02-28 13:27:31.273055	78	6.50015598333333	False	n/a	n/a	n/a	n/a
S200228	Conflict_Resolution	LEFT	LEFT	380.021499999884	1200.0000024	n/a	n/a	2020-02-28 13:27:32.492572	2020-02-28 13:27:33.080458	79	6.50015598333333	False	n/a	n/a	n/a	n/a
S200228	Conflict_Resolution	RIGHT	RIGHT	273.121700000047	1466.6666696	n/a	n/a	2020-02-28 13:27:34.567287	2020-02-28 13:27:35.048212	80	6.50015598333333	False	n/a	n/a	n/a	n/a
S200228	Conflict_Resolution	LEFT	LEFT	407.920200000035	1300.0000026	n/a	n/a	2020-02-28 13:27:36.368753	2020-02-28 13:27:36.984717	81	6.50015598333333	True	n/a	n/a	n/a	n/a
S200228	Conflict_Resolution	LEFT	LEFT	404.536600000029	1216.6666691	n/a	n/a	2020-02-28 13:27:38.220250	2020-02-28 13:27:38.833759	82	6.50015598333333	False	n/a	n/a	n/a	n/a
S200228	Conflict_Resolution	RIGHT	RIGHT	426.793999999973	650.0000013	n/a	n/a	2020-02-28 13:27:39.501599	2020-02-28 13:27:40.136441	83	6.50015598333333	False	n/a	n/a	n/a	n/a
S200228	Conflict_Resolution	LEFT	LEFT	429.921800000102	566.6666678	n/a	n/a	2020-02-28 13:27:40.722706	2020-02-28 13:27:41.360193	84	6.50015598333333	True	n/a	n/a	n/a	n/a
S200228	Conflict_Resolution	LEFT	LEFT	415.294300000141	1100.0000022	n/a	n/a	2020-02-28 13:27:42.481174	2020-02-28 13:27:43.104216	85	6.50015598333333	False	n/a	n/a	n/a	n/a
S200228	Conflict_Resolution	RIGHT	RIGHT	424.408399999948	533.3333344	n/a	n/a	2020-02-28 13:27:43.655910	2020-02-28 13:27:44.289325	86	6.50015598333333	False	n/a	n/a	n/a	n/a
S200228	Conflict_Resolution	RIGHT	RIGHT	508.341900000005	1383.3333361	n/a	n/a	2020-02-28 13:27:45.692093	2020-02-28 13:27:46.409346	87	6.50015598333333	True	n/a	n/a	n/a	n/a
S200228	Conflict_Resolution	RIGHT	RIGHT	387.50200000004	1233.3333358	n/a	n/a	2020-02-28 13:27:47.661111	2020-02-28 13:27:48.257515	88	6.50015598333333	False	n/a	n/a	n/a	n/a
S200228	Conflict_Resolution	RIGHT	RIGHT	370.88319999998	633.3333346	n/a	n/a	2020-02-28 13:27:48.909970	2020-02-28 13:27:49.489194	89	6.50015598333333	False	n/a	n/a	n/a	n/a
S200228	Conflict_Resolution	LEFT	LEFT	493.932500000028	1166.666669	n/a	n/a	2020-02-28 13:27:50.674246	2020-02-28 13:27:51.376035	90	6.50015598333333	True	n/a	n/a	n/a	n/a
S200228	Conflict_Resolution	LEFT	LEFT	468.766500000129	1000.000002	n/a	n/a	2020-02-28 13:27:52.396016	2020-02-28 13:27:53.072008	91	6.50015598333333	True	n/a	n/a	n/a	n/a
S200228	Conflict_Resolution	RIGHT	RIGHT	517.432099999951	983.3333353	n/a	n/a	2020-02-28 13:27:54.075014	2020-02-28 13:27:54.799977	92	6.50015598333333	True	n/a	n/a	n/a	n/a
S200228	Conflict_Resolution	LEFT	LEFT	373.886500000026	583.3333345	n/a	n/a	2020-02-28 13:27:55.402415	2020-02-28 13:27:55.983893	93	6.50015598333333	False	n/a	n/a	n/a	n/a
S200228	Conflict_Resolution	LEFT	LEFT	375.480800000105	1166.666669	n/a	n/a	2020-02-28 13:27:57.169396	2020-02-28 13:27:57.752952	94	6.50015598333333	False	n/a	n/a	n/a	n/a
S200228	Conflict_Resolution	LEFT	LEFT	487.228899999991	916.6666685	n/a	n/a	2020-02-28 13:27:58.689851	2020-02-28 13:27:59.384271	95	6.50015598333333	True	n/a	n/a	n/a	n/a
S200228	Conflict_Resolution	LEFT	LEFT	392.158999999992	1316.6666693	n/a	n/a	2020-02-28 13:28:00.720559	2020-02-28 13:28:01.321565	96	6.50015598333333	False	n/a	n/a	n/a	n/a
S200228	Conflict_Resolution	RIGHT	RIGHT	482.930299999907	1216.6666691	n/a	n/a	2020-02-28 13:28:02.557827	2020-02-28 13:28:03.249679	97	6.50015598333333	False	n/a	n/a	n/a	n/a
S200228	Conflict_Resolution	RIGHT	RIGHT	560.172100000045	1483.3333363	n/a	n/a	2020-02-28 13:28:04.752169	2020-02-28 13:28:05.521754	98	6.50015598333333	True	n/a	n/a	n/a	n/a
S200228	Conflict_Resolution	LEFT	LEFT	421.226100000013	566.6666678	n/a	n/a	2020-02-28 13:28:06.107192	2020-02-28 13:28:06.736658	99	6.50015598333333	False	n/a	n/a	n/a	n/a
S200228	Conflict_Resolution	LEFT	LEFT	605.709200000092	1150.0000023	n/a	n/a	2020-02-28 13:28:07.906668	2020-02-28 13:28:08.719879	100	6.50015598333333	True	n/a	n/a	n/a	n/a
S200228	Conflict_Resolution	RIGHT	RIGHT	372.883999999885	800.0000016	n/a	n/a	2020-02-28 13:28:09.539743	2020-02-28 13:28:10.120062	101	6.50015598333333	False	n/a	n/a	n/a	n/a
S200228	Conflict_Resolution	RIGHT	RIGHT	389.669200000071	933.3333352	n/a	n/a	2020-02-28 13:28:11.075178	2020-02-28 13:28:11.672327	102	6.50015598333333	False	n/a	n/a	n/a	n/a
S200228	Conflict_Resolution	RIGHT	RIGHT	377.079300000105	500.000001	n/a	n/a	2020-02-28 13:28:12.191682	2020-02-28 13:28:12.776714	103	6.50015598333333	False	n/a	n/a	n/a	n/a
S200228	Conflict_Resolution	RIGHT	RIGHT	341.373299999987	1183.3333357	n/a	n/a	2020-02-28 13:28:13.978898	2020-02-28 13:28:14.529444	104	6.50015598333333	False	n/a	n/a	n/a	n/a
S200228	Conflict_Resolution	LEFT	LEFT	515.82940000003	816.6666683	n/a	n/a	2020-02-28 13:28:15.364654	2020-02-28 13:28:16.088450	105	6.50015598333333	True	n/a	n/a	n/a	n/a
S200228	Conflict_Resolution	RIGHT	RIGHT	408.880800000134	1283.3333359	n/a	n/a	2020-02-28 13:28:17.391918	2020-02-28 13:28:18.009278	106	6.50015598333333	False	n/a	n/a	n/a	n/a
S200228	Conflict_Resolution	RIGHT	RIGHT	568.700599999829	650.0000013	n/a	n/a	2020-02-28 13:28:18.679166	2020-02-28 13:28:19.456685	107	6.50015598333333	True	n/a	n/a	n/a	n/a
S200228	Conflict_Resolution	RIGHT	RIGHT	441.698499999802	1033.3333354	n/a	n/a	2020-02-28 13:28:20.510734	2020-02-28 13:28:21.160604	108	6.50015598333333	False	n/a	n/a	n/a	n/a
S200228	Conflict_Resolution	LEFT	LEFT	431.524699999954	916.6666685	n/a	n/a	2020-02-28 13:28:22.097178	2020-02-28 13:28:22.736293	109	6.50015598333333	False	n/a	n/a	n/a	n/a
S200228	Conflict_Resolution	LEFT	LEFT	480.231999999887	1100.0000022	n/a	n/a	2020-02-28 13:28:23.855948	2020-02-28 13:28:24.543924	110	6.50015598333333	True	n/a	n/a	n/a	n/a
S200228	Conflict_Resolution	LEFT	LEFT	433.884300000045	683.3333347	n/a	n/a	2020-02-28 13:28:25.246454	2020-02-28 13:28:25.888178	111	6.50015598333333	True	n/a	n/a	n/a	n/a
S200228	Conflict_Resolution	LEFT	LEFT	362.649200000078	1250.0000025	n/a	n/a	2020-02-28 13:28:27.157422	2020-02-28 13:28:27.728033	112	6.50015598333333	False	n/a	n/a	n/a	n/a
S200228	Conflict_Resolution	RIGHT	RIGHT	530.062199999975	1466.6666696	n/a	n/a	2020-02-28 13:28:29.214169	2020-02-28 13:28:29.953380	113	6.50015598333333	True	n/a	n/a	n/a	n/a
S200228	Conflict_Resolution	LEFT	LEFT	522.668100000146	1416.6666695	n/a	n/a	2020-02-28 13:28:31.389968	2020-02-28 13:28:32.121031	114	6.50015598333333	True	n/a	n/a	n/a	n/a
S200228	Conflict_Resolution	RIGHT	RIGHT	417.147800000066	883.3333351	n/a	n/a	2020-02-28 13:28:33.023831	2020-02-28 13:28:33.648401	115	6.50015598333333	False	n/a	n/a	n/a	n/a
S200228	Conflict_Resolution	LEFT	LEFT	386.441399999967	666.666668	n/a	n/a	2020-02-28 13:28:34.334221	2020-02-28 13:28:34.928789	116	6.50015598333333	False	n/a	n/a	n/a	n/a
S200228	Conflict_Resolution	RIGHT	RIGHT	502.604200000178	1150.0000023	n/a	n/a	2020-02-28 13:28:36.097995	2020-02-28 13:28:36.808105	117	6.50015598333333	True	n/a	n/a	n/a	n/a
S200228	Conflict_Resolution	LEFT	LEFT	425.218700000187	516.6666677	n/a	n/a	2020-02-28 13:28:37.342849	2020-02-28 13:28:37.976871	118	6.50015598333333	False	n/a	n/a	n/a	n/a
S200228	Conflict_Resolution	LEFT	LEFT	575.248099999953	516.6666677	n/a	n/a	2020-02-28 13:28:38.513429	2020-02-28 13:28:39.295849	119	6.50015598333333	True	n/a	n/a	n/a	n/a
S200228	Conflict_Resolution	RIGHT	RIGHT	621.375499999886	600.0000012	n/a	n/a	2020-02-28 13:28:39.915460	2020-02-28 13:28:40.744797	120	6.50015598333333	True	n/a	n/a	n/a	n/a
S200228	Conflict_Resolution	LEFT	LEFT	419.815299999982	816.6666683	n/a	n/a	2020-02-28 13:28:41.581051	2020-02-28 13:28:42.208124	121	6.50015598333333	False	n/a	n/a	n/a	n/a
S200228	Conflict_Resolution	RIGHT	RIGHT	402.62389999998	1266.6666692	n/a	n/a	2020-02-28 13:28:43.493975	2020-02-28 13:28:44.107470	122	6.50015598333333	False	n/a	n/a	n/a	n/a
S200228	Conflict_Resolution	LEFT	LEFT	526.407199999994	850.0000017	n/a	n/a	2020-02-28 13:28:44.977550	2020-02-28 13:28:45.714280	123	6.50015598333333	True	n/a	n/a	n/a	n/a
S200228	Conflict_Resolution	RIGHT	RIGHT	589.476999999988	700.0000014	n/a	n/a	2020-02-28 13:28:46.435211	2020-02-28 13:28:47.232669	124	6.50015598333333	True	n/a	n/a	n/a	n/a
S200228	Conflict_Resolution	RIGHT	RIGHT	424.181900000121	500.000001	n/a	n/a	2020-02-28 13:28:47.752278	2020-02-28 13:28:48.383944	125	6.50015598333333	True	n/a	n/a	n/a	n/a
S200228	Conflict_Resolution	LEFT	LEFT	611.164899999949	1450.0000029	n/a	n/a	2020-02-28 13:28:49.853562	2020-02-28 13:28:50.673560	126	6.50015598333333	False	n/a	n/a	n/a	n/a
S200228	Conflict_Resolution	RIGHT	RIGHT	478.527900000017	1100.0000022	n/a	n/a	2020-02-28 13:28:51.794204	2020-02-28 13:28:52.480571	127	6.50015598333333	True	n/a	n/a	n/a	n/a
S200228	Conflict_Resolution	RIGHT	RIGHT	446.576499999992	750.0000015	n/a	n/a	2020-02-28 13:28:53.249520	2020-02-28 13:28:53.905544	128	6.50015598333333	False	n/a	n/a	n/a	n/a
S200228	Conflict_Resolution	RIGHT	RIGHT	610.667100000001	800.0000016	n/a	n/a	2020-02-28 13:28:54.725553	2020-02-28 13:28:55.545321	129	6.50015598333333	True	n/a	n/a	n/a	n/a
S200228	Conflict_Resolution	LEFT	LEFT	486.482899999828	533.3333344	n/a	n/a	2020-02-28 13:28:56.097839	2020-02-28 13:28:56.792159	130	6.50015598333333	False	n/a	n/a	n/a	n/a
S200228	Conflict_Resolution	RIGHT	RIGHT	415.610500000184	1133.3333356	n/a	n/a	2020-02-28 13:28:57.944472	2020-02-28 13:28:58.568246	131	6.50015598333333	False	n/a	n/a	n/a	n/a
S200228	Conflict_Resolution	LEFT	LEFT	549.258200000168	783.3333349	n/a	n/a	2020-02-28 13:28:59.370655	2020-02-28 13:29:00.128106	132	6.50015598333333	True	n/a	n/a	n/a	n/a
S200228	Conflict_Resolution	RIGHT	RIGHT	573.004299999866	783.3333349	n/a	n/a	2020-02-28 13:29:00.931155	2020-02-28 13:29:01.711927	133	6.50015598333333	True	n/a	n/a	n/a	n/a
S200228	Conflict_Resolution	RIGHT	RIGHT	480.055699999866	733.3333348	n/a	n/a	2020-02-28 13:29:02.464471	2020-02-28 13:29:03.152694	134	6.50015598333333	False	n/a	n/a	n/a	n/a
S200228	Conflict_Resolution	LEFT	LEFT	493.939299999965	950.0000019	n/a	n/a	2020-02-28 13:29:04.122343	2020-02-28 13:29:04.824123	135	6.50015598333333	False	n/a	n/a	n/a	n/a
S200228	Conflict_Resolution	LEFT	LEFT	515.881000000036	616.6666679	n/a	n/a	2020-02-28 13:29:05.460105	2020-02-28 13:29:06.184498	136	6.50015598333333	True	n/a	n/a	n/a	n/a
S200228	Conflict_Resolution	RIGHT	RIGHT	492.078600000013	1000.000002	n/a	n/a	2020-02-28 13:29:07.204033	2020-02-28 13:29:07.903811	137	6.50015598333333	True	n/a	n/a	n/a	n/a
S200228	Conflict_Resolution	LEFT	LEFT	419.47099999993	1050.0000021	n/a	n/a	2020-02-28 13:29:08.973126	2020-02-28 13:29:09.600614	138	6.50015598333333	False	n/a	n/a	n/a	n/a
S200228	Conflict_Resolution	LEFT	LEFT	347.505999999839	633.3333346	n/a	n/a	2020-02-28 13:29:10.253023	2020-02-28 13:29:10.809352	139	6.50015598333333	False	n/a	n/a	n/a	n/a
S200228	Conflict_Resolution	LEFT	LEFT	401.322900000196	1066.6666688	n/a	n/a	2020-02-28 13:29:11.895052	2020-02-28 13:29:12.503864	140	6.50015598333333	False	n/a	n/a	n/a	n/a
S200228	Conflict_Resolution	RIGHT	RIGHT	439.768299999969	1316.6666693	n/a	n/a	2020-02-28 13:29:13.840502	2020-02-28 13:29:14.489717	141	6.50015598333333	True	n/a	n/a	n/a	n/a
S200228	Conflict_Resolution	LEFT	LEFT	387.837600000012	1350.0000027	n/a	n/a	2020-02-28 13:29:15.860354	2020-02-28 13:29:16.456733	142	6.50015598333333	False	n/a	n/a	n/a	n/a
S200228	Conflict_Resolution	LEFT	LEFT	429.206200000181	1366.6666694	n/a	n/a	2020-02-28 13:29:17.843410	2020-02-28 13:29:18.480736	143	6.50015598333333	False	n/a	n/a	n/a	n/a
S200228	Conflict_Resolution	RIGHT	RIGHT	410.887200000161	583.3333345	n/a	n/a	2020-02-28 13:29:19.085585	2020-02-28 13:29:19.704490	144	6.50015598333333	False	n/a	n/a	n/a	n/a
S200228	Conflict_Resolution	LEFT	LEFT	469.954400000006	766.6666682	n/a	n/a	2020-02-28 13:29:20.490288	2020-02-28 13:29:21.168206	145	6.50015598333333	False	n/a	n/a	n/a	n/a
S200228	Conflict_Resolution	RIGHT	RIGHT	456.200800000033	1083.3333355	n/a	n/a	2020-02-28 13:29:22.272395	2020-02-28 13:29:22.937290	146	6.50015598333333	True	n/a	n/a	n/a	n/a
S200228	Conflict_Resolution	RIGHT	RIGHT	412.366300000031	983.3333353	n/a	n/a	2020-02-28 13:29:23.940161	2020-02-28 13:29:24.560509	147	6.50015598333333	False	n/a	n/a	n/a	n/a
S200228	Conflict_Resolution	RIGHT	LEFT	398.576800000001	1366.6666694	n/a	n/a	2020-02-28 13:29:25.945975	2020-02-28 13:29:26.552065	148	6.50015598333333	True	n/a	n/a	n/a	n/a
S200228	Conflict_Resolution	RIGHT	RIGHT	400.589200000013	1100.0000022	n/a	n/a	2020-02-28 13:29:27.672257	2020-02-28 13:29:28.279883	149	6.50015598333333	False	n/a	n/a	n/a	n/a
S200228	Conflict_Resolution	LEFT	LEFT	602.104899999858	1050.0000021	n/a	n/a	2020-02-28 13:29:29.350427	2020-02-28 13:29:30.161429	150	6.50015598333333	True	n/a	n/a	n/a	n/a
S200228	Conflict_Resolution	LEFT	LEFT	395.073099999991	1016.6666687	n/a	n/a	2020-02-28 13:29:31.197541	2020-02-28 13:29:31.800075	151	6.50015598333333	False	n/a	n/a	n/a	n/a
S200228	Conflict_Resolution	LEFT	LEFT	381.047899999885	783.3333349	n/a	n/a	2020-02-28 13:29:32.603507	2020-02-28 13:29:33.193487	152	6.50015598333333	False	n/a	n/a	n/a	n/a
S200228	Conflict_Resolution	RIGHT	RIGHT	427.43019999989	1183.3333357	n/a	n/a	2020-02-28 13:29:34.396609	2020-02-28 13:29:35.032074	153	6.50015598333333	True	n/a	n/a	n/a	n/a
S200228	Conflict_Resolution	RIGHT	RIGHT	385.024300000168	1083.3333355	n/a	n/a	2020-02-28 13:29:36.135057	2020-02-28 13:29:36.728694	154	6.50015598333333	False	n/a	n/a	n/a	n/a
S200228	Conflict_Resolution	LEFT	LEFT	502.773199999865	1350.0000027	n/a	n/a	2020-02-28 13:29:38.097348	2020-02-28 13:29:38.808060	155	6.50015598333333	True	n/a	n/a	n/a	n/a
S200228	Conflict_Resolution	LEFT	LEFT	416.847499999903	1500.000003	n/a	n/a	2020-02-28 13:29:40.327866	2020-02-28 13:29:40.952784	156	6.50015598333333	False	n/a	n/a	n/a	n/a
S200228	Conflict_Resolution	RIGHT	RIGHT	506.849299999885	833.333335	n/a	n/a	2020-02-28 13:29:41.805324	2020-02-28 13:29:42.520429	157	6.50015598333333	True	n/a	n/a	n/a	n/a
S200228	Conflict_Resolution	LEFT	LEFT	551.866000000018	1116.6666689	n/a	n/a	2020-02-28 13:29:43.656837	2020-02-28 13:29:44.416824	158	6.50015598333333	True	n/a	n/a	n/a	n/a
S200228	Conflict_Resolution	LEFT	LEFT	430.878500000063	733.3333348	n/a	n/a	2020-02-28 13:29:45.169351	2020-02-28 13:29:45.808143	159	6.50015598333333	False	n/a	n/a	n/a	n/a
S200228	Conflict_Resolution	RIGHT	RIGHT	479.590899999948	1133.3333356	n/a	n/a	2020-02-28 13:29:46.961003	2020-02-28 13:29:47.649583	160	6.50015598333333	True	n/a	n/a	n/a	n/a
