"Participant"	"Task"	"Stimulus_Side"	"Response"	"RT"	"ITI"	"Previous_Response"	"Previous_RT"	"Stop_Signal"	"Stop_Signal_RT"	"Conflict"	"Cue_Response"	"Cue_Response_RT"	"Trial_Onset"	"Trial_End"	"Trial_Order"	"Duration"
"S200228"	"Conflict_Resolution"	"LEFT"	"LEFT"	603.293099999973	1416.6666695	n/a	n/a	n/a	n/a	"False"	n/a	n/a	"2020-02-28 13:25:16.365616"	"2020-02-28 13:25:17.176303"	1	6.50015598333333
"S200228"	"Conflict_Resolution"	"RIGHT"	"RIGHT"	1428.09839999995	1433.3333362	n/a	n/a	n/a	n/a	"True"	n/a	n/a	"2020-02-28 13:25:18.629231"	"2020-02-28 13:25:20.264187"	2	6.50015598333333
"S200228"	"Conflict_Resolution"	"LEFT"	"LEFT"	739.806199999975	1016.6666687	n/a	n/a	n/a	n/a	"True"	n/a	n/a	"2020-02-28 13:25:21.300840"	"2020-02-28 13:25:22.247993"	3	6.50015598333333
"S200228"	"Conflict_Resolution"	"RIGHT"	"LEFT"	557.866699999977	583.3333345	n/a	n/a	n/a	n/a	"True"	n/a	n/a	"2020-02-28 13:25:22.850367"	"2020-02-28 13:25:23.616709"	4	6.50015598333333
"S200228"	"Conflict_Resolution"	"RIGHT"	"RIGHT"	653.260900000078	1416.6666695	n/a	n/a	n/a	n/a	"True"	n/a	n/a	"2020-02-28 13:25:25.050916"	"2020-02-28 13:25:25.912431"	5	6.50015598333333
"S200228"	"Conflict_Resolution"	"LEFT"	"LEFT"	602.061899999967	900.0000018	n/a	n/a	n/a	n/a	"True"	n/a	n/a	"2020-02-28 13:25:26.829924"	"2020-02-28 13:25:27.640113"	6	6.50015598333333
"S200228"	"Conflict_Resolution"	"LEFT"	"LEFT"	481.529599999931	1466.6666696	n/a	n/a	n/a	n/a	"False"	n/a	n/a	"2020-02-28 13:25:29.126813"	"2020-02-28 13:25:29.815885"	7	6.50015598333333
"S200228"	"Conflict_Resolution"	"RIGHT"	"RIGHT"	495.092799999952	550.0000011	n/a	n/a	n/a	n/a	"False"	n/a	n/a	"2020-02-28 13:25:30.385468"	"2020-02-28 13:25:31.088173"	8	6.50015598333333
"S200228"	"Conflict_Resolution"	"LEFT"	"LEFT"	565.207200000032	766.6666682	n/a	n/a	n/a	n/a	"True"	n/a	n/a	"2020-02-28 13:25:31.875677"	"2020-02-28 13:25:32.648024"	9	6.50015598333333
"S200228"	"Conflict_Resolution"	"LEFT"	"LEFT"	521.278100000018	1500.000003	n/a	n/a	n/a	n/a	"True"	n/a	n/a	"2020-02-28 13:25:34.166936"	"2020-02-28 13:25:34.896665"	10	6.50015598333333
"S200228"	"Conflict_Resolution"	"LEFT"	"LEFT"	463.742000000025	1116.6666689	n/a	n/a	n/a	n/a	"False"	n/a	n/a	"2020-02-28 13:25:36.033073"	"2020-02-28 13:25:36.704363"	11	6.50015598333333
"S200228"	"Conflict_Resolution"	"RIGHT"	"RIGHT"	546.219599999972	1033.3333354	n/a	n/a	n/a	n/a	"True"	n/a	n/a	"2020-02-28 13:25:37.758469"	"2020-02-28 13:25:38.511924"	12	6.50015598333333
"S200228"	"Conflict_Resolution"	"LEFT"	"LEFT"	410.813100000041	866.6666684	n/a	n/a	n/a	n/a	"False"	n/a	n/a	"2020-02-28 13:25:39.397966"	"2020-02-28 13:25:40.016162"	13	6.50015598333333
"S200228"	"Conflict_Resolution"	"LEFT"	"LEFT"	430.61089999992	1400.0000028	n/a	n/a	n/a	n/a	"False"	n/a	n/a	"2020-02-28 13:25:41.433930"	"2020-02-28 13:25:42.071975"	14	6.50015598333333
"S200228"	"Conflict_Resolution"	"LEFT"	"LEFT"	401.520800000071	900.0000018	n/a	n/a	n/a	n/a	"False"	n/a	n/a	"2020-02-28 13:25:42.991148"	"2020-02-28 13:25:43.600347"	15	6.50015598333333
"S200228"	"Conflict_Resolution"	"RIGHT"	"RIGHT"	458.931200000052	850.0000017	n/a	n/a	n/a	n/a	"False"	n/a	n/a	"2020-02-28 13:25:44.469861"	"2020-02-28 13:25:45.136300"	16	6.50015598333333
"S200228"	"Conflict_Resolution"	"RIGHT"	"RIGHT"	571.435700000052	1233.3333358	n/a	n/a	n/a	n/a	"True"	n/a	n/a	"2020-02-28 13:25:46.389480"	"2020-02-28 13:25:47.169636"	17	6.50015598333333
"S200228"	"Conflict_Resolution"	"RIGHT"	"RIGHT"	464.089300000069	1483.3333363	n/a	n/a	n/a	n/a	"False"	n/a	n/a	"2020-02-28 13:25:48.672052"	"2020-02-28 13:25:49.343853"	18	6.50015598333333
"S200228"	"Conflict_Resolution"	"LEFT"	"LEFT"	517.025499999932	616.6666679	n/a	n/a	n/a	n/a	"False"	n/a	n/a	"2020-02-28 13:25:49.979708"	"2020-02-28 13:25:50.705292"	19	6.50015598333333
"S200228"	"Conflict_Resolution"	"LEFT"	"LEFT"	570.480399999951	1466.6666696	n/a	n/a	n/a	n/a	"True"	n/a	n/a	"2020-02-28 13:25:52.189608"	"2020-02-28 13:25:52.969504"	20	6.50015598333333
"S200228"	"Conflict_Resolution"	"LEFT"	"LEFT"	480.373200000031	716.6666681	n/a	n/a	n/a	n/a	"False"	n/a	n/a	"2020-02-28 13:25:53.704329"	"2020-02-28 13:25:54.393546"	21	6.50015598333333
"S200228"	"Conflict_Resolution"	"LEFT"	"LEFT"	525.263099999961	966.6666686	n/a	n/a	n/a	n/a	"True"	n/a	n/a	"2020-02-28 13:25:55.379287"	"2020-02-28 13:25:56.111952"	22	6.50015598333333
"S200228"	"Conflict_Resolution"	"LEFT"	"LEFT"	596.009900000013	1400.0000028	n/a	n/a	n/a	n/a	"True"	n/a	n/a	"2020-02-28 13:25:57.532530"	"2020-02-28 13:25:58.337624"	23	6.50015598333333
"S200228"	"Conflict_Resolution"	"LEFT"	"LEFT"	478.538100000151	716.6666681	n/a	n/a	n/a	n/a	"True"	n/a	n/a	"2020-02-28 13:25:59.074220"	"2020-02-28 13:25:59.760510"	24	6.50015598333333
"S200228"	"Conflict_Resolution"	"LEFT"	"LEFT"	416.085399999929	683.3333347	n/a	n/a	n/a	n/a	"False"	n/a	n/a	"2020-02-28 13:26:00.464291"	"2020-02-28 13:26:01.089454"	25	6.50015598333333
"S200228"	"Conflict_Resolution"	"RIGHT"	"RIGHT"	454.341500000055	533.3333344	n/a	n/a	n/a	n/a	"True"	n/a	n/a	"2020-02-28 13:26:01.641945"	"2020-02-28 13:26:02.303845"	26	6.50015598333333
"S200228"	"Conflict_Resolution"	"LEFT"	"LEFT"	555.863400000135	633.3333346	n/a	n/a	n/a	n/a	"True"	n/a	n/a	"2020-02-28 13:26:02.956813"	"2020-02-28 13:26:03.721413"	27	6.50015598333333
"S200228"	"Conflict_Resolution"	"LEFT"	"LEFT"	512.927399999853	1250.0000025	n/a	n/a	n/a	n/a	"True"	n/a	n/a	"2020-02-28 13:26:04.991553"	"2020-02-28 13:26:05.713459"	28	6.50015598333333
"S200228"	"Conflict_Resolution"	"LEFT"	"LEFT"	588.741900000059	583.3333345	n/a	n/a	n/a	n/a	"True"	n/a	n/a	"2020-02-28 13:26:06.316034"	"2020-02-28 13:26:07.112254"	29	6.50015598333333
"S200228"	"Conflict_Resolution"	"LEFT"	"LEFT"	510.267600000134	1366.6666694	n/a	n/a	n/a	n/a	"True"	n/a	n/a	"2020-02-28 13:26:08.498485"	"2020-02-28 13:26:09.217674"	30	6.50015598333333
"S200228"	"Conflict_Resolution"	"RIGHT"	"RIGHT"	528.491900000063	1050.0000021	n/a	n/a	n/a	n/a	"False"	n/a	n/a	"2020-02-28 13:26:10.288235"	"2020-02-28 13:26:11.025531"	31	6.50015598333333
"S200228"	"Conflict_Resolution"	"RIGHT"	"RIGHT"	633.35979999988	1050.0000021	n/a	n/a	n/a	n/a	"True"	n/a	n/a	"2020-02-28 13:26:12.095066"	"2020-02-28 13:26:12.936686"	32	6.50015598333333
"S200228"	"Conflict_Resolution"	"RIGHT"	"RIGHT"	456.555699999853	900.0000018	n/a	n/a	n/a	n/a	"False"	n/a	n/a	"2020-02-28 13:26:13.855481"	"2020-02-28 13:26:14.520765"	33	6.50015598333333
"S200228"	"Conflict_Resolution"	"RIGHT"	"RIGHT"	404.682500000035	1383.3333361	n/a	n/a	n/a	n/a	"False"	n/a	n/a	"2020-02-28 13:26:15.923883"	"2020-02-28 13:26:16.537360"	34	6.50015598333333
"S200228"	"Conflict_Resolution"	"RIGHT"	"RIGHT"	533.157799999799	750.0000015	n/a	n/a	n/a	n/a	"True"	n/a	n/a	"2020-02-28 13:26:17.306833"	"2020-02-28 13:26:18.049591"	35	6.50015598333333
"S200228"	"Conflict_Resolution"	"RIGHT"	"RIGHT"	308.388800000102	783.3333349	n/a	n/a	n/a	n/a	"False"	n/a	n/a	"2020-02-28 13:26:18.851986"	"2020-02-28 13:26:19.368649"	36	6.50015598333333
"S200228"	"Conflict_Resolution"	"RIGHT"	"RIGHT"	345.522300000084	683.3333347	n/a	n/a	n/a	n/a	"False"	n/a	n/a	"2020-02-28 13:26:20.071444"	"2020-02-28 13:26:20.624621"	37	6.50015598333333
"S200228"	"Conflict_Resolution"	"LEFT"	"LEFT"	489.713299999949	866.6666684	n/a	n/a	n/a	n/a	"True"	n/a	n/a	"2020-02-28 13:26:21.510957"	"2020-02-28 13:26:22.208100"	38	6.50015598333333
"S200228"	"Conflict_Resolution"	"RIGHT"	"RIGHT"	572.037899999941	1266.6666692	n/a	n/a	n/a	n/a	"True"	n/a	n/a	"2020-02-28 13:26:23.492742"	"2020-02-28 13:26:24.272594"	39	6.50015598333333
"S200228"	"Conflict_Resolution"	"RIGHT"	"RIGHT"	409.315800000059	1316.6666693	n/a	n/a	n/a	n/a	"False"	n/a	n/a	"2020-02-28 13:26:25.607573"	"2020-02-28 13:26:26.224160"	40	6.50015598333333
"S200228"	"Conflict_Resolution"	"RIGHT"	"RIGHT"	395.736799999895	833.333335	n/a	n/a	n/a	n/a	"False"	n/a	n/a	"2020-02-28 13:26:27.076971"	"2020-02-28 13:26:27.681475"	41	6.50015598333333
"S200228"	"Conflict_Resolution"	"RIGHT"	"RIGHT"	548.740700000053	733.3333348	n/a	n/a	n/a	n/a	"True"	n/a	n/a	"2020-02-28 13:26:28.435123"	"2020-02-28 13:26:29.193161"	42	6.50015598333333
"S200228"	"Conflict_Resolution"	"RIGHT"	"RIGHT"	541.915900000049	550.0000011	n/a	n/a	n/a	n/a	"True"	n/a	n/a	"2020-02-28 13:26:29.762728"	"2020-02-28 13:26:30.512208"	43	6.50015598333333
"S200228"	"Conflict_Resolution"	"RIGHT"	"RIGHT"	416.437799999812	700.0000014	n/a	n/a	n/a	n/a	"False"	n/a	n/a	"2020-02-28 13:26:31.232198"	"2020-02-28 13:26:31.856539"	44	6.50015598333333
"S200228"	"Conflict_Resolution"	"LEFT"	"RIGHT"	493.999799999983	966.6666686	n/a	n/a	n/a	n/a	"False"	n/a	n/a	"2020-02-28 13:26:32.842827"	"2020-02-28 13:26:33.543970"	45	6.50015598333333
"S200228"	"Conflict_Resolution"	"RIGHT"	"RIGHT"	590.891300000067	950.0000019	n/a	n/a	n/a	n/a	"False"	n/a	n/a	"2020-02-28 13:26:34.513923"	"2020-02-28 13:26:35.313515"	46	6.50015598333333
"S200228"	"Conflict_Resolution"	"RIGHT"	"RIGHT"	395.67779999993	1000.000002	n/a	n/a	n/a	n/a	"False"	n/a	n/a	"2020-02-28 13:26:36.332889"	"2020-02-28 13:26:36.937289"	47	6.50015598333333
"S200228"	"Conflict_Resolution"	"LEFT"	"LEFT"	455.195900000035	1316.6666693	n/a	n/a	n/a	n/a	"True"	n/a	n/a	"2020-02-28 13:26:38.272997"	"2020-02-28 13:26:38.937315"	48	6.50015598333333
"S200228"	"Conflict_Resolution"	"RIGHT"	"RIGHT"	597.378399999798	1333.333336	n/a	n/a	n/a	n/a	"True"	n/a	n/a	"2020-02-28 13:26:40.290619"	"2020-02-28 13:26:41.096141"	49	6.50015598333333
"S200228"	"Conflict_Resolution"	"LEFT"	"LEFT"	478.554900000063	1150.0000023	n/a	n/a	n/a	n/a	"False"	n/a	n/a	"2020-02-28 13:26:42.266219"	"2020-02-28 13:26:42.953593"	50	6.50015598333333
"S200228"	"Conflict_Resolution"	"LEFT"	"LEFT"	434.549900000093	850.0000017	n/a	n/a	n/a	n/a	"False"	n/a	n/a	"2020-02-28 13:26:43.821898"	"2020-02-28 13:26:44.465475"	51	6.50015598333333
"S200228"	"Conflict_Resolution"	"RIGHT"	"RIGHT"	515.915500000119	933.3333352	n/a	n/a	n/a	n/a	"True"	n/a	n/a	"2020-02-28 13:26:45.420489"	"2020-02-28 13:26:46.143908"	52	6.50015598333333
"S200228"	"Conflict_Resolution"	"RIGHT"	"RIGHT"	568.674599999895	900.0000018	n/a	n/a	n/a	n/a	"True"	n/a	n/a	"2020-02-28 13:26:47.063612"	"2020-02-28 13:26:47.841624"	53	6.50015598333333
"S200228"	"Conflict_Resolution"	"LEFT"	"LEFT"	536.538800000017	1450.0000029	n/a	n/a	n/a	n/a	"True"	n/a	n/a	"2020-02-28 13:26:49.312426"	"2020-02-28 13:26:50.056149"	54	6.50015598333333
"S200228"	"Conflict_Resolution"	"RIGHT"	"RIGHT"	436.460399999987	1416.6666695	n/a	n/a	n/a	n/a	"False"	n/a	n/a	"2020-02-28 13:26:51.492389"	"2020-02-28 13:26:52.136335"	55	6.50015598333333
"S200228"	"Conflict_Resolution"	"RIGHT"	"RIGHT"	523.484900000085	633.3333346	n/a	n/a	n/a	n/a	"True"	n/a	n/a	"2020-02-28 13:26:52.788809"	"2020-02-28 13:26:53.519914"	56	6.50015598333333
"S200228"	"Conflict_Resolution"	"LEFT"	"LEFT"	517.706599999883	1200.0000024	n/a	n/a	n/a	n/a	"True"	n/a	n/a	"2020-02-28 13:26:54.738958"	"2020-02-28 13:26:55.465760"	57	6.50015598333333
"S200228"	"Conflict_Resolution"	"LEFT"	"LEFT"	469.032200000129	950.0000019	n/a	n/a	n/a	n/a	"True"	n/a	n/a	"2020-02-28 13:26:56.435856"	"2020-02-28 13:26:57.113348"	58	6.50015598333333
"S200228"	"Conflict_Resolution"	"LEFT"	"LEFT"	419.492400000081	1000.000002	n/a	n/a	n/a	n/a	"False"	n/a	n/a	"2020-02-28 13:26:58.133239"	"2020-02-28 13:26:58.761468"	59	6.50015598333333
"S200228"	"Conflict_Resolution"	"RIGHT"	"RIGHT"	427.92600000007	600.0000012	n/a	n/a	n/a	n/a	"False"	n/a	n/a	"2020-02-28 13:26:59.381412"	"2020-02-28 13:27:00.017158"	60	6.50015598333333
"S200228"	"Conflict_Resolution"	"RIGHT"	"RIGHT"	449.786799999856	1216.6666691	n/a	n/a	n/a	n/a	"True"	n/a	n/a	"2020-02-28 13:27:01.255015"	"2020-02-28 13:27:01.911851"	61	6.50015598333333
"S200228"	"Conflict_Resolution"	"RIGHT"	"RIGHT"	458.325500000001	883.3333351	n/a	n/a	n/a	n/a	"True"	n/a	n/a	"2020-02-28 13:27:02.813672"	"2020-02-28 13:27:03.480507"	62	6.50015598333333
"S200228"	"Conflict_Resolution"	"RIGHT"	"RIGHT"	370.704899999964	1433.3333362	n/a	n/a	n/a	n/a	"False"	n/a	n/a	"2020-02-28 13:27:04.933329"	"2020-02-28 13:27:05.512595"	63	6.50015598333333
"S200228"	"Conflict_Resolution"	"RIGHT"	"RIGHT"	439.9820000001	683.3333347	n/a	n/a	n/a	n/a	"True"	n/a	n/a	"2020-02-28 13:27:06.216670"	"2020-02-28 13:27:06.864009"	64	6.50015598333333
"S200228"	"Conflict_Resolution"	"LEFT"	"LEFT"	385.752700000012	1300.0000026	n/a	n/a	n/a	n/a	"False"	n/a	n/a	"2020-02-28 13:27:08.182543"	"2020-02-28 13:27:08.776269"	65	6.50015598333333
"S200228"	"Conflict_Resolution"	"LEFT"	"LEFT"	543.230900000026	733.3333348	n/a	n/a	n/a	n/a	"True"	n/a	n/a	"2020-02-28 13:27:09.528896"	"2020-02-28 13:27:10.279966"	66	6.50015598333333
"S200228"	"Conflict_Resolution"	"LEFT"	"LEFT"	455.857900000183	533.3333344	n/a	n/a	n/a	n/a	"True"	n/a	n/a	"2020-02-28 13:27:10.832281"	"2020-02-28 13:27:11.497381"	67	6.50015598333333
"S200228"	"Conflict_Resolution"	"LEFT"	"LEFT"	393.424299999879	666.666668	n/a	n/a	n/a	n/a	"True"	n/a	n/a	"2020-02-28 13:27:12.183459"	"2020-02-28 13:27:12.783860"	68	6.50015598333333
"S200228"	"Conflict_Resolution"	"RIGHT"	"RIGHT"	513.51499999987	1283.3333359	n/a	n/a	n/a	n/a	"True"	n/a	n/a	"2020-02-28 13:27:14.086966"	"2020-02-28 13:27:14.808242"	69	6.50015598333333
"S200228"	"Conflict_Resolution"	"LEFT"	"LEFT"	515.920399999914	1216.6666691	n/a	n/a	n/a	n/a	"True"	n/a	n/a	"2020-02-28 13:27:16.044248"	"2020-02-28 13:27:16.769484"	70	6.50015598333333
"S200228"	"Conflict_Resolution"	"RIGHT"	"RIGHT"	406.097100000125	1150.0000023	n/a	n/a	n/a	n/a	"False"	n/a	n/a	"2020-02-28 13:27:17.938659"	"2020-02-28 13:27:18.552240"	71	6.50015598333333
"S200228"	"Conflict_Resolution"	"RIGHT"	"RIGHT"	470.113099999935	950.0000019	n/a	n/a	n/a	n/a	"True"	n/a	n/a	"2020-02-28 13:27:19.522723"	"2020-02-28 13:27:20.201312"	72	6.50015598333333
"S200228"	"Conflict_Resolution"	"RIGHT"	"RIGHT"	375.676200000044	1333.333336	n/a	n/a	n/a	n/a	"False"	n/a	n/a	"2020-02-28 13:27:21.552799"	"2020-02-28 13:27:22.135872"	73	6.50015598333333
"S200228"	"Conflict_Resolution"	"LEFT"	"LEFT"	474.869299999909	1266.6666692	n/a	n/a	n/a	n/a	"True"	n/a	n/a	"2020-02-28 13:27:23.421693"	"2020-02-28 13:27:24.105355"	74	6.50015598333333
"S200228"	"Conflict_Resolution"	"LEFT"	"LEFT"	505.631900000026	1066.6666688	n/a	n/a	n/a	n/a	"True"	n/a	n/a	"2020-02-28 13:27:25.191478"	"2020-02-28 13:27:25.905528"	75	6.50015598333333
"S200228"	"Conflict_Resolution"	"RIGHT"	"RIGHT"	502.450199999885	850.0000017	n/a	n/a	n/a	n/a	"True"	n/a	n/a	"2020-02-28 13:27:26.777918"	"2020-02-28 13:27:27.488068"	76	6.50015598333333
"S200228"	"Conflict_Resolution"	"LEFT"	"LEFT"	370.121899999958	1266.6666692	n/a	n/a	n/a	n/a	"False"	n/a	n/a	"2020-02-28 13:27:28.774546"	"2020-02-28 13:27:29.352659"	77	6.50015598333333
"S200228"	"Conflict_Resolution"	"RIGHT"	"RIGHT"	326.195899999902	1366.6666694	n/a	n/a	n/a	n/a	"False"	n/a	n/a	"2020-02-28 13:27:30.738674"	"2020-02-28 13:27:31.273055"	78	6.50015598333333
"S200228"	"Conflict_Resolution"	"LEFT"	"LEFT"	380.021499999884	1200.0000024	n/a	n/a	n/a	n/a	"False"	n/a	n/a	"2020-02-28 13:27:32.492572"	"2020-02-28 13:27:33.080458"	79	6.50015598333333
"S200228"	"Conflict_Resolution"	"RIGHT"	"RIGHT"	273.121700000047	1466.6666696	n/a	n/a	n/a	n/a	"False"	n/a	n/a	"2020-02-28 13:27:34.567287"	"2020-02-28 13:27:35.048212"	80	6.50015598333333
"S200228"	"Conflict_Resolution"	"LEFT"	"LEFT"	407.920200000035	1300.0000026	n/a	n/a	n/a	n/a	"True"	n/a	n/a	"2020-02-28 13:27:36.368753"	"2020-02-28 13:27:36.984717"	81	6.50015598333333
"S200228"	"Conflict_Resolution"	"LEFT"	"LEFT"	404.536600000029	1216.6666691	n/a	n/a	n/a	n/a	"False"	n/a	n/a	"2020-02-28 13:27:38.220250"	"2020-02-28 13:27:38.833759"	82	6.50015598333333
"S200228"	"Conflict_Resolution"	"RIGHT"	"RIGHT"	426.793999999973	650.0000013	n/a	n/a	n/a	n/a	"False"	n/a	n/a	"2020-02-28 13:27:39.501599"	"2020-02-28 13:27:40.136441"	83	6.50015598333333
"S200228"	"Conflict_Resolution"	"LEFT"	"LEFT"	429.921800000102	566.6666678	n/a	n/a	n/a	n/a	"True"	n/a	n/a	"2020-02-28 13:27:40.722706"	"2020-02-28 13:27:41.360193"	84	6.50015598333333
"S200228"	"Conflict_Resolution"	"LEFT"	"LEFT"	415.294300000141	1100.0000022	n/a	n/a	n/a	n/a	"False"	n/a	n/a	"2020-02-28 13:27:42.481174"	"2020-02-28 13:27:43.104216"	85	6.50015598333333
"S200228"	"Conflict_Resolution"	"RIGHT"	"RIGHT"	424.408399999948	533.3333344	n/a	n/a	n/a	n/a	"False"	n/a	n/a	"2020-02-28 13:27:43.655910"	"2020-02-28 13:27:44.289325"	86	6.50015598333333
"S200228"	"Conflict_Resolution"	"RIGHT"	"RIGHT"	508.341900000005	1383.3333361	n/a	n/a	n/a	n/a	"True"	n/a	n/a	"2020-02-28 13:27:45.692093"	"2020-02-28 13:27:46.409346"	87	6.50015598333333
"S200228"	"Conflict_Resolution"	"RIGHT"	"RIGHT"	387.50200000004	1233.3333358	n/a	n/a	n/a	n/a	"False"	n/a	n/a	"2020-02-28 13:27:47.661111"	"2020-02-28 13:27:48.257515"	88	6.50015598333333
"S200228"	"Conflict_Resolution"	"RIGHT"	"RIGHT"	370.88319999998	633.3333346	n/a	n/a	n/a	n/a	"False"	n/a	n/a	"2020-02-28 13:27:48.909970"	"2020-02-28 13:27:49.489194"	89	6.50015598333333
"S200228"	"Conflict_Resolution"	"LEFT"	"LEFT"	493.932500000028	1166.666669	n/a	n/a	n/a	n/a	"True"	n/a	n/a	"2020-02-28 13:27:50.674246"	"2020-02-28 13:27:51.376035"	90	6.50015598333333
"S200228"	"Conflict_Resolution"	"LEFT"	"LEFT"	468.766500000129	1000.000002	n/a	n/a	n/a	n/a	"True"	n/a	n/a	"2020-02-28 13:27:52.396016"	"2020-02-28 13:27:53.072008"	91	6.50015598333333
"S200228"	"Conflict_Resolution"	"RIGHT"	"RIGHT"	517.432099999951	983.3333353	n/a	n/a	n/a	n/a	"True"	n/a	n/a	"2020-02-28 13:27:54.075014"	"2020-02-28 13:27:54.799977"	92	6.50015598333333
"S200228"	"Conflict_Resolution"	"LEFT"	"LEFT"	373.886500000026	583.3333345	n/a	n/a	n/a	n/a	"False"	n/a	n/a	"2020-02-28 13:27:55.402415"	"2020-02-28 13:27:55.983893"	93	6.50015598333333
"S200228"	"Conflict_Resolution"	"LEFT"	"LEFT"	375.480800000105	1166.666669	n/a	n/a	n/a	n/a	"False"	n/a	n/a	"2020-02-28 13:27:57.169396"	"2020-02-28 13:27:57.752952"	94	6.50015598333333
"S200228"	"Conflict_Resolution"	"LEFT"	"LEFT"	487.228899999991	916.6666685	n/a	n/a	n/a	n/a	"True"	n/a	n/a	"2020-02-28 13:27:58.689851"	"2020-02-28 13:27:59.384271"	95	6.50015598333333
"S200228"	"Conflict_Resolution"	"LEFT"	"LEFT"	392.158999999992	1316.6666693	n/a	n/a	n/a	n/a	"False"	n/a	n/a	"2020-02-28 13:28:00.720559"	"2020-02-28 13:28:01.321565"	96	6.50015598333333
"S200228"	"Conflict_Resolution"	"RIGHT"	"RIGHT"	482.930299999907	1216.6666691	n/a	n/a	n/a	n/a	"False"	n/a	n/a	"2020-02-28 13:28:02.557827"	"2020-02-28 13:28:03.249679"	97	6.50015598333333
"S200228"	"Conflict_Resolution"	"RIGHT"	"RIGHT"	560.172100000045	1483.3333363	n/a	n/a	n/a	n/a	"True"	n/a	n/a	"2020-02-28 13:28:04.752169"	"2020-02-28 13:28:05.521754"	98	6.50015598333333
"S200228"	"Conflict_Resolution"	"LEFT"	"LEFT"	421.226100000013	566.6666678	n/a	n/a	n/a	n/a	"False"	n/a	n/a	"2020-02-28 13:28:06.107192"	"2020-02-28 13:28:06.736658"	99	6.50015598333333
"S200228"	"Conflict_Resolution"	"LEFT"	"LEFT"	605.709200000092	1150.0000023	n/a	n/a	n/a	n/a	"True"	n/a	n/a	"2020-02-28 13:28:07.906668"	"2020-02-28 13:28:08.719879"	100	6.50015598333333
"S200228"	"Conflict_Resolution"	"RIGHT"	"RIGHT"	372.883999999885	800.0000016	n/a	n/a	n/a	n/a	"False"	n/a	n/a	"2020-02-28 13:28:09.539743"	"2020-02-28 13:28:10.120062"	101	6.50015598333333
"S200228"	"Conflict_Resolution"	"RIGHT"	"RIGHT"	389.669200000071	933.3333352	n/a	n/a	n/a	n/a	"False"	n/a	n/a	"2020-02-28 13:28:11.075178"	"2020-02-28 13:28:11.672327"	102	6.50015598333333
"S200228"	"Conflict_Resolution"	"RIGHT"	"RIGHT"	377.079300000105	500.000001	n/a	n/a	n/a	n/a	"False"	n/a	n/a	"2020-02-28 13:28:12.191682"	"2020-02-28 13:28:12.776714"	103	6.50015598333333
"S200228"	"Conflict_Resolution"	"RIGHT"	"RIGHT"	341.373299999987	1183.3333357	n/a	n/a	n/a	n/a	"False"	n/a	n/a	"2020-02-28 13:28:13.978898"	"2020-02-28 13:28:14.529444"	104	6.50015598333333
"S200228"	"Conflict_Resolution"	"LEFT"	"LEFT"	515.82940000003	816.6666683	n/a	n/a	n/a	n/a	"True"	n/a	n/a	"2020-02-28 13:28:15.364654"	"2020-02-28 13:28:16.088450"	105	6.50015598333333
"S200228"	"Conflict_Resolution"	"RIGHT"	"RIGHT"	408.880800000134	1283.3333359	n/a	n/a	n/a	n/a	"False"	n/a	n/a	"2020-02-28 13:28:17.391918"	"2020-02-28 13:28:18.009278"	106	6.50015598333333
"S200228"	"Conflict_Resolution"	"RIGHT"	"RIGHT"	568.700599999829	650.0000013	n/a	n/a	n/a	n/a	"True"	n/a	n/a	"2020-02-28 13:28:18.679166"	"2020-02-28 13:28:19.456685"	107	6.50015598333333
"S200228"	"Conflict_Resolution"	"RIGHT"	"RIGHT"	441.698499999802	1033.3333354	n/a	n/a	n/a	n/a	"False"	n/a	n/a	"2020-02-28 13:28:20.510734"	"2020-02-28 13:28:21.160604"	108	6.50015598333333
"S200228"	"Conflict_Resolution"	"LEFT"	"LEFT"	431.524699999954	916.6666685	n/a	n/a	n/a	n/a	"False"	n/a	n/a	"2020-02-28 13:28:22.097178"	"2020-02-28 13:28:22.736293"	109	6.50015598333333
"S200228"	"Conflict_Resolution"	"LEFT"	"LEFT"	480.231999999887	1100.0000022	n/a	n/a	n/a	n/a	"True"	n/a	n/a	"2020-02-28 13:28:23.855948"	"2020-02-28 13:28:24.543924"	110	6.50015598333333
"S200228"	"Conflict_Resolution"	"LEFT"	"LEFT"	433.884300000045	683.3333347	n/a	n/a	n/a	n/a	"True"	n/a	n/a	"2020-02-28 13:28:25.246454"	"2020-02-28 13:28:25.888178"	111	6.50015598333333
"S200228"	"Conflict_Resolution"	"LEFT"	"LEFT"	362.649200000078	1250.0000025	n/a	n/a	n/a	n/a	"False"	n/a	n/a	"2020-02-28 13:28:27.157422"	"2020-02-28 13:28:27.728033"	112	6.50015598333333
"S200228"	"Conflict_Resolution"	"RIGHT"	"RIGHT"	530.062199999975	1466.6666696	n/a	n/a	n/a	n/a	"True"	n/a	n/a	"2020-02-28 13:28:29.214169"	"2020-02-28 13:28:29.953380"	113	6.50015598333333
"S200228"	"Conflict_Resolution"	"LEFT"	"LEFT"	522.668100000146	1416.6666695	n/a	n/a	n/a	n/a	"True"	n/a	n/a	"2020-02-28 13:28:31.389968"	"2020-02-28 13:28:32.121031"	114	6.50015598333333
"S200228"	"Conflict_Resolution"	"RIGHT"	"RIGHT"	417.147800000066	883.3333351	n/a	n/a	n/a	n/a	"False"	n/a	n/a	"2020-02-28 13:28:33.023831"	"2020-02-28 13:28:33.648401"	115	6.50015598333333
"S200228"	"Conflict_Resolution"	"LEFT"	"LEFT"	386.441399999967	666.666668	n/a	n/a	n/a	n/a	"False"	n/a	n/a	"2020-02-28 13:28:34.334221"	"2020-02-28 13:28:34.928789"	116	6.50015598333333
"S200228"	"Conflict_Resolution"	"RIGHT"	"RIGHT"	502.604200000178	1150.0000023	n/a	n/a	n/a	n/a	"True"	n/a	n/a	"2020-02-28 13:28:36.097995"	"2020-02-28 13:28:36.808105"	117	6.50015598333333
"S200228"	"Conflict_Resolution"	"LEFT"	"LEFT"	425.218700000187	516.6666677	n/a	n/a	n/a	n/a	"False"	n/a	n/a	"2020-02-28 13:28:37.342849"	"2020-02-28 13:28:37.976871"	118	6.50015598333333
"S200228"	"Conflict_Resolution"	"LEFT"	"LEFT"	575.248099999953	516.6666677	n/a	n/a	n/a	n/a	"True"	n/a	n/a	"2020-02-28 13:28:38.513429"	"2020-02-28 13:28:39.295849"	119	6.50015598333333
"S200228"	"Conflict_Resolution"	"RIGHT"	"RIGHT"	621.375499999886	600.0000012	n/a	n/a	n/a	n/a	"True"	n/a	n/a	"2020-02-28 13:28:39.915460"	"2020-02-28 13:28:40.744797"	120	6.50015598333333
"S200228"	"Conflict_Resolution"	"LEFT"	"LEFT"	419.815299999982	816.6666683	n/a	n/a	n/a	n/a	"False"	n/a	n/a	"2020-02-28 13:28:41.581051"	"2020-02-28 13:28:42.208124"	121	6.50015598333333
"S200228"	"Conflict_Resolution"	"RIGHT"	"RIGHT"	402.62389999998	1266.6666692	n/a	n/a	n/a	n/a	"False"	n/a	n/a	"2020-02-28 13:28:43.493975"	"2020-02-28 13:28:44.107470"	122	6.50015598333333
"S200228"	"Conflict_Resolution"	"LEFT"	"LEFT"	526.407199999994	850.0000017	n/a	n/a	n/a	n/a	"True"	n/a	n/a	"2020-02-28 13:28:44.977550"	"2020-02-28 13:28:45.714280"	123	6.50015598333333
"S200228"	"Conflict_Resolution"	"RIGHT"	"RIGHT"	589.476999999988	700.0000014	n/a	n/a	n/a	n/a	"True"	n/a	n/a	"2020-02-28 13:28:46.435211"	"2020-02-28 13:28:47.232669"	124	6.50015598333333
"S200228"	"Conflict_Resolution"	"RIGHT"	"RIGHT"	424.181900000121	500.000001	n/a	n/a	n/a	n/a	"True"	n/a	n/a	"2020-02-28 13:28:47.752278"	"2020-02-28 13:28:48.383944"	125	6.50015598333333
"S200228"	"Conflict_Resolution"	"LEFT"	"LEFT"	611.164899999949	1450.0000029	n/a	n/a	n/a	n/a	"False"	n/a	n/a	"2020-02-28 13:28:49.853562"	"2020-02-28 13:28:50.673560"	126	6.50015598333333
"S200228"	"Conflict_Resolution"	"RIGHT"	"RIGHT"	478.527900000017	1100.0000022	n/a	n/a	n/a	n/a	"True"	n/a	n/a	"2020-02-28 13:28:51.794204"	"2020-02-28 13:28:52.480571"	127	6.50015598333333
"S200228"	"Conflict_Resolution"	"RIGHT"	"RIGHT"	446.576499999992	750.0000015	n/a	n/a	n/a	n/a	"False"	n/a	n/a	"2020-02-28 13:28:53.249520"	"2020-02-28 13:28:53.905544"	128	6.50015598333333
"S200228"	"Conflict_Resolution"	"RIGHT"	"RIGHT"	610.667100000001	800.0000016	n/a	n/a	n/a	n/a	"True"	n/a	n/a	"2020-02-28 13:28:54.725553"	"2020-02-28 13:28:55.545321"	129	6.50015598333333
"S200228"	"Conflict_Resolution"	"LEFT"	"LEFT"	486.482899999828	533.3333344	n/a	n/a	n/a	n/a	"False"	n/a	n/a	"2020-02-28 13:28:56.097839"	"2020-02-28 13:28:56.792159"	130	6.50015598333333
"S200228"	"Conflict_Resolution"	"RIGHT"	"RIGHT"	415.610500000184	1133.3333356	n/a	n/a	n/a	n/a	"False"	n/a	n/a	"2020-02-28 13:28:57.944472"	"2020-02-28 13:28:58.568246"	131	6.50015598333333
"S200228"	"Conflict_Resolution"	"LEFT"	"LEFT"	549.258200000168	783.3333349	n/a	n/a	n/a	n/a	"True"	n/a	n/a	"2020-02-28 13:28:59.370655"	"2020-02-28 13:29:00.128106"	132	6.50015598333333
"S200228"	"Conflict_Resolution"	"RIGHT"	"RIGHT"	573.004299999866	783.3333349	n/a	n/a	n/a	n/a	"True"	n/a	n/a	"2020-02-28 13:29:00.931155"	"2020-02-28 13:29:01.711927"	133	6.50015598333333
"S200228"	"Conflict_Resolution"	"RIGHT"	"RIGHT"	480.055699999866	733.3333348	n/a	n/a	n/a	n/a	"False"	n/a	n/a	"2020-02-28 13:29:02.464471"	"2020-02-28 13:29:03.152694"	134	6.50015598333333
"S200228"	"Conflict_Resolution"	"LEFT"	"LEFT"	493.939299999965	950.0000019	n/a	n/a	n/a	n/a	"False"	n/a	n/a	"2020-02-28 13:29:04.122343"	"2020-02-28 13:29:04.824123"	135	6.50015598333333
"S200228"	"Conflict_Resolution"	"LEFT"	"LEFT"	515.881000000036	616.6666679	n/a	n/a	n/a	n/a	"True"	n/a	n/a	"2020-02-28 13:29:05.460105"	"2020-02-28 13:29:06.184498"	136	6.50015598333333
"S200228"	"Conflict_Resolution"	"RIGHT"	"RIGHT"	492.078600000013	1000.000002	n/a	n/a	n/a	n/a	"True"	n/a	n/a	"2020-02-28 13:29:07.204033"	"2020-02-28 13:29:07.903811"	137	6.50015598333333
"S200228"	"Conflict_Resolution"	"LEFT"	"LEFT"	419.47099999993	1050.0000021	n/a	n/a	n/a	n/a	"False"	n/a	n/a	"2020-02-28 13:29:08.973126"	"2020-02-28 13:29:09.600614"	138	6.50015598333333
"S200228"	"Conflict_Resolution"	"LEFT"	"LEFT"	347.505999999839	633.3333346	n/a	n/a	n/a	n/a	"False"	n/a	n/a	"2020-02-28 13:29:10.253023"	"2020-02-28 13:29:10.809352"	139	6.50015598333333
"S200228"	"Conflict_Resolution"	"LEFT"	"LEFT"	401.322900000196	1066.6666688	n/a	n/a	n/a	n/a	"False"	n/a	n/a	"2020-02-28 13:29:11.895052"	"2020-02-28 13:29:12.503864"	140	6.50015598333333
"S200228"	"Conflict_Resolution"	"RIGHT"	"RIGHT"	439.768299999969	1316.6666693	n/a	n/a	n/a	n/a	"True"	n/a	n/a	"2020-02-28 13:29:13.840502"	"2020-02-28 13:29:14.489717"	141	6.50015598333333
"S200228"	"Conflict_Resolution"	"LEFT"	"LEFT"	387.837600000012	1350.0000027	n/a	n/a	n/a	n/a	"False"	n/a	n/a	"2020-02-28 13:29:15.860354"	"2020-02-28 13:29:16.456733"	142	6.50015598333333
"S200228"	"Conflict_Resolution"	"LEFT"	"LEFT"	429.206200000181	1366.6666694	n/a	n/a	n/a	n/a	"False"	n/a	n/a	"2020-02-28 13:29:17.843410"	"2020-02-28 13:29:18.480736"	143	6.50015598333333
"S200228"	"Conflict_Resolution"	"RIGHT"	"RIGHT"	410.887200000161	583.3333345	n/a	n/a	n/a	n/a	"False"	n/a	n/a	"2020-02-28 13:29:19.085585"	"2020-02-28 13:29:19.704490"	144	6.50015598333333
"S200228"	"Conflict_Resolution"	"LEFT"	"LEFT"	469.954400000006	766.6666682	n/a	n/a	n/a	n/a	"False"	n/a	n/a	"2020-02-28 13:29:20.490288"	"2020-02-28 13:29:21.168206"	145	6.50015598333333
"S200228"	"Conflict_Resolution"	"RIGHT"	"RIGHT"	456.200800000033	1083.3333355	n/a	n/a	n/a	n/a	"True"	n/a	n/a	"2020-02-28 13:29:22.272395"	"2020-02-28 13:29:22.937290"	146	6.50015598333333
"S200228"	"Conflict_Resolution"	"RIGHT"	"RIGHT"	412.366300000031	983.3333353	n/a	n/a	n/a	n/a	"False"	n/a	n/a	"2020-02-28 13:29:23.940161"	"2020-02-28 13:29:24.560509"	147	6.50015598333333
"S200228"	"Conflict_Resolution"	"RIGHT"	"LEFT"	398.576800000001	1366.6666694	n/a	n/a	n/a	n/a	"True"	n/a	n/a	"2020-02-28 13:29:25.945975"	"2020-02-28 13:29:26.552065"	148	6.50015598333333
"S200228"	"Conflict_Resolution"	"RIGHT"	"RIGHT"	400.589200000013	1100.0000022	n/a	n/a	n/a	n/a	"False"	n/a	n/a	"2020-02-28 13:29:27.672257"	"2020-02-28 13:29:28.279883"	149	6.50015598333333
"S200228"	"Conflict_Resolution"	"LEFT"	"LEFT"	602.104899999858	1050.0000021	n/a	n/a	n/a	n/a	"True"	n/a	n/a	"2020-02-28 13:29:29.350427"	"2020-02-28 13:29:30.161429"	150	6.50015598333333
"S200228"	"Conflict_Resolution"	"LEFT"	"LEFT"	395.073099999991	1016.6666687	n/a	n/a	n/a	n/a	"False"	n/a	n/a	"2020-02-28 13:29:31.197541"	"2020-02-28 13:29:31.800075"	151	6.50015598333333
"S200228"	"Conflict_Resolution"	"LEFT"	"LEFT"	381.047899999885	783.3333349	n/a	n/a	n/a	n/a	"False"	n/a	n/a	"2020-02-28 13:29:32.603507"	"2020-02-28 13:29:33.193487"	152	6.50015598333333
"S200228"	"Conflict_Resolution"	"RIGHT"	"RIGHT"	427.43019999989	1183.3333357	n/a	n/a	n/a	n/a	"True"	n/a	n/a	"2020-02-28 13:29:34.396609"	"2020-02-28 13:29:35.032074"	153	6.50015598333333
"S200228"	"Conflict_Resolution"	"RIGHT"	"RIGHT"	385.024300000168	1083.3333355	n/a	n/a	n/a	n/a	"False"	n/a	n/a	"2020-02-28 13:29:36.135057"	"2020-02-28 13:29:36.728694"	154	6.50015598333333
"S200228"	"Conflict_Resolution"	"LEFT"	"LEFT"	502.773199999865	1350.0000027	n/a	n/a	n/a	n/a	"True"	n/a	n/a	"2020-02-28 13:29:38.097348"	"2020-02-28 13:29:38.808060"	155	6.50015598333333
"S200228"	"Conflict_Resolution"	"LEFT"	"LEFT"	416.847499999903	1500.000003	n/a	n/a	n/a	n/a	"False"	n/a	n/a	"2020-02-28 13:29:40.327866"	"2020-02-28 13:29:40.952784"	156	6.50015598333333
"S200228"	"Conflict_Resolution"	"RIGHT"	"RIGHT"	506.849299999885	833.333335	n/a	n/a	n/a	n/a	"True"	n/a	n/a	"2020-02-28 13:29:41.805324"	"2020-02-28 13:29:42.520429"	157	6.50015598333333
"S200228"	"Conflict_Resolution"	"LEFT"	"LEFT"	551.866000000018	1116.6666689	n/a	n/a	n/a	n/a	"True"	n/a	n/a	"2020-02-28 13:29:43.656837"	"2020-02-28 13:29:44.416824"	158	6.50015598333333
"S200228"	"Conflict_Resolution"	"LEFT"	"LEFT"	430.878500000063	733.3333348	n/a	n/a	n/a	n/a	"False"	n/a	n/a	"2020-02-28 13:29:45.169351"	"2020-02-28 13:29:45.808143"	159	6.50015598333333
"S200228"	"Conflict_Resolution"	"RIGHT"	"RIGHT"	479.590899999948	1133.3333356	n/a	n/a	n/a	n/a	"True"	n/a	n/a	"2020-02-28 13:29:46.961003"	"2020-02-28 13:29:47.649583"	160	6.50015598333333
"S200228"	"Processing_Speed"	"RIGHT"	"Time_Max_Exceeded"	1500.06550000001	633.3333346	""	n/a	n/a	n/a	n/a	n/a	n/a	"2020-02-28 13:12:41.726269"	"2020-02-28 13:12:43.244186"	1	2.12707375
"S200228"	"Processing_Speed"	"LEFT"	"DOWN"	711.674399999993	1300.0000026	"RIGHT"	-1236.459	n/a	n/a	n/a	n/a	n/a	"2020-02-28 13:12:44.553482"	"2020-02-28 13:12:45.471953"	2	2.12707375
"S200228"	"Processing_Speed"	"RIGHT"	"DOWN"	390.081900000013	1466.6666696	""	n/a	n/a	n/a	n/a	n/a	n/a	"2020-02-28 13:12:46.947083"	"2020-02-28 13:12:47.545242"	3	2.12707375
"S200228"	"Processing_Speed"	"LEFT"	"DOWN"	322.8455	1500.000003	""	n/a	n/a	n/a	n/a	n/a	n/a	"2020-02-28 13:12:49.054230"	"2020-02-28 13:12:49.584407"	4	2.12707375
"S200228"	"Processing_Speed"	"RIGHT"	"DOWN"	264.665100000002	783.3333349	""	n/a	n/a	n/a	n/a	n/a	n/a	"2020-02-28 13:12:50.375943"	"2020-02-28 13:12:50.848838"	5	2.12707375
"S200228"	"Processing_Speed"	"RIGHT"	"DOWN"	331.043300000005	1116.6666689	""	n/a	n/a	n/a	n/a	n/a	n/a	"2020-02-28 13:12:51.973700"	"2020-02-28 13:12:52.515527"	6	2.12707375
"S200228"	"Processing_Speed"	"LEFT"	"DOWN"	281.564799999984	1083.3333355	""	n/a	n/a	n/a	n/a	n/a	n/a	"2020-02-28 13:12:53.607725"	"2020-02-28 13:12:54.096973"	7	2.12707375
"S200228"	"Processing_Speed"	"LEFT"	"DOWN"	307.47359999998	700.0000014	""	n/a	n/a	n/a	n/a	n/a	n/a	"2020-02-28 13:12:54.805503"	"2020-02-28 13:12:55.321339"	8	2.12707375
"S200228"	"Processing_Speed"	"RIGHT"	"DOWN"	223.860600000023	1366.6666694	""	n/a	n/a	n/a	n/a	n/a	n/a	"2020-02-28 13:12:56.696876"	"2020-02-28 13:12:57.129061"	9	2.12707375
"S200228"	"Processing_Speed"	"LEFT"	"DOWN"	231.992200000008	983.3333353	""	n/a	n/a	n/a	n/a	n/a	n/a	"2020-02-28 13:12:58.120982"	"2020-02-28 13:12:58.561132"	10	2.12707375
"S200228"	"Processing_Speed"	"RIGHT"	"DOWN"	226.182800000004	1333.333336	""	n/a	n/a	n/a	n/a	n/a	n/a	"2020-02-28 13:12:59.903322"	"2020-02-28 13:13:00.336828"	11	2.12707375
"S200228"	"Processing_Speed"	"LEFT"	"DOWN"	303.149000000019	816.6666683	""	n/a	n/a	n/a	n/a	n/a	n/a	"2020-02-28 13:13:01.162263"	"2020-02-28 13:13:01.672188"	12	2.12707375
"S200228"	"Processing_Speed"	"LEFT"	"DOWN"	285.638800000015	1466.6666696	""	n/a	n/a	n/a	n/a	n/a	n/a	"2020-02-28 13:13:03.147164"	"2020-02-28 13:13:03.639920"	13	2.12707375
"S200228"	"Processing_Speed"	"LEFT"	"DOWN"	317.253099999988	883.3333351	""	n/a	n/a	n/a	n/a	n/a	n/a	"2020-02-28 13:13:04.532166"	"2020-02-28 13:13:05.057107"	14	2.12707375
"S200228"	"Processing_Speed"	"RIGHT"	"DOWN"	229.978500000016	1433.3333362	""	n/a	n/a	n/a	n/a	n/a	n/a	"2020-02-28 13:13:06.499110"	"2020-02-28 13:13:06.937525"	15	2.12707375
"S200228"	"Processing_Speed"	"RIGHT"	"DOWN"	359.6565	566.6666678	""	n/a	n/a	n/a	n/a	n/a	n/a	"2020-02-28 13:13:07.513146"	"2020-02-28 13:13:08.080257"	16	2.12707375
"S200228"	"Processing_Speed"	"RIGHT"	"DOWN"	352.335199999999	600.0000012	""	n/a	n/a	n/a	n/a	n/a	n/a	"2020-02-28 13:13:08.688406"	"2020-02-28 13:13:09.248499"	17	2.12707375
"S200228"	"Processing_Speed"	"RIGHT"	"DOWN"	258.787500000011	700.0000014	""	n/a	n/a	n/a	n/a	n/a	n/a	"2020-02-28 13:13:09.958274"	"2020-02-28 13:13:10.425427"	18	2.12707375
"S200228"	"Processing_Speed"	"LEFT"	"DOWN"	436.346500000013	1266.6666692	""	n/a	n/a	n/a	n/a	n/a	n/a	"2020-02-28 13:13:11.700671"	"2020-02-28 13:13:12.344880"	19	2.12707375
"S200228"	"Processing_Speed"	"LEFT"	"DOWN"	308.64600000001	850.0000017	""	n/a	n/a	n/a	n/a	n/a	n/a	"2020-02-28 13:13:13.204823"	"2020-02-28 13:13:13.721800"	20	2.12707375
"S200228"	"Processing_Speed"	"RIGHT"	"DOWN"	245.162899999968	1050.0000021	""	n/a	n/a	n/a	n/a	n/a	n/a	"2020-02-28 13:13:14.780167"	"2020-02-28 13:13:15.233516"	21	2.12707375
"S200228"	"Processing_Speed"	"LEFT"	"DOWN"	265.626900000029	733.3333348	""	n/a	n/a	n/a	n/a	n/a	n/a	"2020-02-28 13:13:15.975184"	"2020-02-28 13:13:16.448897"	22	2.12707375
"S200228"	"Processing_Speed"	"LEFT"	"DOWN"	232.054300000016	783.3333349	""	n/a	n/a	n/a	n/a	n/a	n/a	"2020-02-28 13:13:17.241025"	"2020-02-28 13:13:17.681629"	23	2.12707375
"S200228"	"Processing_Speed"	"RIGHT"	"DOWN"	254.666600000007	1183.3333357	""	n/a	n/a	n/a	n/a	n/a	n/a	"2020-02-28 13:13:18.874267"	"2020-02-28 13:13:19.337253"	24	2.12707375
"S200228"	"Processing_Speed"	"LEFT"	"DOWN"	377.871400000004	500.000001	""	n/a	n/a	n/a	n/a	n/a	n/a	"2020-02-28 13:13:19.847634"	"2020-02-28 13:13:20.431861"	25	2.12707375
"S200228"	"Processing_Speed"	"LEFT"	"DOWN"	271.4383	1433.3333362	""	n/a	n/a	n/a	n/a	n/a	n/a	"2020-02-28 13:13:21.873181"	"2020-02-28 13:13:22.353508"	26	2.12707375
"S200228"	"Processing_Speed"	"LEFT"	"DOWN"	271.944599999983	1150.0000023	""	n/a	n/a	n/a	n/a	n/a	n/a	"2020-02-28 13:13:23.513226"	"2020-02-28 13:13:23.993673"	27	2.12707375
"S200228"	"Processing_Speed"	"RIGHT"	"DOWN"	234.0868	1300.0000026	""	n/a	n/a	n/a	n/a	n/a	n/a	"2020-02-28 13:13:25.302754"	"2020-02-28 13:13:25.744090"	28	2.12707375
"S200228"	"Processing_Speed"	"LEFT"	"DOWN"	257.159100000024	1183.3333357	""	n/a	n/a	n/a	n/a	n/a	n/a	"2020-02-28 13:13:26.935840"	"2020-02-28 13:13:27.402314"	29	2.12707375
"S200228"	"Processing_Speed"	"RIGHT"	"DOWN"	233.792600000015	850.0000017	""	n/a	n/a	n/a	n/a	n/a	n/a	"2020-02-28 13:13:28.262874"	"2020-02-28 13:13:28.705436"	30	2.12707375
"S200228"	"Processing_Speed"	"RIGHT"	"DOWN"	404.01920000005	666.666668	""	n/a	n/a	n/a	n/a	n/a	n/a	"2020-02-28 13:13:29.381284"	"2020-02-28 13:13:29.993507"	31	2.12707375
"S200228"	"Processing_Speed"	"LEFT"	"DOWN"	221.550200000024	1400.0000028	""	n/a	n/a	n/a	n/a	n/a	n/a	"2020-02-28 13:13:31.403122"	"2020-02-28 13:13:31.833223"	32	2.12707375
"S200228"	"Processing_Speed"	"LEFT"	"DOWN"	324.456099999963	666.666668	""	n/a	n/a	n/a	n/a	n/a	n/a	"2020-02-28 13:13:32.508302"	"2020-02-28 13:13:33.041488"	33	2.12707375
"S200228"	"Processing_Speed"	"LEFT"	"DOWN"	222.456399999999	1016.6666687	""	n/a	n/a	n/a	n/a	n/a	n/a	"2020-02-28 13:13:34.067041"	"2020-02-28 13:13:34.496922"	34	2.12707375
"S200228"	"Processing_Speed"	"LEFT"	"DOWN"	297.4514	950.0000019	""	n/a	n/a	n/a	n/a	n/a	n/a	"2020-02-28 13:13:35.455304"	"2020-02-28 13:13:35.962662"	35	2.12707375
"S200228"	"Processing_Speed"	"LEFT"	"DOWN"	325.63289999996	600.0000012	""	n/a	n/a	n/a	n/a	n/a	n/a	"2020-02-28 13:13:36.571344"	"2020-02-28 13:13:37.105426"	36	2.12707375
"S200228"	"Processing_Speed"	"RIGHT"	"DOWN"	243.829000000005	1266.6666692	""	n/a	n/a	n/a	n/a	n/a	n/a	"2020-02-28 13:13:38.381350"	"2020-02-28 13:13:38.833783"	37	2.12707375
"S200228"	"Processing_Speed"	"RIGHT"	"DOWN"	262.326700000017	1400.0000028	""	n/a	n/a	n/a	n/a	n/a	n/a	"2020-02-28 13:13:40.243176"	"2020-02-28 13:13:40.713440"	38	2.12707375
"S200228"	"Processing_Speed"	"RIGHT"	"DOWN"	227.605399999959	1083.3333355	""	n/a	n/a	n/a	n/a	n/a	n/a	"2020-02-28 13:13:41.805924"	"2020-02-28 13:13:42.241752"	39	2.12707375
"S200228"	"Processing_Speed"	"RIGHT"	"DOWN"	213.685600000019	816.6666683	""	n/a	n/a	n/a	n/a	n/a	n/a	"2020-02-28 13:13:43.067646"	"2020-02-28 13:13:43.488331"	40	2.12707375
"S200228"	"Processing_Speed"	"RIGHT"	"DOWN"	217.991299999994	950.0000019	""	n/a	n/a	n/a	n/a	n/a	n/a	"2020-02-28 13:13:44.447304"	"2020-02-28 13:13:44.873475"	41	2.12707375
"S200228"	"Processing_Speed"	"RIGHT"	"DOWN"	298.883899999964	1500.000003	""	n/a	n/a	n/a	n/a	n/a	n/a	"2020-02-28 13:13:46.382426"	"2020-02-28 13:13:46.888877"	42	2.12707375
"S200228"	"Processing_Speed"	"LEFT"	"DOWN"	321.036499999991	566.6666678	""	n/a	n/a	n/a	n/a	n/a	n/a	"2020-02-28 13:13:47.463672"	"2020-02-28 13:13:47.992870"	43	2.12707375
"S200228"	"Processing_Speed"	"LEFT"	"DOWN"	286.882300000002	1216.6666691	""	n/a	n/a	n/a	n/a	n/a	n/a	"2020-02-28 13:13:49.218304"	"2020-02-28 13:13:49.713125"	44	2.12707375
"S200228"	"Processing_Speed"	"LEFT"	"DOWN"	284.829899999977	1050.0000021	""	n/a	n/a	n/a	n/a	n/a	n/a	"2020-02-28 13:13:50.772649"	"2020-02-28 13:13:51.265544"	45	2.12707375
"S200228"	"Processing_Speed"	"LEFT"	"DOWN"	239.159200000017	1366.6666694	""	n/a	n/a	n/a	n/a	n/a	n/a	"2020-02-28 13:13:52.641914"	"2020-02-28 13:13:53.090415"	46	2.12707375
"S200228"	"Processing_Speed"	"LEFT"	"DOWN"	257.326400000011	916.6666685	""	n/a	n/a	n/a	n/a	n/a	n/a	"2020-02-28 13:13:54.015728"	"2020-02-28 13:13:54.481384"	47	2.12707375
"S200228"	"Processing_Speed"	"RIGHT"	"DOWN"	198.869300000013	983.3333353	""	n/a	n/a	n/a	n/a	n/a	n/a	"2020-02-28 13:13:55.474360"	"2020-02-28 13:13:55.880956"	48	2.12707375
"S200228"	"Processing_Speed"	"RIGHT"	"DOWN"	237.840400000039	1016.6666687	""	n/a	n/a	n/a	n/a	n/a	n/a	"2020-02-28 13:13:56.907301"	"2020-02-28 13:13:57.353106"	49	2.12707375
"S200228"	"Processing_Speed"	"RIGHT"	"DOWN"	322.837500000048	500.000001	""	n/a	n/a	n/a	n/a	n/a	n/a	"2020-02-28 13:13:57.862021"	"2020-02-28 13:13:58.392277"	50	2.12707375
"S200228"	"Processing_Speed"	"RIGHT"	"DOWN"	274.678699999981	733.3333348	""	n/a	n/a	n/a	n/a	n/a	n/a	"2020-02-28 13:13:59.134094"	"2020-02-28 13:13:59.617088"	51	2.12707375
"S200228"	"Processing_Speed"	"RIGHT"	"DOWN"	228.046000000006	883.3333351	""	n/a	n/a	n/a	n/a	n/a	n/a	"2020-02-28 13:14:00.508989"	"2020-02-28 13:14:00.944968"	52	2.12707375
"S200228"	"Processing_Speed"	"RIGHT"	"DOWN"	241.394800000023	1150.0000023	""	n/a	n/a	n/a	n/a	n/a	n/a	"2020-02-28 13:14:02.103712"	"2020-02-28 13:14:02.553272"	53	2.12707375
"S200228"	"Processing_Speed"	"RIGHT"	"DOWN"	210.213500000009	916.6666685	""	n/a	n/a	n/a	n/a	n/a	n/a	"2020-02-28 13:14:03.478727"	"2020-02-28 13:14:03.897227"	54	2.12707375
"S200228"	"Processing_Speed"	"LEFT"	"DOWN"	397.94569999998	633.3333346	""	n/a	n/a	n/a	n/a	n/a	n/a	"2020-02-28 13:14:04.539059"	"2020-02-28 13:14:05.145300"	55	2.12707375
"S200228"	"Processing_Speed"	"LEFT"	"DOWN"	241.603099999963	1116.6666689	""	n/a	n/a	n/a	n/a	n/a	n/a	"2020-02-28 13:14:06.271754"	"2020-02-28 13:14:06.721747"	56	2.12707375
"S200228"	"Processing_Speed"	"RIGHT"	"DOWN"	237.55970000002	1216.6666691	""	n/a	n/a	n/a	n/a	n/a	n/a	"2020-02-28 13:14:07.947748"	"2020-02-28 13:14:08.393195"	57	2.12707375
"S200228"	"Processing_Speed"	"LEFT"	"DOWN"	545.044599999983	1333.333336	"DOWN"	-58.843	n/a	n/a	n/a	n/a	n/a	"2020-02-28 13:14:09.735661"	"2020-02-28 13:14:10.488786"	58	2.12707375
"S200228"	"Processing_Speed"	"RIGHT"	"DOWN"	354.532000000006	533.3333344	""	n/a	n/a	n/a	n/a	n/a	n/a	"2020-02-28 13:14:11.030405"	"2020-02-28 13:14:11.594640"	59	2.12707375
"S200228"	"Processing_Speed"	"LEFT"	"DOWN"	287.716100000011	533.3333344	""	n/a	n/a	n/a	n/a	n/a	n/a	"2020-02-28 13:14:12.137403"	"2020-02-28 13:14:12.633285"	60	2.12707375
"S200228"	"Response_Inhibition"	"RIGHT"	"Time_Max_Exceeded"	1500.05740020004	816.6666683	n/a	n/a	n/a	n/a	n/a	n/a	n/a	"2020-02-28 13:17:57.824304"	"2020-02-28 13:17:59.326824"	1	6.10197875
"S200228"	"Response_Inhibition"	"LEFT"	"LEFT"	527.792500000032	833.333335	n/a	n/a	n/a	n/a	n/a	n/a	n/a	"2020-02-28 13:18:00.169350"	"2020-02-28 13:18:00.906612"	2	6.10197875
"S200228"	"Response_Inhibition"	"RIGHT"	"RIGHT"	452.264600000035	833.333335	n/a	n/a	n/a	n/a	n/a	n/a	n/a	"2020-02-28 13:18:01.748349"	"2020-02-28 13:18:02.409190"	3	6.10197875
"S200228"	"Response_Inhibition"	"LEFT"	"Time_Max_Exceeded"	1500.06306679999	1133.3333356	n/a	n/a	n/a	n/a	n/a	n/a	n/a	"2020-02-28 13:18:03.552318"	"2020-02-28 13:18:05.054969"	4	6.10197875
"S200228"	"Response_Inhibition"	"LEFT"	"LEFT"	455.708800400093	533.3333344	n/a	n/a	n/a	n/a	n/a	n/a	n/a	"2020-02-28 13:18:05.598331"	"2020-02-28 13:18:06.264123"	5	6.10197875
"S200228"	"Response_Inhibition"	"LEFT"	"LEFT"	624.464100000068	1400.0000028	n/a	n/a	n/a	n/a	n/a	n/a	n/a	"2020-02-28 13:18:07.672474"	"2020-02-28 13:18:08.505794"	6	6.10197875
"S200228"	"Response_Inhibition"	"RIGHT"	"Time_Max_Exceeded"	1500.04853389995	566.6666678	n/a	n/a	n/a	n/a	n/a	n/a	n/a	"2020-02-28 13:18:09.082395"	"2020-02-28 13:18:10.585772"	7	6.10197875
"S200228"	"Response_Inhibition"	"RIGHT"	"RIGHT"	539.28246720004	583.3333345	n/a	n/a	n/a	n/a	n/a	n/a	n/a	"2020-02-28 13:18:11.178203"	"2020-02-28 13:18:11.928576"	8	6.10197875
"S200228"	"Response_Inhibition"	"LEFT"	"LEFT"	563.649800000007	1100.0000022	n/a	n/a	n/a	n/a	n/a	n/a	n/a	"2020-02-28 13:18:13.037572"	"2020-02-28 13:18:13.809552"	9	6.10197875
"S200228"	"Response_Inhibition"	"RIGHT"	"Time_Max_Exceeded"	1500.05420010007	1150.0000023	n/a	n/a	n/a	n/a	n/a	n/a	n/a	"2020-02-28 13:18:14.968278"	"2020-02-28 13:18:16.471342"	10	6.10197875
"S200228"	"Response_Inhibition"	"RIGHT"	"RIGHT"	599.513599999909	1183.3333357	n/a	n/a	n/a	n/a	n/a	n/a	n/a	"2020-02-28 13:18:17.665511"	"2020-02-28 13:18:18.472931"	11	6.10197875
"S200228"	"Response_Inhibition"	"RIGHT"	"Time_Max_Exceeded"	1500.05243339998	1416.6666695	n/a	n/a	n/a	n/a	n/a	n/a	n/a	"2020-02-28 13:18:19.898202"	"2020-02-28 13:18:21.401950"	12	6.10197875
"S200228"	"Response_Inhibition"	"RIGHT"	"RIGHT"	502.227500000004	783.3333349	n/a	n/a	n/a	n/a	n/a	n/a	n/a	"2020-02-28 13:18:22.194288"	"2020-02-28 13:18:22.905722"	13	6.10197875
"S200228"	"Response_Inhibition"	"LEFT"	"Time_Max_Exceeded"	1500.05166689998	1200.0000024	n/a	n/a	n/a	n/a	n/a	n/a	n/a	"2020-02-28 13:18:24.115122"	"2020-02-28 13:18:25.618421"	14	6.10197875
"S200228"	"Response_Inhibition"	"RIGHT"	"RIGHT"	495.755099999997	533.3333344	n/a	n/a	n/a	n/a	n/a	n/a	n/a	"2020-02-28 13:18:26.160838"	"2020-02-28 13:18:26.865279"	15	6.10197875
"S200228"	"Response_Inhibition"	"RIGHT"	"RIGHT"	624.633199999948	933.3333352	n/a	n/a	n/a	n/a	n/a	n/a	n/a	"2020-02-28 13:18:27.808227"	"2020-02-28 13:18:28.640937"	16	6.10197875
"S200228"	"Response_Inhibition"	"LEFT"	"Time_Max_Exceeded"	1500.05160040007	1183.3333357	n/a	n/a	n/a	n/a	n/a	n/a	n/a	"2020-02-28 13:18:29.834107"	"2020-02-28 13:18:31.337424"	17	6.10197875
"S200228"	"Response_Inhibition"	"RIGHT"	"Time_Max_Exceeded"	1500.06320009993	1266.6666692	n/a	n/a	n/a	n/a	n/a	n/a	n/a	"2020-02-28 13:18:32.613848"	"2020-02-28 13:18:34.118011"	18	6.10197875
"S200228"	"Response_Inhibition"	"LEFT"	"LEFT"	646.497100000033	1300.0000026	n/a	n/a	n/a	n/a	n/a	n/a	n/a	"2020-02-28 13:18:35.426816"	"2020-02-28 13:18:36.282168"	19	6.10197875
"S200228"	"Response_Inhibition"	"LEFT"	"LEFT"	529.351600000041	716.6666681	n/a	n/a	n/a	n/a	n/a	n/a	n/a	"2020-02-28 13:18:37.007140"	"2020-02-28 13:18:37.745183"	20	6.10197875
"S200228"	"Response_Inhibition"	"LEFT"	"LEFT"	407.728299999917	1366.6666694	n/a	n/a	n/a	n/a	n/a	n/a	n/a	"2020-02-28 13:18:39.121297"	"2020-02-28 13:18:39.737731"	21	6.10197875
"S200228"	"Response_Inhibition"	"LEFT"	"LEFT"	577.874999999949	1116.6666689	n/a	n/a	n/a	n/a	n/a	n/a	n/a	"2020-02-28 13:18:40.862807"	"2020-02-28 13:18:41.649300"	22	6.10197875
"S200228"	"Response_Inhibition"	"RIGHT"	"RIGHT"	593.579000000091	733.3333348	n/a	n/a	n/a	n/a	n/a	n/a	n/a	"2020-02-28 13:18:42.391486"	"2020-02-28 13:18:43.193514"	23	6.10197875
"S200228"	"Response_Inhibition"	"RIGHT"	"Time_Max_Exceeded"	1500.10046670006	616.6666679	n/a	n/a	n/a	n/a	n/a	n/a	n/a	"2020-02-28 13:18:43.819026"	"2020-02-28 13:18:45.322769"	24	6.10197875
"S200228"	"Response_Inhibition"	"LEFT"	"LEFT"	625.277500000038	883.3333351	n/a	n/a	n/a	n/a	n/a	n/a	n/a	"2020-02-28 13:18:46.215319"	"2020-02-28 13:18:47.049756"	25	6.10197875
"S200228"	"Response_Inhibition"	"RIGHT"	"RIGHT"	816.87629999999	1333.333336	n/a	n/a	n/a	n/a	n/a	n/a	n/a	"2020-02-28 13:18:48.392052"	"2020-02-28 13:18:49.416964"	26	6.10197875
"S200228"	"Response_Inhibition"	"LEFT"	"LEFT"	436.6759006	583.3333345	n/a	n/a	n/a	n/a	n/a	n/a	n/a	"2020-02-28 13:18:50.008739"	"2020-02-28 13:18:50.657058"	27	6.10197875
"S200228"	"Response_Inhibition"	"RIGHT"	"RIGHT"	723.409000000061	1066.6666688	n/a	n/a	n/a	n/a	n/a	n/a	n/a	"2020-02-28 13:18:51.733622"	"2020-02-28 13:18:52.663902"	28	6.10197875
"S200228"	"Response_Inhibition"	"LEFT"	"LEFT"	1018.60810000005	733.3333348	n/a	n/a	n/a	n/a	n/a	n/a	n/a	"2020-02-28 13:18:53.406490"	"2020-02-28 13:18:54.632962"	29	6.10197875
"S200228"	"Response_Inhibition"	"RIGHT"	"RIGHT"	582.404399999973	1400.0000028	n/a	n/a	n/a	n/a	n/a	n/a	n/a	"2020-02-28 13:18:56.042363"	"2020-02-28 13:18:56.834086"	30	6.10197875
"S200228"	"Response_Inhibition"	"RIGHT"	"RIGHT"	727.344300000027	1366.6666694	n/a	n/a	n/a	n/a	n/a	n/a	n/a	"2020-02-28 13:18:58.209872"	"2020-02-28 13:18:59.145413"	31	6.10197875
"S200228"	"Response_Inhibition"	"RIGHT"	"RIGHT"	681.390699999952	733.3333348	n/a	n/a	n/a	n/a	n/a	n/a	n/a	"2020-02-28 13:18:59.887325"	"2020-02-28 13:19:00.777113"	32	6.10197875
"S200228"	"Response_Inhibition"	"LEFT"	"Time_Max_Exceeded"	1500.05276709992	1350.0000027	n/a	n/a	n/a	n/a	n/a	n/a	n/a	"2020-02-28 13:19:02.136772"	"2020-02-28 13:19:03.640602"	33	6.10197875
"S200228"	"Response_Inhibition"	"LEFT"	"LEFT"	514.055399999961	533.3333344	n/a	n/a	n/a	n/a	n/a	n/a	n/a	"2020-02-28 13:19:04.182428"	"2020-02-28 13:19:04.905622"	34	6.10197875
"S200228"	"Response_Inhibition"	"RIGHT"	"RIGHT"	697.173099999986	1150.0000023	n/a	n/a	n/a	n/a	n/a	n/a	n/a	"2020-02-28 13:19:06.063785"	"2020-02-28 13:19:06.969460"	35	6.10197875
"S200228"	"Response_Inhibition"	"LEFT"	"Time_Max_Exceeded"	1500.06253370005	750.0000015	n/a	n/a	n/a	n/a	n/a	n/a	n/a	"2020-02-28 13:19:07.728190"	"2020-02-28 13:19:09.231834"	36	6.10197875
"S200228"	"Response_Inhibition"	"RIGHT"	"Time_Max_Exceeded"	1500.05746670005	1350.0000027	n/a	n/a	n/a	n/a	n/a	n/a	n/a	"2020-02-28 13:19:10.590303"	"2020-02-28 13:19:12.094585"	37	6.10197875
"S200228"	"Response_Inhibition"	"LEFT"	"LEFT"	447.436499999981	1233.3333358	n/a	n/a	n/a	n/a	n/a	n/a	n/a	"2020-02-28 13:19:13.337341"	"2020-02-28 13:19:13.991854"	38	6.10197875
"S200228"	"Response_Inhibition"	"RIGHT"	"RIGHT"	710.419900000034	850.0000017	n/a	n/a	n/a	n/a	n/a	n/a	n/a	"2020-02-28 13:19:14.850069"	"2020-02-28 13:19:15.769028"	39	6.10197875
"S200228"	"Response_Inhibition"	"RIGHT"	"Time_Max_Exceeded"	1500.06080050003	500.000001	n/a	n/a	n/a	n/a	n/a	n/a	n/a	"2020-02-28 13:19:16.277151"	"2020-02-28 13:19:17.780743"	40	6.10197875
"S200228"	"Response_Inhibition"	"RIGHT"	"RIGHT"	534.210099999996	1100.0000022	n/a	n/a	n/a	n/a	n/a	n/a	n/a	"2020-02-28 13:19:18.890599"	"2020-02-28 13:19:19.632194"	41	6.10197875
"S200228"	"Response_Inhibition"	"RIGHT"	"RIGHT"	670.879300000024	1000.000002	n/a	n/a	n/a	n/a	n/a	n/a	n/a	"2020-02-28 13:19:20.642148"	"2020-02-28 13:19:21.521412"	42	6.10197875
"S200228"	"Response_Inhibition"	"RIGHT"	"Time_Max_Exceeded"	1500.05143380005	1083.3333355	n/a	n/a	n/a	n/a	n/a	n/a	n/a	"2020-02-28 13:19:22.613170"	"2020-02-28 13:19:24.116529"	43	6.10197875
"S200228"	"Response_Inhibition"	"LEFT"	"Time_Max_Exceeded"	1500.08416669997	633.3333346	n/a	n/a	n/a	n/a	n/a	n/a	n/a	"2020-02-28 13:19:24.759165"	"2020-02-28 13:19:26.263576"	44	6.10197875
"S200228"	"Response_Inhibition"	"RIGHT"	"RIGHT"	620.207299999947	1300.0000026	n/a	n/a	n/a	n/a	n/a	n/a	n/a	"2020-02-28 13:19:27.572416"	"2020-02-28 13:19:28.402417"	45	6.10197875
"S200228"	"Response_Inhibition"	"RIGHT"	"RIGHT"	530.301500000064	1283.3333359	n/a	n/a	n/a	n/a	n/a	n/a	n/a	"2020-02-28 13:19:29.694846"	"2020-02-28 13:19:30.433516"	46	6.10197875
"S200228"	"Response_Inhibition"	"RIGHT"	"RIGHT"	623.388900000009	983.3333353	n/a	n/a	n/a	n/a	n/a	n/a	n/a	"2020-02-28 13:19:31.425240"	"2020-02-28 13:19:32.257575"	47	6.10197875
"S200228"	"Response_Inhibition"	"LEFT"	"Time_Max_Exceeded"	1500.05356720003	700.0000014	n/a	n/a	n/a	n/a	n/a	n/a	n/a	"2020-02-28 13:19:32.965799"	"2020-02-28 13:19:34.468964"	48	6.10197875
"S200228"	"Response_Inhibition"	"RIGHT"	"RIGHT"	512.247199999933	650.0000013	n/a	n/a	n/a	n/a	n/a	n/a	n/a	"2020-02-28 13:19:35.128287"	"2020-02-28 13:19:35.849978"	49	6.10197875
"S200228"	"Response_Inhibition"	"LEFT"	"LEFT"	832.963799999902	733.3333348	n/a	n/a	n/a	n/a	n/a	n/a	n/a	"2020-02-28 13:19:36.592272"	"2020-02-28 13:19:37.631807"	50	6.10197875
"S200228"	"Response_Inhibition"	"LEFT"	"LEFT"	414.981100000091	1216.6666691	n/a	n/a	n/a	n/a	n/a	n/a	n/a	"2020-02-28 13:19:38.857562"	"2020-02-28 13:19:39.479932"	51	6.10197875
"S200228"	"Response_Inhibition"	"LEFT"	"Time_Max_Exceeded"	1500.04840049997	1050.0000021	n/a	n/a	n/a	n/a	n/a	n/a	n/a	"2020-02-28 13:19:40.538775"	"2020-02-28 13:19:42.042237"	52	6.10197875
"S200228"	"Response_Inhibition"	"LEFT"	"LEFT"	448.777100000029	1500.000003	n/a	n/a	n/a	n/a	n/a	n/a	n/a	"2020-02-28 13:19:43.551971"	"2020-02-28 13:19:44.209349"	53	6.10197875
"S200228"	"Response_Inhibition"	"RIGHT"	"RIGHT"	532.04560000006	1450.0000029	n/a	n/a	n/a	n/a	n/a	n/a	n/a	"2020-02-28 13:19:45.668918"	"2020-02-28 13:19:46.409747"	54	6.10197875
"S200228"	"Response_Inhibition"	"LEFT"	"LEFT"	567.903999999999	566.6666678	n/a	n/a	n/a	n/a	n/a	n/a	n/a	"2020-02-28 13:19:46.985247"	"2020-02-28 13:19:47.761282"	55	6.10197875
"S200228"	"Response_Inhibition"	"RIGHT"	"RIGHT"	402.977499999906	700.0000014	n/a	n/a	n/a	n/a	n/a	n/a	n/a	"2020-02-28 13:19:48.469771"	"2020-02-28 13:19:49.081523"	56	6.10197875
"S200228"	"Response_Inhibition"	"LEFT"	"LEFT"	586.321800000064	516.6666677	n/a	n/a	n/a	n/a	n/a	n/a	n/a	"2020-02-28 13:19:49.606199"	"2020-02-28 13:19:50.400539"	57	6.10197875
"S200228"	"Response_Inhibition"	"LEFT"	"Time_Max_Exceeded"	1500.05503349993	1016.6666687	n/a	n/a	n/a	n/a	n/a	n/a	n/a	"2020-02-28 13:19:51.426657"	"2020-02-28 13:19:52.929706"	58	6.10197875
"S200228"	"Response_Inhibition"	"RIGHT"	"RIGHT"	409.780300400034	1200.0000024	n/a	n/a	n/a	n/a	n/a	n/a	n/a	"2020-02-28 13:19:54.139189"	"2020-02-28 13:19:54.761136"	59	6.10197875
"S200228"	"Response_Inhibition"	"RIGHT"	"RIGHT"	531.792499999938	1266.6666692	n/a	n/a	n/a	n/a	n/a	n/a	n/a	"2020-02-28 13:19:56.036986"	"2020-02-28 13:19:56.777005"	60	6.10197875
"S200228"	"Response_Inhibition"	"LEFT"	"Time_Max_Exceeded"	1500.05243339998	1283.3333359	n/a	n/a	n/a	n/a	n/a	n/a	n/a	"2020-02-28 13:19:58.068962"	"2020-02-28 13:19:59.572592"	61	6.10197875
"S200228"	"Response_Inhibition"	"RIGHT"	"RIGHT"	433.078599999931	633.3333346	n/a	n/a	n/a	n/a	n/a	n/a	n/a	"2020-02-28 13:20:00.215931"	"2020-02-28 13:20:00.857418"	62	6.10197875
"S200228"	"Response_Inhibition"	"LEFT"	"LEFT"	540.958300000057	650.0000013	n/a	n/a	n/a	n/a	n/a	n/a	n/a	"2020-02-28 13:20:01.515419"	"2020-02-28 13:20:02.264135"	63	6.10197875
"S200228"	"Response_Inhibition"	"RIGHT"	"Time_Max_Exceeded"	1500.11493360008	900.0000018	n/a	n/a	n/a	n/a	n/a	n/a	n/a	"2020-02-28 13:20:03.172051"	"2020-02-28 13:20:04.675637"	64	6.10197875
"S200228"	"Response_Inhibition"	"LEFT"	"LEFT"	468.694200000073	766.6666682	n/a	n/a	n/a	n/a	n/a	n/a	n/a	"2020-02-28 13:20:05.452161"	"2020-02-28 13:20:06.129798"	65	6.10197875
"S200228"	"Response_Inhibition"	"LEFT"	"LEFT"	469.314300000065	1416.6666695	n/a	n/a	n/a	n/a	n/a	n/a	n/a	"2020-02-28 13:20:07.555707"	"2020-02-28 13:20:08.233685"	66	6.10197875
"S200228"	"Response_Inhibition"	"LEFT"	"LEFT"	518.3806	1000.000002	n/a	n/a	n/a	n/a	n/a	n/a	n/a	"2020-02-28 13:20:09.242613"	"2020-02-28 13:20:09.968998"	67	6.10197875
"S200228"	"Response_Inhibition"	"RIGHT"	"Time_Max_Exceeded"	1500.05076699999	1316.6666693	n/a	n/a	n/a	n/a	n/a	n/a	n/a	"2020-02-28 13:20:11.294528"	"2020-02-28 13:20:12.797464"	68	6.10197875
"S200228"	"Response_Inhibition"	"RIGHT"	"Time_Max_Exceeded"	1500.06800009999	766.6666682	n/a	n/a	n/a	n/a	n/a	n/a	n/a	"2020-02-28 13:20:13.573752"	"2020-02-28 13:20:15.077954"	69	6.10197875
"S200228"	"Response_Inhibition"	"LEFT"	"LEFT"	448.616900000047	1433.3333362	n/a	n/a	n/a	n/a	n/a	n/a	n/a	"2020-02-28 13:20:16.520192"	"2020-02-28 13:20:17.177392"	70	6.10197875
"S200228"	"Response_Inhibition"	"LEFT"	"Time_Max_Exceeded"	1500.05320030005	1450.0000029	n/a	n/a	n/a	n/a	n/a	n/a	n/a	"2020-02-28 13:20:18.637344"	"2020-02-28 13:20:20.141315"	71	6.10197875
"S200228"	"Response_Inhibition"	"RIGHT"	"Time_Max_Exceeded"	1500.05873389997	1466.6666696	n/a	n/a	n/a	n/a	n/a	n/a	n/a	"2020-02-28 13:20:21.617825"	"2020-02-28 13:20:23.120997"	72	6.10197875
"S200228"	"Response_Inhibition"	"LEFT"	"LEFT"	522.094700000025	1066.6666688	n/a	n/a	n/a	n/a	n/a	n/a	n/a	"2020-02-28 13:20:24.198914"	"2020-02-28 13:20:24.929370"	73	6.10197875
"S200228"	"Response_Inhibition"	"LEFT"	"LEFT"	670.266500000025	616.6666679	n/a	n/a	n/a	n/a	n/a	n/a	n/a	"2020-02-28 13:20:25.554919"	"2020-02-28 13:20:26.433504"	74	6.10197875
"S200228"	"Response_Inhibition"	"LEFT"	"LEFT"	559.317599999986	1366.6666694	n/a	n/a	n/a	n/a	n/a	n/a	n/a	"2020-02-28 13:20:27.809068"	"2020-02-28 13:20:28.575932"	75	6.10197875
"S200228"	"Response_Inhibition"	"RIGHT"	"RIGHT"	857.991499999912	950.0000019	n/a	n/a	n/a	n/a	n/a	n/a	n/a	"2020-02-28 13:20:29.534415"	"2020-02-28 13:20:30.601512"	76	6.10197875
"S200228"	"Response_Inhibition"	"RIGHT"	"RIGHT"	500.791299999946	1050.0000021	n/a	n/a	n/a	n/a	n/a	n/a	n/a	"2020-02-28 13:20:31.660528"	"2020-02-28 13:20:32.369614"	77	6.10197875
"S200228"	"Response_Inhibition"	"RIGHT"	"Time_Max_Exceeded"	1500.05013340009	1250.0000025	n/a	n/a	n/a	n/a	n/a	n/a	n/a	"2020-02-28 13:20:33.627999"	"2020-02-28 13:20:35.131741"	78	6.10197875
"S200228"	"Response_Inhibition"	"LEFT"	"LEFT"	483.800499999916	966.6666686	n/a	n/a	n/a	n/a	n/a	n/a	n/a	"2020-02-28 13:20:36.109029"	"2020-02-28 13:20:36.801777"	79	6.10197875
"S200228"	"Response_Inhibition"	"LEFT"	"LEFT"	398.422799999935	800.0000016	n/a	n/a	n/a	n/a	n/a	n/a	n/a	"2020-02-28 13:20:37.610721"	"2020-02-28 13:20:38.217722"	80	6.10197875
"S200228"	"Response_Inhibition"	"RIGHT"	"Time_Max_Exceeded"	1500.11243389994	1016.6666687	n/a	n/a	n/a	n/a	n/a	n/a	n/a	"2020-02-28 13:20:39.243001"	"2020-02-28 13:20:40.746582"	81	6.10197875
"S200228"	"Response_Inhibition"	"LEFT"	"Time_Max_Exceeded"	1500.05950000002	550.0000011	n/a	n/a	n/a	n/a	n/a	n/a	n/a	"2020-02-28 13:20:41.305664"	"2020-02-28 13:20:42.806118"	82	6.10197875
"S200228"	"Response_Inhibition"	"RIGHT"	"RIGHT"	613.64489999994	1500.000003	n/a	n/a	n/a	n/a	n/a	n/a	n/a	"2020-02-28 13:20:44.315173"	"2020-02-28 13:20:45.136150"	83	6.10197875
"S200228"	"Response_Inhibition"	"LEFT"	"LEFT"	439.824699999917	600.0000012	n/a	n/a	n/a	n/a	n/a	n/a	n/a	"2020-02-28 13:20:45.744720"	"2020-02-28 13:20:46.393780"	84	6.10197875
"S200228"	"Response_Inhibition"	"RIGHT"	"Time_Max_Exceeded"	1500.06060049998	916.6666685	n/a	n/a	n/a	n/a	n/a	n/a	n/a	"2020-02-28 13:20:47.319552"	"2020-02-28 13:20:48.823305"	85	6.10197875
"S200228"	"Response_Inhibition"	"RIGHT"	"Time_Max_Exceeded"	1500.06096689996	750.0000015	n/a	n/a	n/a	n/a	n/a	n/a	n/a	"2020-02-28 13:20:49.583114"	"2020-02-28 13:20:51.086675"	86	6.10197875
"S200228"	"Response_Inhibition"	"LEFT"	"Time_Max_Exceeded"	1500.06900020003	866.6666684	n/a	n/a	n/a	n/a	n/a	n/a	n/a	"2020-02-28 13:20:51.962977"	"2020-02-28 13:20:53.466631"	87	6.10197875
"S200228"	"Response_Inhibition"	"LEFT"	"Time_Max_Exceeded"	1500.059667	1100.0000022	n/a	n/a	n/a	n/a	n/a	n/a	n/a	"2020-02-28 13:20:54.576170"	"2020-02-28 13:20:56.079210"	88	6.10197875
"S200228"	"Response_Inhibition"	"RIGHT"	"RIGHT"	661.362599999961	866.6666684	n/a	n/a	n/a	n/a	n/a	n/a	n/a	"2020-02-28 13:20:56.955566"	"2020-02-28 13:20:57.825436"	89	6.10197875
"S200228"	"Response_Inhibition"	"RIGHT"	"RIGHT"	429.952200000002	1416.6666695	n/a	n/a	n/a	n/a	n/a	n/a	n/a	"2020-02-28 13:20:59.250600"	"2020-02-28 13:20:59.889637"	90	6.10197875
"S200228"	"Response_Inhibition"	"LEFT"	"LEFT"	591.126800000097	583.3333345	n/a	n/a	n/a	n/a	n/a	n/a	n/a	"2020-02-28 13:21:00.481453"	"2020-02-28 13:21:01.280900"	91	6.10197875
"S200228"	"Response_Inhibition"	"LEFT"	"LEFT"	530.727399999932	1316.6666693	n/a	n/a	n/a	n/a	n/a	n/a	n/a	"2020-02-28 13:21:02.606216"	"2020-02-28 13:21:03.344243"	92	6.10197875
"S200228"	"Response_Inhibition"	"LEFT"	"LEFT"	675.188599999956	900.0000018	n/a	n/a	n/a	n/a	n/a	n/a	n/a	"2020-02-28 13:21:04.253685"	"2020-02-28 13:21:05.137741"	93	6.10197875
"S200228"	"Response_Inhibition"	"RIGHT"	"RIGHT"	931.400999999937	683.3333347	n/a	n/a	n/a	n/a	n/a	n/a	n/a	"2020-02-28 13:21:05.829756"	"2020-02-28 13:21:06.969285"	94	6.10197875
"S200228"	"Response_Inhibition"	"LEFT"	"Time_Max_Exceeded"	1500.06080030005	1266.6666692	n/a	n/a	n/a	n/a	n/a	n/a	n/a	"2020-02-28 13:21:08.244094"	"2020-02-28 13:21:09.748074"	95	6.10197875
"S200228"	"Response_Inhibition"	"LEFT"	"LEFT"	699.801600000001	983.3333353	n/a	n/a	n/a	n/a	n/a	n/a	n/a	"2020-02-28 13:21:10.741429"	"2020-02-28 13:21:11.649748"	96	6.10197875
"S200228"	"Response_Inhibition"	"LEFT"	"LEFT"	501.090399999953	633.3333346	n/a	n/a	n/a	n/a	n/a	n/a	n/a	"2020-02-28 13:21:12.291157"	"2020-02-28 13:21:13.000435"	97	6.10197875
"S200228"	"Response_Inhibition"	"LEFT"	"LEFT"	788.934100000006	1466.6666696	n/a	n/a	n/a	n/a	n/a	n/a	n/a	"2020-02-28 13:21:14.475573"	"2020-02-28 13:21:15.473066"	98	6.10197875
"S200228"	"Response_Inhibition"	"RIGHT"	"RIGHT"	1257.29249999995	533.3333344	n/a	n/a	n/a	n/a	n/a	n/a	n/a	"2020-02-28 13:21:16.015315"	"2020-02-28 13:21:17.479848"	99	6.10197875
"S200228"	"Response_Inhibition"	"LEFT"	"LEFT"	511.013199999979	1033.3333354	n/a	n/a	n/a	n/a	n/a	n/a	n/a	"2020-02-28 13:21:18.521286"	"2020-02-28 13:21:19.239912"	100	6.10197875
"S200228"	"Response_Inhibition"	"RIGHT"	"Time_Max_Exceeded"	1500.15373360005	1133.3333356	n/a	n/a	n/a	n/a	n/a	n/a	n/a	"2020-02-28 13:21:20.382203"	"2020-02-28 13:21:21.885042"	101	6.10197875
"S200228"	"Response_Inhibition"	"RIGHT"	"RIGHT"	544.018499999993	1050.0000021	n/a	n/a	n/a	n/a	n/a	n/a	n/a	"2020-02-28 13:21:22.944519"	"2020-02-28 13:21:23.697693"	102	6.10197875
"S200228"	"Response_Inhibition"	"LEFT"	"Time_Max_Exceeded"	1500.07019999998	1000.000002	n/a	n/a	n/a	n/a	n/a	n/a	n/a	"2020-02-28 13:21:24.707054"	"2020-02-28 13:21:26.207275"	103	6.10197875
"S200228"	"Response_Inhibition"	"LEFT"	"LEFT"	558.672600000023	1416.6666695	n/a	n/a	n/a	n/a	n/a	n/a	n/a	"2020-02-28 13:21:27.633749"	"2020-02-28 13:21:28.401106"	104	6.10197875
"S200228"	"Response_Inhibition"	"LEFT"	"LEFT"	522.794799999929	900.0000018	n/a	n/a	n/a	n/a	n/a	n/a	n/a	"2020-02-28 13:21:29.310201"	"2020-02-28 13:21:30.041069"	105	6.10197875
"S200228"	"Response_Inhibition"	"RIGHT"	"RIGHT"	815.209699999969	950.0000019	n/a	n/a	n/a	n/a	n/a	n/a	n/a	"2020-02-28 13:21:31.001819"	"2020-02-28 13:21:32.025792"	106	6.10197875
"S200228"	"Response_Inhibition"	"RIGHT"	"RIGHT"	414.334499999995	1000.000002	n/a	n/a	n/a	n/a	n/a	n/a	n/a	"2020-02-28 13:21:33.034744"	"2020-02-28 13:21:33.657063"	107	6.10197875
"S200228"	"Response_Inhibition"	"LEFT"	"LEFT"	859.968399999957	683.3333347	n/a	n/a	n/a	n/a	n/a	n/a	n/a	"2020-02-28 13:21:34.348459"	"2020-02-28 13:21:35.415999"	108	6.10197875
"S200228"	"Response_Inhibition"	"RIGHT"	"RIGHT"	533.534499999973	1466.6666696	n/a	n/a	n/a	n/a	n/a	n/a	n/a	"2020-02-28 13:21:36.891465"	"2020-02-28 13:21:37.633378"	109	6.10197875
"S200228"	"Response_Inhibition"	"LEFT"	"LEFT"	375.782399999935	1150.0000023	n/a	n/a	n/a	n/a	n/a	n/a	n/a	"2020-02-28 13:21:38.793324"	"2020-02-28 13:21:39.376957"	110	6.10197875
"S200228"	"Response_Inhibition"	"LEFT"	"LEFT"	401.022600000033	1150.0000023	n/a	n/a	n/a	n/a	n/a	n/a	n/a	"2020-02-28 13:21:40.535798"	"2020-02-28 13:21:41.145465"	111	6.10197875
"S200228"	"Response_Inhibition"	"LEFT"	"Time_Max_Exceeded"	1500.05536680002	916.6666685	n/a	n/a	n/a	n/a	n/a	n/a	n/a	"2020-02-28 13:21:42.070630"	"2020-02-28 13:21:43.573999"	112	6.10197875
"S200228"	"Response_Inhibition"	"RIGHT"	"RIGHT"	548.26920000005	716.6666681	n/a	n/a	n/a	n/a	n/a	n/a	n/a	"2020-02-28 13:21:44.300628"	"2020-02-28 13:21:45.057616"	113	6.10197875
"S200228"	"Response_Inhibition"	"RIGHT"	"RIGHT"	447.245000000066	583.3333345	n/a	n/a	n/a	n/a	n/a	n/a	n/a	"2020-02-28 13:21:45.649055"	"2020-02-28 13:21:46.304148"	114	6.10197875
"S200228"	"Response_Inhibition"	"LEFT"	"Time_Max_Exceeded"	1500.05846700007	1466.6666696	n/a	n/a	n/a	n/a	n/a	n/a	n/a	"2020-02-28 13:21:47.779653"	"2020-02-28 13:21:49.283295"	115	6.10197875
"S200228"	"Response_Inhibition"	"RIGHT"	"RIGHT"	516.579200000024	800.0000016	n/a	n/a	n/a	n/a	n/a	n/a	n/a	"2020-02-28 13:21:50.091888"	"2020-02-28 13:21:50.817699"	116	6.10197875
"S200228"	"Response_Inhibition"	"LEFT"	"LEFT"	636.290000000031	666.666668	n/a	n/a	n/a	n/a	n/a	n/a	n/a	"2020-02-28 13:21:51.492667"	"2020-02-28 13:21:52.337458"	117	6.10197875
"S200228"	"Response_Inhibition"	"RIGHT"	"RIGHT"	501.371199999994	1433.3333362	n/a	n/a	n/a	n/a	n/a	n/a	n/a	"2020-02-28 13:21:53.778889"	"2020-02-28 13:21:54.489717"	118	6.10197875
"S200228"	"Response_Inhibition"	"LEFT"	"LEFT"	484.007499999962	1250.0000025	n/a	n/a	n/a	n/a	n/a	n/a	n/a	"2020-02-28 13:21:55.748293"	"2020-02-28 13:21:56.440037"	119	6.10197875
"S200228"	"Response_Inhibition"	"RIGHT"	"RIGHT"	415.665799999942	600.0000012	n/a	n/a	n/a	n/a	n/a	n/a	n/a	"2020-02-28 13:21:57.048992"	"2020-02-28 13:21:57.672012"	120	6.10197875
"S200228"	"Response_Inhibition"	"RIGHT"	"RIGHT"	705.204900000012	1166.666669	n/a	n/a	n/a	n/a	n/a	n/a	n/a	"2020-02-28 13:21:58.847181"	"2020-02-28 13:21:59.760005"	121	6.10197875
"S200228"	"Response_Inhibition"	"LEFT"	"LEFT"	568.682400000057	1166.666669	n/a	n/a	n/a	n/a	n/a	n/a	n/a	"2020-02-28 13:22:00.935962"	"2020-02-28 13:22:01.713579"	122	6.10197875
"S200228"	"Response_Inhibition"	"RIGHT"	"Time_Max_Exceeded"	1500.05913349999	666.666668	n/a	n/a	n/a	n/a	n/a	n/a	n/a	"2020-02-28 13:22:02.388965"	"2020-02-28 13:22:03.891807"	123	6.10197875
"S200228"	"Response_Inhibition"	"LEFT"	"Time_Max_Exceeded"	1500.05666689996	500.000001	n/a	n/a	n/a	n/a	n/a	n/a	n/a	"2020-02-28 13:22:04.401359"	"2020-02-28 13:22:05.905396"	124	6.10197875
"S200228"	"Response_Inhibition"	"LEFT"	"LEFT"	475.676099999987	1050.0000021	n/a	n/a	n/a	n/a	n/a	n/a	n/a	"2020-02-28 13:22:06.965373"	"2020-02-28 13:22:07.649136"	125	6.10197875
"S200228"	"Response_Inhibition"	"LEFT"	"LEFT"	436.530700000048	1266.6666692	n/a	n/a	n/a	n/a	n/a	n/a	n/a	"2020-02-28 13:22:08.923971"	"2020-02-28 13:22:09.569019"	126	6.10197875
"S200228"	"Response_Inhibition"	"LEFT"	"LEFT"	372.542900599917	783.3333349	n/a	n/a	n/a	n/a	n/a	n/a	n/a	"2020-02-28 13:22:10.360614"	"2020-02-28 13:22:10.944202"	127	6.10197875
"S200228"	"Response_Inhibition"	"LEFT"	"Time_Max_Exceeded"	1500.06563370001	1383.3333361	n/a	n/a	n/a	n/a	n/a	n/a	n/a	"2020-02-28 13:22:12.336689"	"2020-02-28 13:22:13.840079"	128	6.10197875
"S200228"	"Response_Inhibition"	"LEFT"	"LEFT"	504.454799999962	783.3333349	n/a	n/a	n/a	n/a	n/a	n/a	n/a	"2020-02-28 13:22:14.631809"	"2020-02-28 13:22:15.345024"	129	6.10197875
"S200228"	"Response_Inhibition"	"RIGHT"	"Time_Max_Exceeded"	1500.16543360001	1366.6666694	n/a	n/a	n/a	n/a	n/a	n/a	n/a	"2020-02-28 13:22:16.721334"	"2020-02-28 13:22:18.224753"	130	6.10197875
"S200228"	"Response_Inhibition"	"RIGHT"	"RIGHT"	539.388400000007	883.3333351	n/a	n/a	n/a	n/a	n/a	n/a	n/a	"2020-02-28 13:22:19.117466"	"2020-02-28 13:22:19.864798"	131	6.10197875
"S200228"	"Response_Inhibition"	"RIGHT"	"Time_Max_Exceeded"	1500.07036719994	1033.3333354	n/a	n/a	n/a	n/a	n/a	n/a	n/a	"2020-02-28 13:22:20.907266"	"2020-02-28 13:22:22.410928"	132	6.10197875
"S200228"	"Response_Inhibition"	"LEFT"	"Time_Max_Exceeded"	1500.0494668	683.3333347	n/a	n/a	n/a	n/a	n/a	n/a	n/a	"2020-02-28 13:22:23.102881"	"2020-02-28 13:22:24.606765"	133	6.10197875
"S200228"	"Response_Inhibition"	"RIGHT"	"RIGHT"	628.148300000021	516.6666677	n/a	n/a	n/a	n/a	n/a	n/a	n/a	"2020-02-28 13:22:25.133311"	"2020-02-28 13:22:25.969121"	134	6.10197875
"S200228"	"Response_Inhibition"	"RIGHT"	"RIGHT"	623.705099999938	1383.3333361	n/a	n/a	n/a	n/a	n/a	n/a	n/a	"2020-02-28 13:22:27.360893"	"2020-02-28 13:22:28.192473"	135	6.10197875
"S200228"	"Response_Inhibition"	"RIGHT"	"RIGHT"	502.827499999967	1216.6666691	n/a	n/a	n/a	n/a	n/a	n/a	n/a	"2020-02-28 13:22:29.418232"	"2020-02-28 13:22:30.128994"	136	6.10197875
"S200228"	"Response_Inhibition"	"LEFT"	"LEFT"	587.137600000005	1083.3333355	n/a	n/a	n/a	n/a	n/a	n/a	n/a	"2020-02-28 13:22:31.221461"	"2020-02-28 13:22:32.017105"	137	6.10197875
"S200228"	"Response_Inhibition"	"RIGHT"	"RIGHT"	478.281300000049	1216.6666691	n/a	n/a	n/a	n/a	n/a	n/a	n/a	"2020-02-28 13:22:33.242604"	"2020-02-28 13:22:33.929663"	138	6.10197875
"S200228"	"Response_Inhibition"	"RIGHT"	"RIGHT"	701.266099999998	1233.3333358	n/a	n/a	n/a	n/a	n/a	n/a	n/a	"2020-02-28 13:22:35.171321"	"2020-02-28 13:22:36.081018"	139	6.10197875
"S200228"	"Response_Inhibition"	"LEFT"	"LEFT"	734.585700000025	1216.6666691	n/a	n/a	n/a	n/a	n/a	n/a	n/a	"2020-02-28 13:22:37.305824"	"2020-02-28 13:22:38.248055"	140	6.10197875
"S200228"	"Response_Inhibition"	"LEFT"	"Time_Max_Exceeded"	1500.05820030003	1316.6666693	n/a	n/a	n/a	n/a	n/a	n/a	n/a	"2020-02-28 13:22:39.572711"	"2020-02-28 13:22:41.076302"	141	6.10197875
"S200228"	"Response_Inhibition"	"RIGHT"	"RIGHT"	529.234700000075	633.3333346	n/a	n/a	n/a	n/a	n/a	n/a	n/a	"2020-02-28 13:22:41.719601"	"2020-02-28 13:22:42.457534"	142	6.10197875
"S200228"	"Response_Inhibition"	"RIGHT"	"RIGHT"	529.929300000049	1100.0000022	n/a	n/a	n/a	n/a	n/a	n/a	n/a	"2020-02-28 13:22:43.566349"	"2020-02-28 13:22:44.305574"	143	6.10197875
"S200228"	"Response_Inhibition"	"LEFT"	"Time_Max_Exceeded"	1500.08103369995	950.0000019	n/a	n/a	n/a	n/a	n/a	n/a	n/a	"2020-02-28 13:22:45.264202"	"2020-02-28 13:22:46.767879"	144	6.10197875
"S200228"	"Response_Inhibition"	"LEFT"	"LEFT"	539.172467100045	816.6666683	n/a	n/a	n/a	n/a	n/a	n/a	n/a	"2020-02-28 13:22:47.594278"	"2020-02-28 13:22:48.345417"	145	6.10197875
"S200228"	"Response_Inhibition"	"LEFT"	"LEFT"	504.796299999953	950.0000019	n/a	n/a	n/a	n/a	n/a	n/a	n/a	"2020-02-28 13:22:49.303961"	"2020-02-28 13:22:50.016482"	146	6.10197875
"S200228"	"Response_Inhibition"	"LEFT"	"LEFT"	525.661599999921	850.0000017	n/a	n/a	n/a	n/a	n/a	n/a	n/a	"2020-02-28 13:22:50.874776"	"2020-02-28 13:22:51.608093"	147	6.10197875
"S200228"	"Response_Inhibition"	"RIGHT"	"RIGHT"	532.836900000007	1483.3333363	n/a	n/a	n/a	n/a	n/a	n/a	n/a	"2020-02-28 13:22:53.100007"	"2020-02-28 13:22:53.841329"	148	6.10197875
"S200228"	"Response_Inhibition"	"RIGHT"	"Time_Max_Exceeded"	1500.07723380005	683.3333347	n/a	n/a	n/a	n/a	n/a	n/a	n/a	"2020-02-28 13:22:54.533654"	"2020-02-28 13:22:56.037038"	149	6.10197875
"S200228"	"Response_Inhibition"	"RIGHT"	"RIGHT"	726.929899999959	900.0000018	n/a	n/a	n/a	n/a	n/a	n/a	n/a	"2020-02-28 13:22:56.945968"	"2020-02-28 13:22:57.881463"	150	6.10197875
"S200228"	"Response_Inhibition"	"LEFT"	"LEFT"	595.318700000007	1483.3333363	n/a	n/a	n/a	n/a	n/a	n/a	n/a	"2020-02-28 13:22:59.373610"	"2020-02-28 13:23:00.177602"	151	6.10197875
"S200228"	"Response_Inhibition"	"RIGHT"	"Time_Max_Exceeded"	1500.06223380009	850.0000017	n/a	n/a	n/a	n/a	n/a	n/a	n/a	"2020-02-28 13:23:01.035573"	"2020-02-28 13:23:02.539431"	152	6.10197875
"S200228"	"Response_Inhibition"	"LEFT"	"RIGHT"	602.019199999972	850.0000017	n/a	n/a	n/a	n/a	n/a	n/a	n/a	"2020-02-28 13:23:03.398799"	"2020-02-28 13:23:04.210339"	153	6.10197875
"S200228"	"Response_Inhibition"	"RIGHT"	"RIGHT"	576.853699999901	1316.6666693	n/a	n/a	n/a	n/a	n/a	n/a	n/a	"2020-02-28 13:23:05.535212"	"2020-02-28 13:23:06.321103"	154	6.10197875
"S200228"	"Response_Inhibition"	"LEFT"	"LEFT"	545.595400000025	933.3333352	n/a	n/a	n/a	n/a	n/a	n/a	n/a	"2020-02-28 13:23:07.262790"	"2020-02-28 13:23:08.017381"	155	6.10197875
"S200228"	"Response_Inhibition"	"RIGHT"	"RIGHT"	680.642999999918	1116.6666689	n/a	n/a	n/a	n/a	n/a	n/a	n/a	"2020-02-28 13:23:09.144118"	"2020-02-28 13:23:10.033273"	156	6.10197875
"S200228"	"Response_Inhibition"	"RIGHT"	"RIGHT"	616.822900000102	550.0000011	n/a	n/a	n/a	n/a	n/a	n/a	n/a	"2020-02-28 13:23:10.591863"	"2020-02-28 13:23:11.417660"	157	6.10197875
"S200228"	"Response_Inhibition"	"LEFT"	"LEFT"	648.740500000031	1333.333336	n/a	n/a	n/a	n/a	n/a	n/a	n/a	"2020-02-28 13:23:12.760040"	"2020-02-28 13:23:13.617328"	158	6.10197875
"S200228"	"Response_Inhibition"	"RIGHT"	"RIGHT"	463.053500000001	783.3333349	n/a	n/a	n/a	n/a	n/a	n/a	n/a	"2020-02-28 13:23:14.409789"	"2020-02-28 13:23:15.080580"	159	6.10197875
"S200228"	"Response_Inhibition"	"RIGHT"	"Time_Max_Exceeded"	1500.06550019998	966.6666686	n/a	n/a	n/a	n/a	n/a	n/a	n/a	"2020-02-28 13:23:16.055949"	"2020-02-28 13:23:17.559795"	160	6.10197875
"S200228"	"Response_Selection"	"RIGHT"	"RIGHT"	480.342399999984	550.0000011	n/a	n/a	n/a	n/a	n/a	n/a	n/a	"2020-02-28 13:15:10.600942"	"2020-02-28 13:15:11.289255"	1	2.94759948333333
"S200228"	"Response_Selection"	"RIGHT"	"RIGHT"	344.945100000018	1133.3333356	n/a	n/a	n/a	n/a	n/a	n/a	n/a	"2020-02-28 13:15:12.431958"	"2020-02-28 13:15:12.984817"	2	2.94759948333333
"S200228"	"Response_Selection"	"LEFT"	"LEFT"	288.904500000001	966.6666686	n/a	n/a	n/a	n/a	n/a	n/a	n/a	"2020-02-28 13:15:13.960339"	"2020-02-28 13:15:14.457129"	3	2.94759948333333
"S200228"	"Response_Selection"	"LEFT"	"LEFT"	303.686999999968	933.3333352	n/a	n/a	n/a	n/a	n/a	n/a	n/a	"2020-02-28 13:15:15.401084"	"2020-02-28 13:15:15.913556"	4	2.94759948333333
"S200228"	"Response_Selection"	"RIGHT"	"RIGHT"	250.033900000005	1116.6666689	n/a	n/a	n/a	n/a	n/a	n/a	n/a	"2020-02-28 13:15:17.038496"	"2020-02-28 13:15:17.496882"	5	2.94759948333333
"S200228"	"Response_Selection"	"LEFT"	"LEFT"	271.060799999987	1200.0000024	n/a	n/a	n/a	n/a	n/a	n/a	n/a	"2020-02-28 13:15:18.705959"	"2020-02-28 13:15:19.185517"	6	2.94759948333333
"S200228"	"Response_Selection"	"LEFT"	"LEFT"	298.877500000003	883.3333351	n/a	n/a	n/a	n/a	n/a	n/a	n/a	"2020-02-28 13:15:20.077556"	"2020-02-28 13:15:20.584086"	7	2.94759948333333
"S200228"	"Response_Selection"	"LEFT"	"LEFT"	293.662200000028	650.0000013	n/a	n/a	n/a	n/a	n/a	n/a	n/a	"2020-02-28 13:15:21.243079"	"2020-02-28 13:15:21.743931"	8	2.94759948333333
"S200228"	"Response_Selection"	"LEFT"	"LEFT"	247.036800000046	833.333335	n/a	n/a	n/a	n/a	n/a	n/a	n/a	"2020-02-28 13:15:22.585887"	"2020-02-28 13:15:23.039914"	9	2.94759948333333
"S200228"	"Response_Selection"	"LEFT"	"LEFT"	296.63579999999	600.0000012	n/a	n/a	n/a	n/a	n/a	n/a	n/a	"2020-02-28 13:15:23.648123"	"2020-02-28 13:15:24.153553"	10	2.94759948333333
"S200228"	"Response_Selection"	"LEFT"	"LEFT"	272.910500000023	750.0000015	n/a	n/a	n/a	n/a	n/a	n/a	n/a	"2020-02-28 13:15:24.911956"	"2020-02-28 13:15:25.392936"	11	2.94759948333333
"S200228"	"Response_Selection"	"RIGHT"	"RIGHT"	242.738400000007	1316.6666693	n/a	n/a	n/a	n/a	n/a	n/a	n/a	"2020-02-28 13:15:26.718103"	"2020-02-28 13:15:27.168895"	12	2.94759948333333
"S200228"	"Response_Selection"	"LEFT"	"LEFT"	257.181199999991	1133.3333356	n/a	n/a	n/a	n/a	n/a	n/a	n/a	"2020-02-28 13:15:28.312052"	"2020-02-28 13:15:28.778383"	13	2.94759948333333
"S200228"	"Response_Selection"	"RIGHT"	"RIGHT"	281.50370000003	1083.3333355	n/a	n/a	n/a	n/a	n/a	n/a	n/a	"2020-02-28 13:15:29.871812"	"2020-02-28 13:15:30.361660"	14	2.94759948333333
"S200228"	"Response_Selection"	"LEFT"	"LEFT"	266.956600000015	866.6666684	n/a	n/a	n/a	n/a	n/a	n/a	n/a	"2020-02-28 13:15:31.238226"	"2020-02-28 13:15:31.714843"	15	2.94759948333333
"S200228"	"Response_Selection"	"LEFT"	"LEFT"	334.4922	583.3333345	n/a	n/a	n/a	n/a	n/a	n/a	n/a	"2020-02-28 13:15:32.305908"	"2020-02-28 13:15:32.849626"	16	2.94759948333333
"S200228"	"Response_Selection"	"RIGHT"	"RIGHT"	268.214900000032	1066.6666688	n/a	n/a	n/a	n/a	n/a	n/a	n/a	"2020-02-28 13:15:33.925071"	"2020-02-28 13:15:34.401383"	17	2.94759948333333
"S200228"	"Response_Selection"	"RIGHT"	"RIGHT"	325.801000000013	1016.6666687	n/a	n/a	n/a	n/a	n/a	n/a	n/a	"2020-02-28 13:15:35.427319"	"2020-02-28 13:15:35.961767"	18	2.94759948333333
"S200228"	"Response_Selection"	"RIGHT"	"RIGHT"	214.231799999993	1216.6666691	n/a	n/a	n/a	n/a	n/a	n/a	n/a	"2020-02-28 13:15:37.186458"	"2020-02-28 13:15:37.609727"	19	2.94759948333333
"S200228"	"Response_Selection"	"RIGHT"	"RIGHT"	293.453499999998	833.333335	n/a	n/a	n/a	n/a	n/a	n/a	n/a	"2020-02-28 13:15:38.451056"	"2020-02-28 13:15:38.953271"	20	2.94759948333333
"S200228"	"Response_Selection"	"LEFT"	"LEFT"	232.914300000004	1350.0000027	n/a	n/a	n/a	n/a	n/a	n/a	n/a	"2020-02-28 13:15:40.311759"	"2020-02-28 13:15:40.753226"	21	2.94759948333333
"S200228"	"Response_Selection"	"LEFT"	"LEFT"	276.92890000003	1033.3333354	n/a	n/a	n/a	n/a	n/a	n/a	n/a	"2020-02-28 13:15:41.796476"	"2020-02-28 13:15:42.280508"	22	2.94759948333333
"S200228"	"Response_Selection"	"RIGHT"	"RIGHT"	319.751199999985	600.0000012	n/a	n/a	n/a	n/a	n/a	n/a	n/a	"2020-02-28 13:15:42.889242"	"2020-02-28 13:15:43.416888"	23	2.94759948333333
"S200228"	"Response_Selection"	"RIGHT"	"RIGHT"	279.504000000031	583.3333345	n/a	n/a	n/a	n/a	n/a	n/a	n/a	"2020-02-28 13:15:44.009730"	"2020-02-28 13:15:44.496221"	24	2.94759948333333
"S200228"	"Response_Selection"	"LEFT"	"LEFT"	259.428599999978	916.6666685	n/a	n/a	n/a	n/a	n/a	n/a	n/a	"2020-02-28 13:15:45.421505"	"2020-02-28 13:15:45.888185"	25	2.94759948333333
"S200228"	"Response_Selection"	"LEFT"	"LEFT"	317.255399999965	1266.6666692	n/a	n/a	n/a	n/a	n/a	n/a	n/a	"2020-02-28 13:15:47.163798"	"2020-02-28 13:15:47.689333"	26	2.94759948333333
"S200228"	"Response_Selection"	"RIGHT"	"RIGHT"	309.245499999975	650.0000013	n/a	n/a	n/a	n/a	n/a	n/a	n/a	"2020-02-28 13:15:48.347310"	"2020-02-28 13:15:48.864481"	27	2.94759948333333
"S200228"	"Response_Selection"	"RIGHT"	"RIGHT"	314.627500000029	933.3333352	n/a	n/a	n/a	n/a	n/a	n/a	n/a	"2020-02-28 13:15:49.806682"	"2020-02-28 13:15:50.329748"	28	2.94759948333333
"S200228"	"Response_Selection"	"RIGHT"	"RIGHT"	268.657499999961	1450.0000029	n/a	n/a	n/a	n/a	n/a	n/a	n/a	"2020-02-28 13:15:51.788091"	"2020-02-28 13:15:52.264938"	29	2.94759948333333
"S200228"	"Response_Selection"	"LEFT"	"LEFT"	259.212899999966	1300.0000026	n/a	n/a	n/a	n/a	n/a	n/a	n/a	"2020-02-28 13:15:53.573482"	"2020-02-28 13:15:54.040542"	30	2.94759948333333
"S200228"	"Response_Selection"	"LEFT"	"LEFT"	287.824199999989	1400.0000028	n/a	n/a	n/a	n/a	n/a	n/a	n/a	"2020-02-28 13:15:55.449238"	"2020-02-28 13:15:55.944249"	31	2.94759948333333
"S200228"	"Response_Selection"	"LEFT"	"LEFT"	278.978000000052	800.0000016	n/a	n/a	n/a	n/a	n/a	n/a	n/a	"2020-02-28 13:15:56.753761"	"2020-02-28 13:15:57.241102"	32	2.94759948333333
"S200228"	"Response_Selection"	"RIGHT"	"RIGHT"	289.45520000002	750.0000015	n/a	n/a	n/a	n/a	n/a	n/a	n/a	"2020-02-28 13:15:57.999730"	"2020-02-28 13:15:58.497400"	33	2.94759948333333
"S200228"	"Response_Selection"	"RIGHT"	"RIGHT"	276.835399999982	1250.0000025	n/a	n/a	n/a	n/a	n/a	n/a	n/a	"2020-02-28 13:15:59.756663"	"2020-02-28 13:16:00.242045"	34	2.94759948333333
"S200228"	"Response_Selection"	"LEFT"	"LEFT"	253.5843	1216.6666691	n/a	n/a	n/a	n/a	n/a	n/a	n/a	"2020-02-28 13:16:01.467614"	"2020-02-28 13:16:01.928240"	35	2.94759948333333
"S200228"	"Response_Selection"	"LEFT"	"LEFT"	387.413100000003	700.0000014	n/a	n/a	n/a	n/a	n/a	n/a	n/a	"2020-02-28 13:16:02.637135"	"2020-02-28 13:16:03.233507"	36	2.94759948333333
"S200228"	"Response_Selection"	"LEFT"	"LEFT"	328.261699999985	1366.6666694	n/a	n/a	n/a	n/a	n/a	n/a	n/a	"2020-02-28 13:16:04.608974"	"2020-02-28 13:16:05.145145"	37	2.94759948333333
"S200228"	"Response_Selection"	"RIGHT"	"RIGHT"	270.385400000009	1416.6666695	n/a	n/a	n/a	n/a	n/a	n/a	n/a	"2020-02-28 13:16:06.570683"	"2020-02-28 13:16:07.048007"	38	2.94759948333333
"S200228"	"Response_Selection"	"LEFT"	"LEFT"	277.05850000001	1083.3333355	n/a	n/a	n/a	n/a	n/a	n/a	n/a	"2020-02-28 13:16:08.139896"	"2020-02-28 13:16:08.624991"	39	2.94759948333333
"S200228"	"Response_Selection"	"RIGHT"	"RIGHT"	303.459099999998	800.0000016	n/a	n/a	n/a	n/a	n/a	n/a	n/a	"2020-02-28 13:16:09.433448"	"2020-02-28 13:16:09.945489"	40	2.94759948333333
"S200228"	"Response_Selection"	"RIGHT"	"RIGHT"	328.053100000034	533.3333344	n/a	n/a	n/a	n/a	n/a	n/a	n/a	"2020-02-28 13:16:10.489100"	"2020-02-28 13:16:11.024831"	41	2.94759948333333
"S200228"	"Response_Selection"	"RIGHT"	"RIGHT"	307.547499999998	700.0000014	n/a	n/a	n/a	n/a	n/a	n/a	n/a	"2020-02-28 13:16:11.733544"	"2020-02-28 13:16:12.249310"	42	2.94759948333333
"S200228"	"Response_Selection"	"RIGHT"	"RIGHT"	291.75360000005	883.3333351	n/a	n/a	n/a	n/a	n/a	n/a	n/a	"2020-02-28 13:16:13.141267"	"2020-02-28 13:16:13.641645"	43	2.94759948333333
"S200228"	"Response_Selection"	"RIGHT"	"RIGHT"	258.485600000029	1300.0000026	n/a	n/a	n/a	n/a	n/a	n/a	n/a	"2020-02-28 13:16:14.950734"	"2020-02-28 13:16:15.418042"	44	2.94759948333333
"S200228"	"Response_Selection"	"LEFT"	"LEFT"	321.628599999997	533.3333344	n/a	n/a	n/a	n/a	n/a	n/a	n/a	"2020-02-28 13:16:15.959549"	"2020-02-28 13:16:16.489609"	45	2.94759948333333
"S200228"	"Response_Selection"	"RIGHT"	"RIGHT"	284.244000000001	1200.0000024	n/a	n/a	n/a	n/a	n/a	n/a	n/a	"2020-02-28 13:16:17.700422"	"2020-02-28 13:16:18.193481"	46	2.94759948333333
"S200228"	"Response_Selection"	"LEFT"	"LEFT"	285.642200000041	633.3333346	n/a	n/a	n/a	n/a	n/a	n/a	n/a	"2020-02-28 13:16:18.835129"	"2020-02-28 13:16:19.329442"	47	2.94759948333333
"S200228"	"Response_Selection"	"LEFT"	"LEFT"	292.252799999972	1466.6666696	n/a	n/a	n/a	n/a	n/a	n/a	n/a	"2020-02-28 13:16:20.804196"	"2020-02-28 13:16:21.305427"	48	2.94759948333333
"S200228"	"Response_Selection"	"LEFT"	"LEFT"	324.467499999969	1066.6666688	n/a	n/a	n/a	n/a	n/a	n/a	n/a	"2020-02-28 13:16:22.380233"	"2020-02-28 13:16:22.913492"	49	2.94759948333333
"S200228"	"Response_Selection"	"RIGHT"	"RIGHT"	312.328499999978	1366.6666694	n/a	n/a	n/a	n/a	n/a	n/a	n/a	"2020-02-28 13:16:24.288839"	"2020-02-28 13:16:24.809312"	50	2.94759948333333
"S200228"	"Response_Selection"	"RIGHT"	"RIGHT"	331.05119999999	500.000001	n/a	n/a	n/a	n/a	n/a	n/a	n/a	"2020-02-28 13:16:25.318356"	"2020-02-28 13:16:25.857685"	51	2.94759948333333
"S200228"	"Response_Selection"	"RIGHT"	"RIGHT"	283.864800000003	1266.6666692	n/a	n/a	n/a	n/a	n/a	n/a	n/a	"2020-02-28 13:16:27.133247"	"2020-02-28 13:16:27.624134"	52	2.94759948333333
"S200228"	"Response_Selection"	"RIGHT"	"RIGHT"	297.273700000005	1350.0000027	n/a	n/a	n/a	n/a	n/a	n/a	n/a	"2020-02-28 13:16:28.983694"	"2020-02-28 13:16:29.489563"	53	2.94759948333333
"S200228"	"Response_Selection"	"RIGHT"	"RIGHT"	355.439799999999	683.3333347	n/a	n/a	n/a	n/a	n/a	n/a	n/a	"2020-02-28 13:16:30.181092"	"2020-02-28 13:16:30.745689"	54	2.94759948333333
"S200228"	"Response_Selection"	"LEFT"	"LEFT"	399.251600000014	783.3333349	n/a	n/a	n/a	n/a	n/a	n/a	n/a	"2020-02-28 13:16:31.537958"	"2020-02-28 13:16:32.144923"	55	2.94759948333333
"S200228"	"Response_Selection"	"LEFT"	"LEFT"	315.836399999966	500.000001	n/a	n/a	n/a	n/a	n/a	n/a	n/a	"2020-02-28 13:16:32.653299"	"2020-02-28 13:16:33.177558"	56	2.94759948333333
"S200228"	"Response_Selection"	"RIGHT"	"RIGHT"	351.98170000001	966.6666686	n/a	n/a	n/a	n/a	n/a	n/a	n/a	"2020-02-28 13:16:34.152705"	"2020-02-28 13:16:34.713168"	57	2.94759948333333
"S200228"	"Response_Selection"	"RIGHT"	"RIGHT"	308.1727	866.6666684	n/a	n/a	n/a	n/a	n/a	n/a	n/a	"2020-02-28 13:16:35.588538"	"2020-02-28 13:16:36.105785"	58	2.94759948333333
"S200228"	"Response_Selection"	"LEFT"	"LEFT"	328.277700000001	550.0000011	n/a	n/a	n/a	n/a	n/a	n/a	n/a	"2020-02-28 13:16:36.664348"	"2020-02-28 13:16:37.200869"	59	2.94759948333333
"S200228"	"Response_Selection"	"LEFT"	"LEFT"	355.451999999957	1500.000003	n/a	n/a	n/a	n/a	n/a	n/a	n/a	"2020-02-28 13:16:38.709453"	"2020-02-28 13:16:39.273631"	60	2.94759948333333
"S200228"	"Response_Selection"	"LEFT"	"LEFT"	287.057800000014	1166.666669	n/a	n/a	n/a	n/a	n/a	n/a	n/a	"2020-02-28 13:16:40.450224"	"2020-02-28 13:16:40.945104"	61	2.94759948333333
"S200228"	"Response_Selection"	"RIGHT"	"RIGHT"	457.868599999983	733.3333348	n/a	n/a	n/a	n/a	n/a	n/a	n/a	"2020-02-28 13:16:41.686739"	"2020-02-28 13:16:42.352946"	62	2.94759948333333
"S200228"	"Response_Selection"	"RIGHT"	"RIGHT"	231.909500000029	1166.666669	n/a	n/a	n/a	n/a	n/a	n/a	n/a	"2020-02-28 13:16:43.528647"	"2020-02-28 13:16:43.967969"	63	2.94759948333333
"S200228"	"Response_Selection"	"LEFT"	"LEFT"	325.045299999999	683.3333347	n/a	n/a	n/a	n/a	n/a	n/a	n/a	"2020-02-28 13:16:44.659934"	"2020-02-28 13:16:45.193241"	64	2.94759948333333
"S200228"	"Response_Selection"	"RIGHT"	"RIGHT"	231.013899999994	1400.0000028	n/a	n/a	n/a	n/a	n/a	n/a	n/a	"2020-02-28 13:16:46.602201"	"2020-02-28 13:16:47.041602"	65	2.94759948333333
"S200228"	"Response_Selection"	"LEFT"	"LEFT"	268.351800000005	1450.0000029	n/a	n/a	n/a	n/a	n/a	n/a	n/a	"2020-02-28 13:16:48.500156"	"2020-02-28 13:16:48.977347"	66	2.94759948333333
"S200228"	"Response_Selection"	"LEFT"	"LEFT"	330.679499999974	1316.6666693	n/a	n/a	n/a	n/a	n/a	n/a	n/a	"2020-02-28 13:16:50.302063"	"2020-02-28 13:16:50.841782"	67	2.94759948333333
"S200228"	"Response_Selection"	"RIGHT"	"RIGHT"	287.416000000007	983.3333353	n/a	n/a	n/a	n/a	n/a	n/a	n/a	"2020-02-28 13:16:51.833197"	"2020-02-28 13:16:52.327881"	68	2.94759948333333
"S200228"	"Response_Selection"	"RIGHT"	"RIGHT"	243.675699999983	1500.000003	n/a	n/a	n/a	n/a	n/a	n/a	n/a	"2020-02-28 13:16:53.836927"	"2020-02-28 13:16:54.288944"	69	2.94759948333333
"S200228"	"Response_Selection"	"RIGHT"	"RIGHT"	276.483700000028	1466.6666696	n/a	n/a	n/a	n/a	n/a	n/a	n/a	"2020-02-28 13:16:55.764776"	"2020-02-28 13:16:56.249076"	70	2.94759948333333
"S200228"	"Response_Selection"	"RIGHT"	"RIGHT"	349.85370000004	633.3333346	n/a	n/a	n/a	n/a	n/a	n/a	n/a	"2020-02-28 13:16:56.891199"	"2020-02-28 13:16:57.449372"	71	2.94759948333333
"S200228"	"Response_Selection"	"LEFT"	"LEFT"	297.874799999988	1116.6666689	n/a	n/a	n/a	n/a	n/a	n/a	n/a	"2020-02-28 13:16:58.574922"	"2020-02-28 13:16:59.081355"	72	2.94759948333333
"S200228"	"Response_Selection"	"LEFT"	"LEFT"	273.510400000021	733.3333348	n/a	n/a	n/a	n/a	n/a	n/a	n/a	"2020-02-28 13:16:59.823768"	"2020-02-28 13:17:00.305389"	73	2.94759948333333
"S200228"	"Response_Selection"	"LEFT"	"LEFT"	276.267899999993	1250.0000025	n/a	n/a	n/a	n/a	n/a	n/a	n/a	"2020-02-28 13:17:01.564144"	"2020-02-28 13:17:02.049460"	74	2.94759948333333
"S200228"	"Response_Selection"	"RIGHT"	"RIGHT"	349.595600000043	1033.3333354	n/a	n/a	n/a	n/a	n/a	n/a	n/a	"2020-02-28 13:17:03.090988"	"2020-02-28 13:17:03.648185"	75	2.94759948333333
"S200228"	"Response_Selection"	"LEFT"	"LEFT"	286.283800000035	1416.6666695	n/a	n/a	n/a	n/a	n/a	n/a	n/a	"2020-02-28 13:17:05.075007"	"2020-02-28 13:17:05.568200"	76	2.94759948333333
"S200228"	"Response_Selection"	"LEFT"	"LEFT"	344.020999999998	983.3333353	n/a	n/a	n/a	n/a	n/a	n/a	n/a	"2020-02-28 13:17:06.560580"	"2020-02-28 13:17:07.112184"	77	2.94759948333333
"S200228"	"Response_Selection"	"LEFT"	"LEFT"	287.254300000029	1016.6666687	n/a	n/a	n/a	n/a	n/a	n/a	n/a	"2020-02-28 13:17:08.137862"	"2020-02-28 13:17:08.633017"	78	2.94759948333333
"S200228"	"Response_Selection"	"RIGHT"	"RIGHT"	305.660699999976	916.6666685	n/a	n/a	n/a	n/a	n/a	n/a	n/a	"2020-02-28 13:17:09.559551"	"2020-02-28 13:17:10.072058"	79	2.94759948333333
"S200228"	"Response_Selection"	"RIGHT"	"RIGHT"	304.051999999956	783.3333349	n/a	n/a	n/a	n/a	n/a	n/a	n/a	"2020-02-28 13:17:10.865047"	"2020-02-28 13:17:11.377401"	80	2.94759948333333
