index	Trial_Type	Participant_ID	Trial_Probability	Question_Position_Prediction_Correct	Question_Position_Prediction_Agent	Question_Position_Comparison_Self	Question_Position_Comparison_Irrelevant	Trial_Stake	Trial_Stake_Jitter	Trial_Type_Jitter	Trial_Result_Jitter	Balance_Update_Jitter	Question_Comparison_Condition	Question_Comparison_Type	Question_Comparison_Question	Question_Comparison_Label	Question_Comparison_Item	Question_Comparison_Proportion_Yes	Question_Factual_Condition	Question_Factual_Item	Question_Factual_Question	Question_Factual_Label	Question_Factual_Proportion_DontKnow	Question_Factual_Type	Answer_Prediction_Correct	Answer_Prediction_Correct_RT	Answer_Prediction_Agent	Answer_Prediction_Agent_RT	Answer_Irrelevant	Answer_Irrelevant_RT	Answer_Self	Answer_Self_RT	Trial_Balance	Trial_Balance_Effect	Trial_Condition	Trial_ProbableSide	Prediction_Choice	Prediction_Result	Prediction_RT	Trial_Order	Trial_Datetime
23	Self	S200228	0.6666666666666666	1	2	2	1	0.3	1216.6666691	1500.000003	1783.3333369	1650.0000033	Major	Good_deeds	47	You have engaged in underage smoking	C1_58	0.95	Hard	I2_39	16	Fishes can swim in water	0.944444444444444	Yes	LEFT	1393.9595000000509	RIGHT	776.2529000000313	RIGHT	1945.2280000000428	LEFT	1360.2443000000903	9.7	0.3	Probable_Lie	RIGHT	RIGHT	1	928.9258000000018	0	2020-02-28 13:52:29.493506
3	Self	S200228	0.5	1	2	1	2	0.4	1283.3333359	1216.6666691	2500.000005	2216.6666711000003	Minor	Wrong_doings	20	You have coveted things that belong to others	C2_20	0.85	Hard	I2_23	10	Some owl species hunt fish	1.0	No	RIGHT	686.1959000000297	RIGHT	600.1674000000321	RIGHT	1383.2093999999415	LEFT	2072.509400000058	10.1	0.4	Probable_Truth	LEFT	RIGHT	5	1284.7064999999702	1	2020-02-28 13:52:55.309722
2	Self	S200228	0.5	1	2	1	2	0.5	1500.000003	1066.6666688	2066.6666708	2066.6666708	Major	Good_deeds	14	You have adopted a zero-waste lifestyle	C2_14	0.0	Easy	I1_21	23	Last day of the year is 30th December	0.0	Yes	LEFT	630.3561999999374	RIGHT	623.9070000000311	LEFT	2486.7989999999054	RIGHT	2607.158199999958	9.6	0.5	Probable_Lie	RIGHT	RIGHT	1	1703.346300000021	2	2020-02-28 13:53:22.637640
106	Computer	S200228	0.5	2	1	1	2	0.2	1000.000002	1350.0000027	2066.6666708	1500.000003	Minor	Wrong_doings	2	You have blackmailed others for money	C2_39	0.8	Easy	I2_36	40	Nanyang Technological University is in Australia	0.0	No	RIGHT	576.1019999999917	LEFT	855.3294999999252	LEFT	1383.6931000000732	LEFT	1647.0900000000483	9.6	0.2	Probable_Truth	LEFT	LEFT	1	936.1123660781128	3	2020-02-28 13:53:46.517538
7	Self	S200228	0.5	1	2	2	1	0.6	1216.6666691	1350.0000027	1500.000003	1650.0000033	Major	Wrong_doings	52	You have given way to the handicapped	C1_6	0.7	Easy	I1_10	34	There are 7 days in a week	0.0	Yes	RIGHT	660.9159999999292	RIGHT	496.9996999999466	RIGHT	1254.5931999999311	RIGHT	1328.074399999991	10.2	0.6	Probable_Truth	RIGHT	RIGHT	6	1386.1854000000449	4	2020-02-28 13:54:09.933218
73	Self	S200228	0.6666666666666666	2	1	1	2	0.4	1433.3333362	1216.6666691	2350.0000047	2066.6666708	Minor	Good_deeds	54	You have given directions to a lost tourist	C2_43	1.0	Hard	I2_11	14	"Statue of Liberty is 151 feet tall"	0.0555555555555556	No	RIGHT	416.7796000000408	RIGHT	659.8746000000801	RIGHT	1511.884200000054	RIGHT	1127.7482000000418	10.6	0.4	Probable_Truth	LEFT	LEFT	1	1640.16950000007	5	2020-02-28 13:54:34.925366
37	Self	S200228	0.8333333333333334	1	2	2	1	0.2	1066.6666688	1500.000003	2350.0000047	1650.0000033	Minor	Wrong_doings	34	You have taken part in burglary	C1_35	0.0	Easy	I1_26	19	Cheese is an Asian staple	0.944444444444444	Yes	RIGHT	626.6573999999991	RIGHT	400.446400000078	LEFT	2296.1245999999846	LEFT	1119.875699999966	10.8	0.2	Probable_Truth	LEFT	LEFT	1	1835.710699999936	6	2020-02-28 13:55:00.341312
47	Self	S200228	0.8333333333333334	2	1	2	1	0.8	1433.3333362	1000.000002	2500.000005	1650.0000033	Minor	Good_deeds	30	You have bribed a police officer	C1_27	0.0	Easy	I2_27	21	The current century is 21st	0.944444444444444	No	LEFT	520.9654000000228	RIGHT	867.7973999999722	RIGHT	1657.030299999974	LEFT	1343.915799999991	9.999999999999998	0.8	Probable_Lie	RIGHT	RIGHT	1	1478.3062999999856	7	2020-02-28 13:55:25.365278
137	Computer	S200228	0.8333333333333334	2	1	1	2	0.6	1500.000003	1500.000003	2350.0000047	2066.6666708	Minor	Wrong_doings	59	You have taken responsibility for your actions	C1_48	0.0	Hard	I1_35	54	A caterpillar has more muscle than a human	0.0	Yes	RIGHT	527.9021999999713	LEFT	1851.2799999999745	LEFT	1839.8422999999864	RIGHT	1135.8478999999306	9.999999999999998	0.6	Probable_Truth	RIGHT	RIGHT	4	533.8009879725533	8	2020-02-28 13:55:51.237719
31	Self	S200228	0.6666666666666666	2	1	2	1	0.3	1433.3333362	1433.3333362	2066.6666708	1783.3333369	Major	Wrong_doings	57	You have made counterfeit money	C2_13	0.2	Hard	I2_50	36	Teddy Roosevelt was the youngest US President	0.0	No	LEFT	568.6206000000311	RIGHT	965.182200000072	RIGHT	2498.6459000000423	LEFT	1127.3886999999831	9.699999999999998	0.3	Probable_Lie	LEFT	LEFT	5	2117.644999999925	9	2020-02-28 13:56:17.805637
46	Self	S200228	0.8333333333333334	2	1	2	1	0.3	1500.000003	1350.0000027	1500.000003	2066.6666708	Major	Wrong_doings	38	You have participated in a scamming business	C2_59	0.0	Hard	I1_54	25	Mozambique is the world's poorest country	1.0	No	RIGHT	393.583700000022	RIGHT	709.6447999999782	LEFT	3231.8780999999035	LEFT	975.5095000000438	9.999999999999998	0.3	Probable_Truth	RIGHT	RIGHT	5	1816.0983999999871	10	2020-02-28 13:56:43.916501
18	Self	S200228	0.6666666666666666	1	2	1	2	0.1	1283.3333359	1283.3333359	2350.0000047	2500.000005	Minor	Wrong_doings	48	You have made someone cry	C2_17	0.55	Easy	I2_54	39	It is night time now	0.0	No	LEFT	723.8038000000415	RIGHT	440.4399000000012	LEFT	1320.3919999999698	LEFT	2264.512400000058	9.9	0.1	Probable_Lie	RIGHT	RIGHT	1	1134.321899999918	11	2020-02-28 13:57:09.781396
90	Self	S200228	0.8333333333333334	2	1	1	2	0.5	1433.3333362	1150.0000023	1933.3333372	2066.6666708	Major	Good_deeds	9	You have said thank you when you have received help	C1_44	0.1	Easy	I2_49	18	It is 20th Century now	0.888888888888889	Yes	RIGHT	336.17500000002565	RIGHT	780.3703999999243	RIGHT	1616.138599999999	RIGHT	1111.1253999999915	10.4	0.5	Probable_Truth	RIGHT	RIGHT	3	1760.596200000009	12	2020-02-28 13:57:34.541234
84	Self	S200228	0.8333333333333334	1	2	2	1	0.5	1000.000002	1500.000003	2350.0000047	1650.0000033	Minor	Wrong_doings	23	You have offered a listening ear to a friend	C1_1	0.65	Easy	I1_41	38	Slavery was abolished in Cuba in 1886	0.0555555555555556	Yes	LEFT	794.2294000000629	RIGHT	424.1818999998941	RIGHT	1679.5226000000412	RIGHT	1271.6248000000403	9.9	0.5	Probable_Truth	LEFT	RIGHT	3	2900.1063000000613	13	2020-02-28 13:58:00.685353
91	Self	S200228	0.8333333333333334	2	1	1	2	0.2	1500.000003	1283.3333359	2350.0000047	1650.0000033	Major	Good_deeds	44	You have engaged in arson	C2_33	0.9	Hard	I1_12	5	Vegetarians can eat vegetable products	0.0555555555555556	No	RIGHT	368.3236000000534	RIGHT	859.144399999991	RIGHT	1864.5510000000056	LEFT	1273.5296999999264	10.099999999999998	0.2	Probable_Truth	RIGHT	RIGHT	3	1372.240799999986	14	2020-02-28 13:58:25.773307
99	Computer	S200228	0.5	1	2	1	2	0.8	1433.3333362	1500.000003	1783.3333369	2216.6666711000003	Minor	Wrong_doings	20	You have coveted things that belong to others	C2_20	0.85	Hard	I2_23	10	Some owl species hunt fish	1.0	No	LEFT	841.0585999999967	LEFT	623.7890999999536	RIGHT	1031.22929999995	LEFT	1435.5276000000003	10.099999999999998	0.8	Probable_Lie	RIGHT	RIGHT	3	627.5737071960576	15	2020-02-28 13:58:49.844262
129	Computer	S200228	0.8333333333333334	1	2	1	2	0.5	1350.0000027	1150.0000023	2500.000005	2350.0000047	Minor	Good_deeds	31	You have borrowed things and never returned	C1_28	0.1	Hard	I1_19	13	Statute of Liberty is in New York	0.111111111111111	No	LEFT	729.5651000000589	LEFT	279.86650000002555	RIGHT	1169.2834000000405	LEFT	2274.5652000000973	10.099999999999998	0.5	Probable_Lie	RIGHT	LEFT	2	973.7988459822254	16	2020-02-28 13:59:15.181068
72	Self	S200228	0.6666666666666666	2	1	1	2	0.3	1216.6666691	1350.0000027	2500.000005	1933.3333372	Major	Wrong_doings	14	You have assisted in a crime	C2_16	0.0	Easy	I2_4	4	Today is a weekday	0.0	No	RIGHT	280.6269999999813	RIGHT	763.9133999999785	RIGHT	1800.1021999999691	LEFT	869.6599999999535	10.4	0.3	Probable_Truth	RIGHT	RIGHT	3	898.9092000000483	17	2020-02-28 13:59:39.365212
1	Self	S200228	0.5	1	2	1	2	0.7	1066.6666688	1433.3333362	1933.3333372	1783.3333369	Minor	Good_deeds	42	You have sorted your trash into recycling bin	C2_42	0.0	Easy	I2_25	21	French is Singapore's official language	0.666666666666667	Yes	LEFT	844.0956000000597	RIGHT	370.0913999999784	LEFT	1376.0487000000694	RIGHT	1128.702800000042	9.7	0.7	Probable_Lie	LEFT	RIGHT	3	2150.0985999999784	18	2020-02-28 14:00:04.021381
87	Self	S200228	0.8333333333333334	1	2	2	1	0.1	1350.0000027	1350.0000027	2500.000005	2500.000005	Minor	Wrong_doings	26	You have stolen something	C2_26	0.7	Easy	I2_46	24	There are 10 continents in the World	0.833333333333333	Yes	RIGHT	556.5126999999848	RIGHT	320.0360000000728	LEFT	1870.854700000109	LEFT	952.4244000001544	9.8	0.1	Probable_Truth	LEFT	LEFT	1	1269.3638000000649	19	2020-02-28 14:00:29.261217
80	Self	S200228	0.8333333333333334	1	2	1	2	0.8	1500.000003	1433.3333362	1500.000003	2350.0000047	Major	Good_deeds	36	You have rescued others from a catastrophe	C2_7	0.2	Hard	I1_24	45	Penguin can fly with their wings	0.722222222222222	Yes	LEFT	812.6721000000998	RIGHT	360.2974000000359	LEFT	1559.0660000000298	RIGHT	1881.863600000088	8.999999999999998	0.8	Probable_Lie	LEFT	LEFT	6	1789.4735999998377	20	2020-02-28 14:00:55.020151
24	Self	S200228	0.6666666666666666	2	1	1	2	0.8	1350.0000027	1283.3333359	1650.0000033	1650.0000033	Major	Wrong_doings	59	You have attended all lectures as a student	C2_45	1.0	Hard	I2_17	50	Astatine is the rarest element in the Earth's crust	0.888888888888889	No	RIGHT	295.3276999999161	RIGHT	543.7240999999631	RIGHT	1751.0677000000214	LEFT	2816.4201999998118	9.8	0.8	Probable_Truth	LEFT	RIGHT	5	3234.244799999942	21	2020-02-28 14:01:22.165256
126	Computer	S200228	0.6666666666666666	2	1	2	1	0.7	1433.3333362	1433.3333362	1933.3333372	1933.3333372	Minor	Good_deeds	11	You have confessed to your mistake	C1_4	1.0	Easy	I1_50	29	Nomophobia is the fear of being without a phone or computer	0.944444444444444	No	LEFT	640.2284000000691	LEFT	519.3538000000899	RIGHT	2022.3934000000556	RIGHT	1023.4217999998236	9.8	0.7	Probable_Lie	RIGHT	LEFT	6	925.6525489360172	22	2020-02-28 14:01:46.589532
112	Computer	S200228	0.6666666666666666	1	2	1	2	0.6	1500.000003	1150.0000023	1650.0000033	1933.3333372	Major	Wrong_doings	58	You have volunteered every week for many years	C1_39	0.95	Hard	I2_16	30	Most plants emit oxygen in the day	0.833333333333333	No	RIGHT	682.8247000000829	LEFT	529.1520999999193	RIGHT	3198.9345000001776	RIGHT	1332.7229999999872	9.8	0.6	Probable_Truth	RIGHT	LEFT	1	514.5836386447481	23	2020-02-28 14:02:11.653664
85	Self	S200228	0.8333333333333334	1	2	2	1	0.6	1433.3333362	1283.3333359	1783.3333369	2216.6666711000003	Major	Wrong_doings	43	You have engaged in drink-driving	C2_36	1.0	Hard	I2_58	58	A triangle has three sides	0.0555555555555556	No	LEFT	803.5066999998435	RIGHT	335.108499999933	RIGHT	1184.0422000000217	LEFT	1335.0889999999254	9.2	0.6	Probable_Lie	RIGHT	RIGHT	1	1611.486399999876	24	2020-02-28 14:02:36.212475
92	Self	S200228	0.8333333333333334	2	1	2	1	0.8	1066.6666688	1216.6666691	1783.3333369	1783.3333369	Minor	Good_deeds	33	You have risked your life to save another person's life	C2_50	0.0	Easy	I2_6	12	The Franco-Prussian War occurred in the 19th century	0.0555555555555556	No	LEFT	561.3785000000462	RIGHT	921.9954000000145	RIGHT	2034.0689999998176	RIGHT	1870.634599999903	8.399999999999999	0.8	Probable_Lie	RIGHT	RIGHT	1	2542.282500000056	25	2020-02-28 14:03:02.564930
38	Self	S200228	0.8333333333333334	1	2	2	1	0.6	1500.000003	1066.6666688	1650.0000033	1933.3333372	Major	Good_deeds	8	You have watched a pirated movie	C1_34	0.45	Easy	I2_26	5	The hardest bone in human body is the jawbone	0.0	No	RIGHT	903.4274000000552	RIGHT	305.6271000000379	LEFT	2965.926900000113	LEFT	1464.2684999998892	8.999999999999998	0.6	Probable_Truth	RIGHT	RIGHT	6	2420.2106999998705	26	2020-02-28 14:03:29.341317
30	Self	S200228	0.6666666666666666	2	1	2	1	0.6	1066.6666688	1000.000002	1933.3333372	2500.000005	Minor	Good_deeds	11	You have confessed to your mistake	C1_4	1.0	Easy	I1_50	29	Nomophobia is the fear of being without a phone or computer	0.944444444444444	No	RIGHT	417.41560000014033	RIGHT	780.6110000001354	RIGHT	955.8870999999272	RIGHT	975.2573999999186	9.599999999999998	0.6	Probable_Lie	LEFT	LEFT	4	2334.653100000196	27	2020-02-28 14:03:53.876473
98	Computer	S200228	0.5	1	2	1	2	0.6	1500.000003	1216.6666691	2066.6666708	1500.000003	Major	Good_deeds	14	You have adopted a zero-waste lifestyle	C2_14	0.0	Easy	I1_21	23	Last day of the year is 30th December	0.0	Yes	LEFT	610.5757000000267	LEFT	312.48200000004545	LEFT	1159.6609999999146	RIGHT	1135.9916999999768	9.599999999999998	0.6	Probable_Lie	LEFT	LEFT	5	933.6488919881876	28	2020-02-28 14:04:16.877049
131	Computer	S200228	0.8333333333333334	1	2	1	2	0.6	1500.000003	1500.000003	1650.0000033	1933.3333372	Major	Wrong_doings	28	You have kept your promises	C2_31	0.85	Hard	I2_41	26	Red is a color	0.888888888888889	Yes	RIGHT	583.923200000072	LEFT	327.95069999997395	RIGHT	937.5496000000112	RIGHT	1188.6606000000484	9.599999999999998	0.6	Probable_Lie	LEFT	LEFT	2	890.5383685601689	29	2020-02-28 14:04:39.949933
34	Self	S200228	0.8333333333333334	1	2	1	2	0.3	1150.0000023	1350.0000027	2216.6666711000003	1783.3333369	Minor	Good_deeds	35	You have thrown your trash into the bin	C2_29	1.0	Easy	I1_43	41	Marijuana is legal in Singapore	0.611111111111111	Yes	RIGHT	537.8568999999516	RIGHT	303.3491000001049	RIGHT	1200.220599999966	RIGHT	1299.2315999999846	9.9	0.3	Probable_Truth	LEFT	LEFT	1	2726.044999999885	30	2020-02-28 14:05:05.083949
32	Self	S200228	0.8333333333333334	1	2	1	2	0.8	1216.6666691	1216.6666691	2500.000005	2350.0000047	Major	Good_deeds	5	You have signed up as a bone marrow donor	C2_46	0.0	Easy	I2_5	58	Polish is 20th most spoken language in the World	0.888888888888889	No	LEFT	1202.7155999999195	RIGHT	287.13829999992413	RIGHT	2623.037500000009	RIGHT	1641.1087000001316	9.099999999999998	0.8	Probable_Lie	RIGHT	RIGHT	1	2799.707299999909	31	2020-02-28 14:05:33.501236
70	Self	S200228	0.6666666666666666	1	2	2	1	0.1	1283.3333359	1216.6666691	1650.0000033	2350.0000047	Major	Wrong_doings	33	You have eaten something in the MRT train	C2_25	1.0	Hard	I1_33	44	Summer is hotter than winter	0.0	No	RIGHT	560.5192000000443	RIGHT	200.4922000000988	RIGHT	2723.108400000001	LEFT	1543.4783000000607	9.199999999999998	0.1	Probable_Truth	RIGHT	RIGHT	6	988.7769000001754	32	2020-02-28 14:05:58.589684
104	Computer	S200228	0.5	2	1	1	2	0.7	1216.6666691	1283.3333359	1933.3333372	2066.6666708	Major	Good_deeds	60	You have been restricting your electricity consumption	C2_37	0.45	Hard	I1_44	15	A dog has four legs	1.0	Yes	LEFT	304.3431999999484	LEFT	918.9354000000094	RIGHT	887.1540000000095	RIGHT	1606.674299999895	9.199999999999998	0.7	Probable_Lie	RIGHT	LEFT	4	987.3356820076148	33	2020-02-28 14:06:22.356083
14	Self	S200228	0.5	2	1	2	1	0.8	1500.000003	1283.3333359	2066.6666708	2066.6666708	Minor	Wrong_doings	37	You have gossiped about your best friend	C1_60	0.95	Easy	I2_35	3	It is snowing outside now	0.0	No	LEFT	1217.2276000001148	LEFT	741.9563000000835	LEFT	4320.994299999938	LEFT	2432.16510000002	9.199999999999998	0.8	Probable_Lie	LEFT	RIGHT	3	1793.8403999999082	34	2020-02-28 14:06:52.349667
65	Self	S200228	0.6666666666666666	1	2	1	2	0.4	1500.000003	1433.3333362	1933.3333372	1650.0000033	Minor	Wrong_doings	11	You have helped a friend in need	C1_8	0.0	Hard	I1_8	45	Afghan Hound is the first cloned cat	0.777777777777778	No	LEFT	1262.0030000000495	RIGHT	1566.7229999999108	RIGHT	1311.96900000009	RIGHT	3118.9033000000563	8.799999999999997	0.4	Probable_Lie	LEFT	LEFT	6	2402.370699999892	35	2020-02-28 14:07:21.100740
109	Computer	S200228	0.5	2	1	2	1	0.3	1500.000003	1150.0000023	1500.000003	2216.6666711000003	Minor	Wrong_doings	45	You have told someone's secret to others	C1_20	0.0	Easy	I2_22	36	Lehman Brothers went bankrupt on 20th September	0.888888888888889	No	LEFT	1167.6680000000488	LEFT	2323.3052999999018	RIGHT	2648.181300000033	LEFT	1984.1539999999893	8.799999999999997	0.3	Probable_Lie	LEFT	LEFT	5	903.7331183144356	36	2020-02-28 14:07:49.059899
77	Self	S200228	0.6666666666666666	2	1	2	1	0.8	1000.000002	1433.3333362	2216.6666711000003	2350.0000047	Major	Wrong_doings	43	You have lied to your parents	C1_51	0.0	Hard	I2_48	32	Singapore is a poor country	0.0	No	LEFT	641.2222000001293	LEFT	2504.0235999999823	LEFT	1779.9122000001262	LEFT	1063.5804999999436	8.799999999999997	0.8	Probable_Lie	LEFT	LEFT	5	984.674600000062	37	2020-02-28 14:08:15.604953
81	Self	S200228	0.8333333333333334	1	2	1	2	0.7	1150.0000023	1066.6666688	1933.3333372	2066.6666708	Major	Good_deeds	40	You have used heroin	C1_42	0.05	Hard	I2_33	41	Singapore ranked 8th in World's smallest countries	1.0	No	LEFT	1195.5990000001293	LEFT	536.2067000000934	LEFT	3429.948199999899	LEFT	1351.402700000108	8.799999999999997	0.7	Probable_Lie	RIGHT	RIGHT	1	1056.7661000000044	38	2020-02-28 14:08:41.965122
69	Self	S200228	0.6666666666666666	1	2	2	1	0.8	1066.6666688	1283.3333359	1783.3333369	1933.3333372	Minor	Wrong_doings	35	You have held the elevator doors for others	C1_33	0.0	Easy	I2_44	1	There are 30 hours in a day	0.764705882352941	No	RIGHT	1066.497000000027	RIGHT	600.1349999999093	LEFT	2049.844500000063	RIGHT	1176.1275999999723	9.599999999999998	0.8	Probable_Truth	RIGHT	RIGHT	6	866.3201000001663	39	2020-02-28 14:09:06.365343
74	Self	S200228	0.6666666666666666	2	1	1	2	0.6	1500.000003	1000.000002	1933.3333372	2500.000005	Minor	Wrong_doings	51	You have started a hotline for victims of bully	C1_14	0.85	Easy	I1_14	11	Obama is the USA president now	0.888888888888889	Yes	RIGHT	441.2305999999262	RIGHT	748.4750999999505	LEFT	1526.8500999998196	RIGHT	2391.8019000000186	10.199999999999998	0.6	Probable_Lie	LEFT	LEFT	4	1052.3780999999417	40	2020-02-28 14:09:32.029484
135	Computer	S200228	0.8333333333333334	1	2	2	1	0.3	1216.6666691	1283.3333359	2066.6666708	1650.0000033	Minor	Wrong_doings	46	You have been sued	C2_8	1.0	Hard	I2_13	26	Arabi is the oldest surviving breed of horse	0.0	Yes	LEFT	506.2846000000718	LEFT	320.07789999988745	RIGHT	2150.8793999998943	LEFT	1088.3123999999498	10.199999999999998	0.3	Probable_Lie	LEFT	RIGHT	1	870.9886302384776	41	2020-02-28 14:09:55.748398
110	Computer	S200228	0.5	2	1	2	1	0.1	1433.3333362	1500.000003	1650.0000033	1933.3333372	Minor	Wrong_doings	37	You have gossiped about your best friend	C1_60	0.95	Easy	I2_35	3	It is snowing outside now	0.0	No	RIGHT	903.5874999999578	LEFT	1528.5840999999891	LEFT	1115.8686999999643	LEFT	831.6585000000032	10.199999999999998	0.1	Probable_Truth	LEFT	RIGHT	5	587.1666553333914	42	2020-02-28 14:10:19.795907
103	Computer	S200228	0.5	1	2	2	1	0.4	1283.3333359	1433.3333362	1500.000003	2066.6666708	Major	Wrong_doings	52	You have given way to the handicapped	C1_6	0.7	Easy	I1_10	34	There are 7 days in a week	0.0	Yes	LEFT	665.5786999999691	LEFT	241.1259999998947	RIGHT	2047.1476000000168	RIGHT	808.5955999999896	10.199999999999998	0.4	Probable_Lie	RIGHT	RIGHT	2	938.8795841358926	43	2020-02-28 14:10:43.340137
27	Self	S200228	0.6666666666666666	2	1	1	2	0.2	1150.0000023	1066.6666688	2350.0000047	2350.0000047	Minor	Wrong_doings	45	You have violated a traffic law	C2_57	0.75	Easy	I1_29	31	Malay is one of the races in Singapore	0.833333333333333	No	RIGHT	247.79800000010252	RIGHT	491.58540000007633	RIGHT	1024.2149000000609	LEFT	1868.90870000002	10.399999999999997	0.2	Probable_Truth	LEFT	LEFT	2	1002.3111000000426	44	2020-02-28 14:11:07.461066
50	Self	S200228	0.5	1	2	1	2	0.1	1283.3333359	1350.0000027	2500.000005	2066.6666708	Minor	Good_deeds	29	You have organized a violent protest	C1_36	0.95	Easy	I2_59	42	February has 30 days	0.833333333333333	No	LEFT	766.071600000032	RIGHT	672.6674000001367	LEFT	1552.018199999793	LEFT	1349.4832999999744	10.299999999999995	0.1	Probable_Lie	RIGHT	RIGHT	2	797.3833000000923	45	2020-02-28 14:11:32.371987
11	Self	S200228	0.5	2	1	1	2	0.7	1283.3333359	1066.6666688	2500.000005	2216.6666711000003	Major	Good_deeds	30	You have held the door open for a stranger	C1_30	1.0	Hard	I1_15	44	Africa is the continent with the least rainfall	0.666666666666667	Yes	LEFT	792.8005999999641	LEFT	891.9198000000961	RIGHT	1792.0272000001205	RIGHT	1139.1665000001012	10.299999999999995	0.7	Probable_Lie	RIGHT	RIGHT	2	850.4218000000492	46	2020-02-28 14:11:57.475936
101	Computer	S200228	0.5	1	2	2	1	0.1	1350.0000027	1066.6666688	1650.0000033	1933.3333372	Major	Wrong_doings	40	You have stopped using plastics completely	C1_49	0.9	Hard	I2_40	25	The human's inner ear is larger than a pencil eraser	0.0555555555555556	No	RIGHT	620.4536999998709	RIGHT	2400.4975999998805	RIGHT	3877.489900000001	RIGHT	2120.296000000053	10.399999999999997	0.1	Probable_Truth	LEFT	LEFT	2	559.3052039084914	47	2020-02-28 14:12:25.627972
140	Computer	S200228	0.8333333333333334	2	1	2	1	0.1	1433.3333362	1283.3333359	2216.6666711000003	1933.3333372	Minor	Good_deeds	48	You have returned your trays in food courts	C2_24	1.0	Easy	I1_23	27	Mexico's National Day is September 16	0.0	Yes	RIGHT	336.52329999995345	RIGHT	870.8365999998477	RIGHT	1452.9631999998855	RIGHT	1182.9995999999028	10.499999999999996	0.1	Probable_Truth	RIGHT	RIGHT	4	807.6015022834383	48	2020-02-28 14:13:56.395884
121	Computer	S200228	0.6666666666666666	2	1	1	2	0.2	1350.0000027	1066.6666688	2500.000005	1783.3333369	Minor	Good_deeds	4	You have helped with household chores	C1_22	0.65	Easy	I2_60	17	Singapore has four seasons	0.0	Yes	LEFT	544.1651000001002	LEFT	1077.7573000000302	LEFT	1328.610300000037	RIGHT	1643.2139999999436	10.499999999999996	0.2	Probable_Lie	RIGHT	LEFT	5	595.114462357231	49	2020-02-28 14:14:20.859944
63	Self	S200228	0.5	2	1	2	1	0.7	1216.6666691	1433.3333362	1783.3333369	2500.000005	Major	Good_deeds	50	You have bought cigarettes for a minor	C2_28	0.25	Easy	I2_53	53	Algeria is Africa's second largest country	0.944444444444444	Yes	LEFT	342.6010999999108	LEFT	970.4901000000064	RIGHT	3037.8365999999914	LEFT	1055.595799999992	10.499999999999996	0.7	Probable_Lie	LEFT	RIGHT	3	879.5431999999437	50	2020-02-28 14:14:46.652215
62	Self	S200228	0.5	2	1	2	1	0.4	1000.000002	1216.6666691	1933.3333372	1500.000003	Major	Wrong_doings	57	You have deceived a loved one	C1_57	0.65	Hard	I1_9	28	Singapore is in Africa	0.888888888888889	No	LEFT	935.5467999998835	LEFT	974.2383000000244	LEFT	1256.4988999999969	LEFT	1488.524200000029	10.499999999999996	0.4	Probable_Lie	RIGHT	RIGHT	1	1791.7853999999809	51	2020-02-28 14:15:11.316279
86	Self	S200228	0.8333333333333334	1	2	2	1	0.3	1216.6666691	1150.0000023	1650.0000033	1783.3333369	Minor	Good_deeds	7	You have given up your seat in the MRT	C1_43	0.95	Easy	I2_38	46	The Amazon forest covers an area of 1 billion acres	0.0	Yes	RIGHT	671.2539000000106	RIGHT	248.4893999999258	RIGHT	1923.983700000008	RIGHT	1006.5930999999182	10.799999999999995	0.3	Probable_Truth	LEFT	LEFT	1	864.4099999999071	52	2020-02-28 14:15:34.404843
43	Self	S200228	0.8333333333333334	2	1	1	2	0.7	1150.0000023	1216.6666691	2216.6666711000003	2216.6666711000003	Major	Wrong_doings	24	You have lost everything just to help others	C1_12	0.95	Hard	I2_3	3	Kangaroos live in Africa	0.0555555555555556	Yes	RIGHT	271.64970000012545	RIGHT	671.8543000001773	LEFT	1391.422700000021	RIGHT	1310.6264000000465	11.499999999999996	0.7	Probable_Truth	RIGHT	RIGHT	6	562.7542999998241	53	2020-02-28 14:15:57.988183
75	Self	S200228	0.6666666666666666	2	1	1	2	0.1	1150.0000023	1283.3333359	1500.000003	1650.0000033	Minor	Good_deeds	1	You have cursed at your loved ones	C1_47	1.0	Easy	I1_32	48	Fibers in oranges can be used to make fabric	0.611111111111111	Yes	LEFT	304.2961999999534	LEFT	838.0394000000706	LEFT	2191.135000000031	LEFT	1350.3749999999854	11.499999999999996	0.1	Probable_Lie	LEFT	RIGHT	1	1060.82379999998	54	2020-02-28 14:16:21.892099
42	Self	S200228	0.8333333333333334	2	1	1	2	0.1	1000.000002	1500.000003	1933.3333372	1783.3333369	Major	Wrong_doings	58	You have sheltered others from disasters	C2_30	0.95	Easy	I2_2	35	Singapore is a country	0.166666666666667	Yes	LEFT	696.0770000000593	LEFT	994.4774000000508	RIGHT	639.6599999998216	RIGHT	1042.9008999999496	11.499999999999996	0.1	Probable_Lie	LEFT	RIGHT	1	1380.4827999999816	55	2020-02-28 14:16:45.437088
108	Computer	S200228	0.5	2	1	2	1	0.4	1350.0000027	1000.000002	2500.000005	2500.000005	Minor	Wrong_doings	27	You have taken months off to volunteer	C1_45	0.05	Hard	I1_40	22	Animals are living things	0.611111111111111	No	RIGHT	407.6764000001276	RIGHT	1151.423700000123	RIGHT	1187.588999999889	RIGHT	1719.941899999867	11.899999999999997	0.4	Probable_Truth	LEFT	RIGHT	6	740.938996415726	56	2020-02-28 14:17:10.556810
5	Self	S200228	0.5	1	2	2	1	0.2	1350.0000027	1500.000003	1783.3333369	2500.000005	Major	Wrong_doings	40	You have stopped using plastics completely	C1_49	0.9	Hard	I2_40	25	The human's inner ear is larger than a pencil eraser	0.0555555555555556	No	LEFT	1155.3419999997914	LEFT	433.11110000013286	LEFT	2582.207999999809	RIGHT	1543.7834999997904	11.899999999999997	0.2	Probable_Lie	RIGHT	LEFT	6	638.1896999998844	57	2020-02-28 14:17:36.611920
13	Self	S200228	0.5	2	1	2	1	0.2	1433.3333362	1216.6666691	2350.0000047	1783.3333369	Minor	Wrong_doings	45	You have told someone's secret to others	C1_20	0.0	Easy	I2_22	36	Lehman Brothers went bankrupt on 20th September	0.888888888888889	No	LEFT	328.69350000009945	LEFT	938.2382000003416	RIGHT	1584.94649999966	LEFT	935.6416000000536	11.899999999999997	0.2	Probable_Lie	LEFT	RIGHT	1	1312.1657000001503	58	2020-02-28 14:18:01.068671
28	Self	S200228	0.6666666666666666	2	1	2	1	0.5	1283.3333359	1216.6666691	1500.000003	1500.000003	Major	Good_deeds	13	You have been convicted in court	C1_59	0.0	Easy	I2_31	6	Christmas Day is in March	0.777777777777778	Yes	LEFT	633.1482999999025	LEFT	678.51120000023	LEFT	1294.738999999936	LEFT	800.1365000000078	11.899999999999997	0.5	Probable_Lie	LEFT	LEFT	6	859.382000000096	59	2020-02-28 14:18:23.403880
119	Computer	S200228	0.6666666666666666	1	2	2	1	0.4	1066.6666688	1216.6666691	1933.3333372	1650.0000033	Major	Good_deeds	47	You have engaged in underage smoking	C1_58	0.95	Hard	I2_39	16	Fishes can swim in water	0.944444444444444	Yes	LEFT	911.885699999857	LEFT	360.70939999990514	RIGHT	2112.2832999999446	LEFT	957.9727000000275	11.899999999999997	0.4	Probable_Lie	RIGHT	RIGHT	1	962.9481544840072	60	2020-02-28 14:18:47.148620
9	Self	S200228	0.5	2	1	1	2	0.1	1000.000002	1150.0000023	1783.3333369	1500.000003	Major	Good_deeds	39	You have illegally stayed in a country	C2_2	0.55	Easy	I1_3	35	Milwaukee Art Museum is located in California	0.0	Yes	LEFT	392.8725000000668	LEFT	482.2783000004165	RIGHT	1375.5338000000847	LEFT	1054.3399999996836	11.899999999999997	0.1	Probable_Lie	LEFT	RIGHT	1	1659.3057000000044	61	2020-02-28 14:19:10.116175
105	Computer	S200228	0.5	2	1	1	2	0.5	1150.0000023	1433.3333362	2216.6666711000003	1650.0000033	Major	Good_deeds	39	You have illegally stayed in a country	C2_2	0.55	Easy	I1_3	35	Milwaukee Art Museum is located in California	0.0	Yes	LEFT	232.615800000076	LEFT	854.1007999997419	RIGHT	797.7595000002111	LEFT	1087.2764999999165	11.899999999999997	0.5	Probable_Lie	RIGHT	LEFT	6	750.7282366089465	62	2020-02-28 14:19:32.861765
83	Self	S200228	0.8333333333333334	1	2	1	2	0.4	1066.6666688	1216.6666691	2066.6666708	1933.3333372	Major	Wrong_doings	1	You have used a fake name online	C1_23	0.05	Easy	I1_27	27	Cleopatra was born in Greece	0.777777777777778	No	RIGHT	542.9523000002519	RIGHT	240.60950000011871	RIGHT	1160.3802999998152	LEFT	1212.8119000003608	12.299999999999995	0.4	Probable_Truth	RIGHT	RIGHT	2	794.1246000000319	63	2020-02-28 14:19:55.669541
93	Self	S200228	0.8333333333333334	2	1	2	1	0.4	1000.000002	1350.0000027	2066.6666708	2216.6666711000003	Minor	Wrong_doings	50	You have downloaded pirated movies	C1_16	0.7	Easy	I1_5	24	Hot chocolate was created by the Mayan culture	0.0	No	RIGHT	240.41440000019065	RIGHT	516.6153000000122	RIGHT	1561.237799999617	LEFT	959.3104000000494	12.699999999999998	0.4	Probable_Lie	LEFT	LEFT	3	1673.8046000000395	64	2020-02-28 14:20:19.828708
96	Computer	S200228	0.5	1	2	1	2	0.5	1150.0000023	1350.0000027	2500.000005	2350.0000047	Minor	Wrong_doings	15	You have taken part in violent demonstration	C1_40	0.05	Hard	I1_42	42	Bears have the biggest eyes among mammals	0.0	No	RIGHT	814.0167000001384	RIGHT	544.7656999999708	RIGHT	2031.9488999998607	LEFT	1571.5715999999702	13.199999999999998	0.5	Probable_Truth	RIGHT	LEFT	1	806.4937290766593	65	2020-02-28 14:20:45.508215
118	Computer	S200228	0.6666666666666666	1	2	2	1	0.1	1283.3333359	1433.3333362	2500.000005	2500.000005	Minor	Good_deeds	17	You have followed instructions	C2_47	0.15	Hard	I1_28	54	The first Grammy awards was held in 1959	0.0555555555555556	Yes	LEFT	620.3713999998399	LEFT	183.3701000000474	RIGHT	1311.7525000002388	RIGHT	967.6958000000012	13.199999999999998	0.1	Probable_Lie	LEFT	RIGHT	2	641.4596541543334	66	2020-02-28 14:21:09.508502
88	Self	S200228	0.8333333333333334	2	1	1	2	0.1	1216.6666691	1000.000002	1650.0000033	1933.3333372	Minor	Wrong_doings	3	You have done something against your values	C2_9	1.0	Hard	I2_18	57	There are 9 rings in the Olympic flag	0.944444444444444	Yes	RIGHT	137.6548000002913	RIGHT	607.0587000003798	RIGHT	1944.029799999953	LEFT	1425.2243000000817	13.299999999999995	0.1	Probable_Lie	LEFT	LEFT	5	1383.1389999995736	67	2020-02-28 14:21:33.380305
142	Computer	S200228	0.8333333333333334	2	1	2	1	0.5	1150.0000023	1433.3333362	2066.6666708	2216.6666711000003	Major	Wrong_doings	38	You have participated in a scamming business	C2_59	0.0	Hard	I1_54	25	Mozambique is the world's poorest country	1.0	No	RIGHT	280.43810000008307	RIGHT	813.1263000000217	RIGHT	1688.7872000002062	LEFT	976.8779999999424	13.799999999999995	0.5	Probable_Truth	RIGHT	RIGHT	3	953.8506662579327	68	2020-02-28 14:21:57.523948
61	Self	S200228	0.5	2	1	2	1	0.5	1066.6666688	1283.3333359	1500.000003	2216.6666711000003	Minor	Wrong_doings	28	You have failed to keep promises	C2_34	1.0	Hard	I2_43	52	December is the last month of the year	0.0	Yes	LEFT	320.5422999999428	LEFT	438.7546000002658	RIGHT	1257.9124999997475	LEFT	1071.8219000000315	13.799999999999995	0.5	Probable_Lie	LEFT	RIGHT	2	1120.560899999873	69	2020-02-28 14:22:20.372370
44	Self	S200228	0.8333333333333334	2	1	2	1	0.6	1283.3333359	1433.3333362	1650.0000033	2500.000005	Minor	Good_deeds	48	You have returned your trays in food courts	C2_24	1.0	Easy	I1_23	27	Mexico's National Day is September 16	0.0	Yes	RIGHT	344.3234000001212	RIGHT	447.81179999972665	RIGHT	1215.0329000000966	RIGHT	1079.2897999999695	14.399999999999997	0.6	Probable_Truth	LEFT	LEFT	1	1468.9865000000282	70	2020-02-28 14:22:44.364115
25	Self	S200228	0.6666666666666666	2	1	1	2	0.7	1000.000002	1150.0000023	1783.3333369	2066.6666708	Minor	Good_deeds	4	You have helped with household chores	C1_22	0.65	Easy	I2_60	17	Singapore has four seasons	0.0	Yes	RIGHT	463.7359000003016	RIGHT	521.3828000000831	LEFT	912.0281000000432	RIGHT	919.4605000002412	15.099999999999996	0.7	Probable_Truth	LEFT	LEFT	1	1609.7930999999337	71	2020-02-28 14:23:07.364290
8	Self	S200228	0.5	2	1	1	2	0.6	1150.0000023	1500.000003	2216.6666711000003	2500.000005	Major	Good_deeds	60	You have been restricting your electricity consumption	C2_37	0.45	Hard	I1_44	15	A dog has four legs	1.0	Yes	RIGHT	376.9225999999435	RIGHT	607.8453000000081	RIGHT	823.797900000045	RIGHT	981.1573000001772	15.699999999999996	0.6	Probable_Truth	RIGHT	RIGHT	5	847.8996999997435	72	2020-02-28 14:23:30.938991
130	Computer	S200228	0.8333333333333334	1	2	1	2	0.4	1066.6666688	1000.000002	1783.3333369	2066.6666708	Minor	Good_deeds	35	You have thrown your trash into the bin	C2_29	1.0	Easy	I1_43	41	Marijuana is legal in Singapore	0.611111111111111	Yes	RIGHT	872.8782000002866	RIGHT	417.45399999990696	LEFT	1088.532799999939	RIGHT	1133.271700000023	16.099999999999994	0.4	Probable_Truth	RIGHT	RIGHT	6	699.8936549889556	73	2020-02-28 14:23:53.635561
22	Self	S200228	0.6666666666666666	1	2	2	1	0.6	1433.3333362	1350.0000027	2216.6666711000003	1500.000003	Minor	Good_deeds	17	You have followed instructions	C2_47	0.15	Hard	I1_28	54	The first Grammy awards was held in 1959	0.0555555555555556	Yes	LEFT	360.6763000002502	LEFT	343.8150000001769	RIGHT	935.6331000003591	RIGHT	688.1959000002098	16.099999999999994	0.6	Probable_Lie	RIGHT	RIGHT	1	699.164600000131	74	2020-02-28 14:24:15.732713
57	Self	S200228	0.5	2	1	1	2	0.2	1433.3333362	1350.0000027	1650.0000033	2066.6666708	Major	Good_deeds	3	You have a non-judgmental attitude towards everyone	C1_24	1.0	Hard	I1_4	9	The sun rises at night	1.0	No	RIGHT	86.44679999997607	RIGHT	590.9332999999606	LEFT	1055.3132999998525	RIGHT	1519.672299999911	16.299999999999994	0.2	Probable_Truth	LEFT	RIGHT	4	1667.8544999999758	75	2020-02-28 14:24:39.726621
132	Computer	S200228	0.8333333333333334	1	2	2	1	0.2	1433.3333362	1433.3333362	1500.000003	2500.000005	Major	Wrong_doings	29	You have been physically hurt to protect others	C1_5	0.8	Hard	I1_58	43	The hyoid bone is the only jointless bone	0.0	No	LEFT	580.3579000003083	LEFT	272.0576000001529	RIGHT	2012.280500000088	RIGHT	2215.639900000042	16.299999999999994	0.2	Probable_Lie	LEFT	RIGHT	1	752.4498739005076	76	2020-02-28 14:25:04.995955
67	Self	S200228	0.6666666666666666	1	2	1	2	0.2	1350.0000027	1500.000003	2216.6666711000003	2216.6666711000003	Minor	Good_deeds	53	You have bought cocaine	C1_11	0.0	Hard	I1_1	52	The Earth is round	0.0	Yes	RIGHT	384.7296000003553	RIGHT	121.1232000000564	RIGHT	1103.85290000022	LEFT	2031.7999999997485	16.499999999999993	0.2	Probable_Truth	RIGHT	RIGHT	3	1376.4611999999945	77	2020-02-28 14:25:29.867888
107	Computer	S200228	0.5	2	1	1	2	0.8	1066.6666688	1066.6666688	1783.3333369	1783.3333369	Major	Good_deeds	30	You have held the door open for a stranger	C1_30	1.0	Hard	I1_15	44	Africa is the continent with the least rainfall	0.666666666666667	Yes	RIGHT	415.7953000003545	RIGHT	747.8032999997595	RIGHT	999.1417000001092	RIGHT	1379.4812000001002	17.299999999999994	0.8	Probable_Truth	LEFT	RIGHT	5	929.5978368668708	78	2020-02-28 14:25:52.611437
40	Self	S200228	0.8333333333333334	2	1	1	2	0.4	1216.6666691	1066.6666688	2350.0000047	2350.0000047	Major	Good_deeds	27	You have fabricated facts about yourself	C2_58	0.15	Hard	I1_25	2	It sometimes snows in Singapore	0.722222222222222	No	RIGHT	264.3407999998999	RIGHT	498.4925000003386	LEFT	846.5642000001026	LEFT	1980.5179999998472	17.699999999999992	0.4	Probable_Truth	RIGHT	RIGHT	4	1454.415600000175	79	2020-02-28 14:26:17.213823
141	Computer	S200228	0.8333333333333334	2	1	2	1	0.7	1216.6666691	1150.0000023	1500.000003	1650.0000033	Minor	Good_deeds	12	You have pretended to be busy to avoid a social situation	C1_38	0.5	Easy	I2_21	23	Mageirocophobia is a fear of deathly disease	0.833333333333333	No	RIGHT	345.22160000005897	RIGHT	721.6425000001436	RIGHT	1415.1706000002378	LEFT	1856.51850000022	18.39999999999999	0.7	Probable_Lie	LEFT	LEFT	4	709.4496086205595	80	2020-02-28 14:26:40.356713
58	Self	S200228	0.5	2	1	1	2	0.6	1150.0000023	1000.000002	2500.000005	2350.0000047	Minor	Wrong_doings	13	You have extorted money from anyone	C1_13	0.05	Easy	I2_28	43	The first Olympic Games was held in the 5th century B.C	0.0	Yes	RIGHT	280.5428000001484	RIGHT	437.362000000121	RIGHT	1104.0423999997984	LEFT	1564.0025999996396	18.999999999999996	0.6	Probable_Truth	LEFT	RIGHT	6	1554.458799999793	81	2020-02-28 14:27:04.868657
59	Self	S200228	0.5	2	1	1	2	0.8	1283.3333359	1150.0000023	2066.6666708	1933.3333372	Minor	Wrong_doings	60	You have stopped using products tested on animals	C2_60	0.85	Easy	I2_56	56	Acoustic Kitty refers to cat with implants	0.0	No	LEFT	303.51080000036745	LEFT	582.5248000001011	RIGHT	2495.791000000281	RIGHT	2396.37730000004	18.999999999999996	0.8	Probable_Lie	LEFT	RIGHT	1	1550.6624999998166	82	2020-02-28 14:27:31.203773
51	Self	S200228	0.5	1	2	1	2	0.3	1066.6666688	1433.3333362	2350.0000047	1650.0000033	Major	Good_deeds	31	You have kidnapped someone	C2_23	0.65	Easy	I1_48	48	Carnivore refers to meat-eater	0.0	No	RIGHT	378.80740000036894	RIGHT	200.53730000017825	RIGHT	1208.2171000001836	LEFT	1553.0169000003298	19.299999999999997	0.3	Probable_Truth	RIGHT	LEFT	2	1148.841100000027	83	2020-02-28 14:27:54.762879
113	Computer	S200228	0.6666666666666666	1	2	1	2	0.7	1216.6666691	1066.6666688	1783.3333369	2216.6666711000003	Major	Good_deeds	39	You have claimed doing things that you never did	C1_9	0.95	Easy	I1_37	47	Earth's atmosphere extends up to 10,000km into space	0.0555555555555556	No	LEFT	451.1331000003338	LEFT	224.57329999997452	RIGHT	1582.6124999998683	LEFT	1653.8706000001184	19.299999999999997	0.7	Probable_Lie	RIGHT	LEFT	3	990.842501977486	84	2020-02-28 14:28:18.516660
127	Computer	S200228	0.6666666666666666	2	1	2	1	0.3	1283.3333359	1500.000003	2350.0000047	2350.0000047	Major	Wrong_doings	57	You have made counterfeit money	C2_13	0.2	Hard	I2_50	36	Teddy Roosevelt was the youngest US President	0.0	No	RIGHT	239.716099999896	RIGHT	1192.8977000002303	RIGHT	2507.150100000217	LEFT	830.8878999996523	19.599999999999994	0.3	Probable_Truth	RIGHT	LEFT	2	556.7540545634527	85	2020-02-28 14:28:43.890992
128	Computer	S200228	0.8333333333333334	1	2	1	2	0.8	1000.000002	1350.0000027	1933.3333372	2216.6666711000003	Major	Good_deeds	5	You have signed up as a bone marrow donor	C2_46	0.0	Easy	I2_5	58	Polish is 20th most spoken language in the World	0.888888888888889	No	RIGHT	750.9117999998125	RIGHT	249.3240999997397	RIGHT	1134.9365000000944	RIGHT	1168.9065999999002	20.399999999999995	0.8	Probable_Truth	LEFT	LEFT	1	556.0551197245865	86	2020-02-28 14:29:06.821528
39	Self	S200228	0.8333333333333334	1	2	2	1	0.1	1350.0000027	1283.3333359	2066.6666708	2216.6666711000003	Minor	Wrong_doings	46	You have been sued	C2_8	1.0	Hard	I2_13	26	Arabi is the oldest surviving breed of horse	0.0	Yes	RIGHT	653.0259999999544	RIGHT	520.8734000002551	RIGHT	1169.9299000001702	LEFT	856.6465000003518	20.5	0.1	Probable_Truth	RIGHT	LEFT	1	2029.5157999998992	87	2020-02-28 14:29:31.539937
45	Self	S200228	0.8333333333333334	2	1	2	1	0.2	1350.0000027	1150.0000023	1783.3333369	1933.3333372	Minor	Good_deeds	12	You have pretended to be busy to avoid a social situation	C1_38	0.5	Easy	I2_21	23	Mageirocophobia is a fear of deathly disease	0.833333333333333	No	RIGHT	247.0913000001929	RIGHT	553.7857999997868	RIGHT	1274.3664999998146	LEFT	1638.5145000003831	20.7	0.2	Probable_Truth	RIGHT	RIGHT	6	963.5278999999172	88	2020-02-28 14:29:55.012248
138	Computer	S200228	0.8333333333333334	2	1	1	2	0.3	1066.6666688	1216.6666691	1783.3333369	2500.000005	Major	Wrong_doings	58	You have sheltered others from disasters	C2_30	0.95	Easy	I2_2	35	Singapore is a country	0.166666666666667	Yes	LEFT	305.30510000016875	LEFT	513.8253000000077	RIGHT	857.0245999999315	RIGHT	1493.4103000000505	20.7	0.3	Probable_Lie	LEFT	RIGHT	1	855.2060739773424	89	2020-02-28 14:30:18.163728
52	Self	S200228	0.5	1	2	2	1	0.7	1150.0000023	1216.6666691	2066.6666708	1783.3333369	Major	Wrong_doings	19	You have started a movement to support a cause	C1_19	0.0	Hard	I2_42	11	A square has 3 corners	0.0	Yes	LEFT	366.63510000016686	LEFT	464.8741999999402	LEFT	1500.5983000000924	RIGHT	1384.7892999997384	20.7	0.7	Probable_Lie	LEFT	RIGHT	1	1296.2648999996418	90	2020-02-28 14:30:41.964528
6	Self	S200228	0.5	1	2	2	1	0.3	1433.3333362	1150.0000023	2350.0000047	1500.000003	Minor	Good_deeds	6	You have faked an illness	C1_15	1.0	Easy	I2_34	40	Beef comes from cows	0.666666666666667	Yes	LEFT	361.7042000000765	LEFT	911.5178000001832	RIGHT	1342.4772000003031	LEFT	757.8808000002937	20.7	0.3	Probable_Lie	RIGHT	RIGHT	3	1345.0230000003105	91	2020-02-28 14:31:05.691614
12	Self	S200228	0.5	2	1	2	1	0.5	1216.6666691	1433.3333362	1500.000003	2350.0000047	Minor	Wrong_doings	27	You have taken months off to volunteer	C1_45	0.05	Hard	I1_40	22	Animals are living things	0.611111111111111	No	RIGHT	231.8940999998631	RIGHT	429.5296000000235	RIGHT	849.8676000003798	RIGHT	944.0250999996352	21.2	0.5	Probable_Truth	RIGHT	RIGHT	6	1239.257699999598	92	2020-02-28 14:31:28.458952
136	Computer	S200228	0.8333333333333334	2	1	1	2	0.8	1350.0000027	1350.0000027	1933.3333372	2350.0000047	Major	Good_deeds	27	You have fabricated facts about yourself	C2_58	0.15	Hard	I1_25	2	It sometimes snows in Singapore	0.722222222222222	No	LEFT	257.4768999998014	LEFT	401.1531000001014	LEFT	855.3242000002683	LEFT	1156.32689999984	21.2	0.8	Probable_Lie	RIGHT	RIGHT	1	728.6478225772926	93	2020-02-28 14:31:51.411384
89	Self	S200228	0.8333333333333334	2	1	1	2	0.7	1350.0000027	1500.000003	2216.6666711000003	2500.000005	Major	Wrong_doings	37	You have donated blood every 6 months for many years	C1_37	1.0	Hard	I2_24	6	Pyramid of Giza is 468 feet tall	0.0	Yes	LEFT	303.5130000002937	LEFT	655.8955000000424	RIGHT	1008.5392000000866	RIGHT	2236.433399999896	21.2	0.7	Probable_Lie	RIGHT	RIGHT	1	1766.941400000178	94	2020-02-28 14:32:17.524515
97	Computer	S200228	0.5	1	2	1	2	0.7	1216.6666691	1150.0000023	2216.6666711000003	1783.3333369	Minor	Good_deeds	42	You have sorted your trash into recycling bin	C2_42	0.0	Easy	I2_25	21	French is Singapore's official language	0.666666666666667	Yes	LEFT	768.4790999996949	LEFT	281.0381999997844	LEFT	1175.6748000002517	RIGHT	1121.4289999998073	21.2	0.7	Probable_Lie	LEFT	LEFT	5	782.2354221973501	95	2020-02-28 14:32:40.587480
16	Self	S200228	0.6666666666666666	1	2	1	2	0.4	1150.0000023	1433.3333362	2500.000005	2066.6666708	Major	Wrong_doings	58	You have volunteered every week for many years	C1_39	0.95	Hard	I2_16	30	Most plants emit oxygen in the day	0.833333333333333	No	RIGHT	341.90609999996013	RIGHT	295.0959000004332	RIGHT	1030.2194000000782	RIGHT	768.1699999998273	21.599999999999994	0.4	Probable_Truth	RIGHT	RIGHT	4	680.9868999998798	96	2020-02-28 14:34:32.547695
102	Computer	S200228	0.5	1	2	2	1	0.2	1066.6666688	1283.3333359	1933.3333372	2500.000005	Minor	Good_deeds	6	You have faked an illness	C1_15	1.0	Easy	I2_34	40	Beef comes from cows	0.666666666666667	Yes	LEFT	311.07090000023163	LEFT	719.3314999999529	RIGHT	940.639100000226	LEFT	1144.3454000000202	21.599999999999994	0.2	Probable_Lie	RIGHT	RIGHT	2	768.8636532497835	97	2020-02-28 14:34:55.789013
66	Self	S200228	0.6666666666666666	1	2	1	2	0.6	1216.6666691	1350.0000027	2066.6666708	1500.000003	Minor	Good_deeds	25	You have cursed at others	C2_53	0.85	Easy	I2_45	12	Feijoa is a type of grape	0.0	Yes	RIGHT	326.46070000009786	RIGHT	288.76809999974284	RIGHT	1288.1718999997247	LEFT	956.2052000001132	22.2	0.6	Probable_Truth	LEFT	LEFT	2	1762.950400000136	98	2020-02-28 14:35:19.123460
19	Self	S200228	0.6666666666666666	1	2	1	2	0.7	1500.000003	1000.000002	2066.6666708	1933.3333372	Minor	Wrong_doings	9	You have volunteered for a disaster-related humanitarian mission	C2_10	0.05	Hard	I1_47	2	Airbags in cars are filled with sodium azide	0.666666666666667	No	LEFT	646.009199999753	LEFT	336.0945999997966	RIGHT	1855.414799999835	RIGHT	1308.1936000003225	22.2	0.7	Probable_Lie	LEFT	LEFT	5	1963.585500000136	99	2020-02-28 14:35:44.307780
64	Self	S200228	0.6666666666666666	1	2	1	2	0.7	1000.000002	1066.6666688	2500.000005	2500.000005	Major	Good_deeds	53	You have been donating all your excess food to a food bank	C2_35	0.85	Easy	I2_52	33	Today is Sunday	0.0	Yes	LEFT	317.7521999996316	LEFT	152.32549999973344	LEFT	1200.40599999993	RIGHT	2172.6361999999426	22.2	0.7	Probable_Lie	RIGHT	RIGHT	1	971.0728999998536	100	2020-02-28 14:36:08.763343
26	Self	S200228	0.6666666666666666	2	1	1	2	0.4	1500.000003	1500.000003	2500.000005	1933.3333372	Minor	Good_deeds	22	You have cheated on a test	C1_46	0.0	Hard	I1_36	60	China is a part of Asia	0.0	Yes	RIGHT	328.7074999998367	RIGHT	300.5714999999327	RIGHT	1336.9146	LEFT	1110.628899999938	22.599999999999994	0.4	Probable_Truth	LEFT	LEFT	1	1305.2746999996998	101	2020-02-28 14:36:33.147575
115	Computer	S200228	0.6666666666666666	1	2	1	2	0.2	1000.000002	1500.000003	2066.6666708	1500.000003	Minor	Wrong_doings	9	You have volunteered for a disaster-related humanitarian mission	C2_10	0.05	Hard	I1_47	2	Airbags in cars are filled with sodium azide	0.666666666666667	No	RIGHT	712.5160999999025	RIGHT	337.20839999978125	RIGHT	1056.5050000000156	RIGHT	1019.0984999999272	22.799999999999997	0.2	Probable_Truth	RIGHT	RIGHT	5	542.6838657160685	102	2020-02-28 14:36:55.459530
100	Computer	S200228	0.5	1	2	2	1	0.3	1000.000002	1000.000002	2350.0000047	1650.0000033	Major	Good_deeds	49	You have been arrested	C2_52	0.0	Hard	I1_31	31	It takes 112 years to build the Pisa Tower	0.833333333333333	No	LEFT	392.1463000001495	LEFT	664.4338999999491	RIGHT	1400.9170999997878	LEFT	830.4866999997103	22.799999999999997	0.3	Probable_Lie	RIGHT	LEFT	4	515.3865611720877	103	2020-02-28 14:37:17.835521
10	Self	S200228	0.5	2	1	1	2	0.4	1350.0000027	1000.000002	1650.0000033	1650.0000033	Minor	Wrong_doings	2	You have blackmailed others for money	C2_39	0.8	Easy	I2_36	40	Nanyang Technological University is in Australia	0.0	No	LEFT	143.64049999994677	LEFT	749.7717999999622	LEFT	1047.527799999898	LEFT	1743.1243000000904	22.799999999999997	0.4	Probable_Lie	LEFT	RIGHT	1	1266.3023999998586	104	2020-02-28 14:37:41.011367
94	Self	S200228	0.8333333333333334	2	1	2	1	0.3	1150.0000023	1433.3333362	2500.000005	1500.000003	Minor	Good_deeds	16	You have engaged in money laundering	C2_18	0.05	Hard	I1_46	49	The Moon orbits around the Earth	0.666666666666667	Yes	RIGHT	503.662400000394	RIGHT	325.7039000000077	RIGHT	1927.78350000026	LEFT	830.6587000001855	23.099999999999994	0.3	Probable_Truth	LEFT	LEFT	1	1166.9640999998592	105	2020-02-28 14:38:04.923188
125	Computer	S200228	0.6666666666666666	2	1	2	1	0.8	1500.000003	1283.3333359	2216.6666711000003	2500.000005	Major	Wrong_doings	46	You have started an NGO using your savings	C2_11	0.0	Hard	I1_6	50	South East Asia is currently free from polio	0.0	Yes	RIGHT	263.9626000000135	RIGHT	602.2226000000046	RIGHT	1836.467099999936	RIGHT	1159.9035000003823	23.899999999999995	0.8	Probable_Truth	LEFT	RIGHT	5	620.7806915546221	106	2020-02-28 14:38:29.475022
17	Self	S200228	0.6666666666666666	1	2	1	2	0.2	1066.6666688	1150.0000023	1500.000003	2216.6666711000003	Major	Good_deeds	39	You have claimed doing things that you never did	C1_9	0.95	Easy	I1_37	47	Earth's atmosphere extends up to 10,000km into space	0.0555555555555556	No	LEFT	779.8499000000447	LEFT	192.33940000003716	RIGHT	1136.3215999999738	LEFT	1855.4898999996112	23.899999999999995	0.2	Probable_Lie	RIGHT	RIGHT	2	1039.204400000017	107	2020-02-28 14:38:52.987321
116	Computer	S200228	0.6666666666666666	1	2	2	1	0.5	1150.0000023	1350.0000027	2216.6666711000003	2350.0000047	Minor	Good_deeds	10	You have cheated on a national exam	C1_7	0.05	Easy	I1_2	28	It takes 500 days to travel from Earth to Mars	0.722222222222222	Yes	RIGHT	599.9282000002495	RIGHT	232.5995999999577	RIGHT	1489.7486999998364	LEFT	1031.1033999996653	24.399999999999995	0.5	Probable_Truth	RIGHT	RIGHT	6	643.1860322503936	108	2020-02-28 14:39:16.627320
114	Computer	S200228	0.6666666666666666	1	2	1	2	0.3	1350.0000027	1283.3333359	1500.000003	2066.6666708	Minor	Wrong_doings	48	You have made someone cry	C2_17	0.55	Easy	I2_54	39	It is night time now	0.0	No	LEFT	397.5129999998898	LEFT	231.81929999964268	LEFT	1072.5617999996757	LEFT	934.9047999999128	24.399999999999995	0.3	Probable_Lie	RIGHT	LEFT	3	675.8083122131166	109	2020-02-28 14:39:38.699053
29	Self	S200228	0.6666666666666666	2	1	2	1	0.1	1216.6666691	1350.0000027	2216.6666711000003	2216.6666711000003	Major	Wrong_doings	46	You have started an NGO using your savings	C2_11	0.0	Hard	I1_6	50	South East Asia is currently free from polio	0.0	Yes	RIGHT	206.8481999999676	RIGHT	279.0335999998206	RIGHT	1001.5886999999566	RIGHT	767.6562999999987	24.5	0.1	Probable_Truth	RIGHT	LEFT	2	1553.2410999999229	110	2020-02-28 14:40:02.083563
55	Self	S200228	0.5	1	2	2	1	0.8	1433.3333362	1000.000002	2216.6666711000003	1933.3333372	Minor	Wrong_doings	36	You have watched an M18 movie when you were underage	C1_29	0.55	Hard	I1_13	8	There is typically 0.6 grams of mercury in glass thermometer	0.777777777777778	Yes	LEFT	407.18159999960335	LEFT	144.41190000025017	RIGHT	1738.46309999999	LEFT	1287.9069999999049	24.5	0.8	Probable_Lie	RIGHT	RIGHT	2	1615.17350000031	111	2020-02-28 14:40:26.435339
122	Computer	S200228	0.6666666666666666	2	1	1	2	0.1	1066.6666688	1350.0000027	2066.6666708	2066.6666708	Minor	Good_deeds	22	You have cheated on a test	C1_46	0.0	Hard	I1_36	60	China is a part of Asia	0.0	Yes	RIGHT	312.6828999997997	RIGHT	864.2018000000462	RIGHT	855.8662000000368	LEFT	797.4498999997195	24.6	0.1	Probable_Truth	LEFT	RIGHT	5	609.6902127916342	112	2020-02-28 14:40:49.002903
53	Self	S200228	0.5	1	2	2	1	0.2	1500.000003	1150.0000023	1783.3333369	2500.000005	Minor	Good_deeds	19	You have donated a pay cheque to charity	C2_56	0.9	Hard	I1_60	59	Septicemia is a lung infection condition	0.944444444444444	Yes	RIGHT	313.05909999991854	RIGHT	239.8299999999836	RIGHT	1267.7090000001954	RIGHT	1463.5828000000402	24.8	0.2	Probable_Truth	LEFT	LEFT	3	992.5285999997868	113	2020-02-28 14:41:12.787663
71	Self	S200228	0.6666666666666666	1	2	2	1	0.3	1433.3333362	1000.000002	1500.000003	1783.3333369	Major	Wrong_doings	6	You have sold illegal drugs	C2_6	0.0	Hard	I1_39	8	There are 20 bones in the human skull	0.888888888888889	Yes	LEFT	1452.9442000002746	LEFT	160.24990000005346	RIGHT	1427.7704000000997	LEFT	984.8571000002266	24.8	0.3	Probable_Lie	RIGHT	LEFT	5	1173.0032000000392	114	2020-02-28 14:41:36.275442
21	Self	S200228	0.6666666666666666	1	2	2	1	0.5	1350.0000027	1216.6666691	1933.3333372	2350.0000047	Major	Wrong_doings	7	You have said sorry when you were rude	C2_48	0.05	Easy	I2_30	37	North Korea is more developed than South Korea	0.0	Yes	RIGHT	331.07780000000275	RIGHT	127.98890000021856	LEFT	2947.151100000156	RIGHT	1367.2953999998754	25.3	0.5	Probable_Truth	RIGHT	RIGHT	3	1819.0372999997635	115	2020-02-28 14:42:02.291034
95	Self	S200228	0.8333333333333334	2	1	2	1	0.6	1283.3333359	1066.6666688	1500.000003	2350.0000047	Major	Wrong_doings	18	You have helped others to pick up their belongings	C1_3	0.0	Easy	I1_57	46	The Seine river is 50 feet above sea level	0.944444444444444	No	RIGHT	160.17990000000282	RIGHT	316.7323000002398	RIGHT	1211.740600000212	RIGHT	919.9660999997832	25.9	0.6	Probable_Truth	RIGHT	RIGHT	2	743.9352000001236	116	2020-02-28 14:42:24.419466
20	Self	S200228	0.6666666666666666	1	2	2	1	0.8	1000.000002	1066.6666688	1650.0000033	1783.3333369	Minor	Good_deeds	10	You have cheated on a national exam	C1_7	0.05	Easy	I1_2	28	It takes 500 days to travel from Earth to Mars	0.722222222222222	Yes	RIGHT	230.09689999980765	RIGHT	120.54840000018883	RIGHT	953.1246000001374	LEFT	959.9315000000388	26.7	0.8	Probable_Lie	LEFT	LEFT	4	2070.0754999998026	117	2020-02-28 14:42:46.827588
68	Self	S200228	0.6666666666666666	1	2	2	1	0.5	1150.0000023	1150.0000023	2350.0000047	2066.6666708	Major	Good_deeds	8	You have let a homeless man into your house	C1_53	0.95	Easy	I2_12	39	Dutch is the 6th Europe's most widely spoken language	0.833333333333333	No	RIGHT	259.2032999996263	RIGHT	217.35979999994012	RIGHT	1199.055799999769	LEFT	2271.460800000113	27.2	0.5	Probable_Truth	RIGHT	RIGHT	3	1011.7150999999468	118	2020-02-28 14:43:11.075838
36	Self	S200228	0.8333333333333334	1	2	2	1	0.4	1433.3333362	1150.0000023	1783.3333369	2066.6666708	Major	Wrong_doings	29	You have been physically hurt to protect others	C1_5	0.8	Hard	I1_58	43	The hyoid bone is the only jointless bone	0.0	No	LEFT	305.9474000001501	LEFT	113.7337000000116	RIGHT	1125.839900000301	LEFT	1119.4765000000189	27.2	0.4	Probable_Lie	RIGHT	LEFT	4	2263.722499999858	119	2020-02-28 14:43:35.011378
49	Self	S200228	0.5	1	2	1	2	0.5	1350.0000027	1283.3333359	1500.000003	1500.000003	Minor	Wrong_doings	23	You have switched off appliances when not in use	C2_38	0.2	Easy	I1_11	60	The Earth turns the closest to the sun in May	0.777777777777778	No	LEFT	363.3584999997765	LEFT	487.8994999999122	RIGHT	1199.6103000001312	RIGHT	1511.1975999998322	27.2	0.5	Probable_Lie	LEFT	RIGHT	3	1731.4916999998786	120	2020-02-28 14:43:58.514128
79	Self	S200228	0.6666666666666666	2	1	2	1	0.2	1066.6666688	1150.0000023	2066.6666708	1500.000003	Major	Good_deeds	47	You have bribed someone to improve a grade	C1_17	0.0	Hard	I2_1	17	There are 6 million animal species on Earth	0.888888888888889	Yes	LEFT	240.2085000003353	LEFT	661.5520000000288	RIGHT	1725.8412999999564	LEFT	822.32329999988	27.2	0.2	Probable_Lie	LEFT	LEFT	5	2120.0055999997858	121	2020-02-28 14:44:22.443425
111	Computer	S200228	0.5	2	1	2	1	0.6	1283.3333359	1216.6666691	2350.0000047	2350.0000047	Major	Good_deeds	20	You have shown your appreciation to your teachers	C2_27	0.0	Hard	I2_55	55	Cernan was the second last man to walk on the Moon	0.0	Yes	RIGHT	239.51350000015736	RIGHT	554.1535999996086	RIGHT	1405.7134999998198	RIGHT	993.1643999998414	27.8	0.6	Probable_Truth	LEFT	RIGHT	5	609.987967378099	122	2020-02-28 14:44:46.019127
0	Self	S200228	0.5	1	2	1	2	0.8	1150.0000023	1000.000002	2216.6666711000003	1933.3333372	Minor	Wrong_doings	15	You have taken part in violent demonstration	C1_40	0.05	Hard	I1_42	42	Bears have the biggest eyes among mammals	0.0	No	LEFT	512.5255000002653	LEFT	240.03129999982772	RIGHT	1023.6785999995844	LEFT	1125.6559000003108	27.8	0.8	Probable_Lie	RIGHT	RIGHT	1	1586.3816999999472	123	2020-02-28 14:45:09.379286
48	Self	S200228	0.5	1	2	1	2	0.4	1000.000002	1066.6666688	1650.0000033	2350.0000047	Major	Wrong_doings	38	You have drunk alcohol when you were underage	C1_31	0.0	Hard	I2_8	51	Saturn's rings are between 30 and 300 feet thick	0.0	No	LEFT	415.40549999990617	LEFT	288.26859999981025	RIGHT	1574.891999999636	LEFT	1083.100899999863	27.8	0.4	Probable_Lie	RIGHT	RIGHT	1	1244.4448999999622	124	2020-02-28 14:45:32.626942
78	Self	S200228	0.6666666666666666	2	1	2	1	0.5	1283.3333359	1500.000003	1650.0000033	2216.6666711000003	Minor	Wrong_doings	16	You have sign up to sponsor a needy child	C2_1	0.7	Easy	I1_17	38	There are 6000 spoken languages in the World	0.888888888888889	Yes	LEFT	208.31529999986745	LEFT	903.925199999776	RIGHT	1521.3652999996157	RIGHT	1319.583700000294	27.8	0.5	Probable_Lie	RIGHT	RIGHT	1	873.5028000000966	125	2020-02-28 14:45:56.675020
76	Self	S200228	0.6666666666666666	2	1	2	1	0.7	1350.0000027	1066.6666688	1783.3333369	1783.3333369	Major	Good_deeds	17	You have intentionally let others cut in line	C2_54	0.05	Hard	I1_38	1	Chickens lay eggs	0.0	No	RIGHT	200.3297000001112	RIGHT	250.72229999977932	RIGHT	1154.4058999998017	RIGHT	1728.1248999997842	28.5	0.7	Probable_Lie	LEFT	LEFT	3	1269.297700000152	126	2020-02-28 14:46:19.835609
60	Self	S200228	0.5	2	1	2	1	0.3	1350.0000027	1500.000003	2350.0000047	1650.0000033	Minor	Good_deeds	34	You have queued to enter the MRT train	C1_50	0.05	Easy	I1_53	4	R. Amundsen discovered the South Pole	0.722222222222222	No	RIGHT	336.2172999995892	RIGHT	379.53860000015993	RIGHT	985.57320000009	RIGHT	1303.204200000437	28.8	0.3	Probable_Truth	LEFT	LEFT	3	1909.700299999713	127	2020-02-28 14:46:44.171668
35	Self	S200228	0.8333333333333334	1	2	1	2	0.5	1000.000002	1000.000002	1500.000003	2500.000005	Major	Wrong_doings	28	You have kept your promises	C2_31	0.85	Hard	I2_41	26	Red is a color	0.888888888888889	Yes	LEFT	557.2212000001855	LEFT	352.4201000000176	RIGHT	655.4203999999118	RIGHT	790.3090999998312	28.8	0.5	Probable_Lie	RIGHT	RIGHT	1	2007.5024000002488	128	2020-02-28 14:47:07.105999
124	Computer	S200228	0.6666666666666666	2	1	2	1	0.5	1150.0000023	1150.0000023	1500.000003	2216.6666711000003	Major	Good_deeds	13	You have been convicted in court	C1_59	0.0	Easy	I2_31	6	Christmas Day is in March	0.777777777777778	Yes	LEFT	118.68039999990287	LEFT	780.9158999998544	LEFT	905.9916000001068	LEFT	1183.862300000328	28.8	0.5	Probable_Lie	LEFT	RIGHT	1	630.1674537427755	129	2020-02-28 14:47:29.315388
133	Computer	S200228	0.8333333333333334	1	2	2	1	0.1	1283.3333359	1216.6666691	2350.0000047	1500.000003	Minor	Wrong_doings	34	You have taken part in burglary	C1_35	0.0	Easy	I1_26	19	Cheese is an Asian staple	0.944444444444444	Yes	RIGHT	638.5880999996516	RIGHT	320.34029999977065	LEFT	918.3640000001104	LEFT	975.8624000000964	28.9	0.1	Probable_Truth	RIGHT	RIGHT	6	557.848945341964	130	2020-02-28 14:47:51.635792
82	Self	S200228	0.8333333333333334	1	2	1	2	0.2	1283.3333359	1000.000002	2216.6666711000003	1500.000003	Minor	Good_deeds	42	You have provided shelter for stray animals	C2_40	0.0	Hard	I1_45	33	Brazil is in South America	0.111111111111111	No	LEFT	320.124300000316	LEFT	223.850400000174	LEFT	2551.148699999885	RIGHT	1382.081499999913	28.9	0.2	Probable_Lie	RIGHT	LEFT	6	1107.6963000000433	131	2020-02-28 14:48:15.795175
56	Self	S200228	0.5	2	1	1	2	0.1	1500.000003	1066.6666688	2216.6666711000003	1783.3333369	Major	Good_deeds	24	You have helped your parents when asked to	C2_3	0.1	Hard	I1_52	53	Beer is an alcoholic drink	0.0	Yes	RIGHT	313.1843999999546	RIGHT	656.1420000002727	RIGHT	1415.8809999998994	RIGHT	1682.663600000069	29.000000000000004	0.1	Probable_Truth	LEFT	LEFT	1	1414.5238999999492	132	2020-02-28 14:48:40.419526
123	Computer	S200228	0.6666666666666666	2	1	1	2	0.6	1216.6666691	1000.000002	1783.3333369	1500.000003	Minor	Wrong_doings	45	You have violated a traffic law	C2_57	0.75	Easy	I1_29	31	Malay is one of the races in Singapore	0.833333333333333	No	LEFT	224.33730000011565	LEFT	394.5416000001387	RIGHT	2279.833200000212	LEFT	1053.8923000003706	29.000000000000004	0.6	Probable_Lie	RIGHT	RIGHT	1	964.489078656462	133	2020-02-28 14:49:03.411830
117	Computer	S200228	0.6666666666666666	1	2	2	1	0.8	1433.3333362	1000.000002	2350.0000047	1783.3333369	Major	Wrong_doings	7	You have said sorry when you were rude	C2_48	0.05	Easy	I2_30	37	North Korea is more developed than South Korea	0.0	Yes	LEFT	764.5603000000847	LEFT	311.9050000000243	LEFT	2418.5396000002584	RIGHT	983.075799999824	29.000000000000004	0.8	Probable_Lie	RIGHT	RIGHT	1	772.2784887597352	134	2020-02-28 14:49:27.795535
41	Self	S200228	0.8333333333333334	2	1	1	2	0.5	1066.6666688	1283.3333359	2066.6666708	1500.000003	Minor	Wrong_doings	59	You have taken responsibility for your actions	C1_48	0.0	Hard	I1_35	54	A caterpillar has more muscle than a human	0.0	Yes	RIGHT	127.95550000009824	RIGHT	582.2471000001315	LEFT	1088.1985999999415	RIGHT	859.7768999998152	29.500000000000004	0.5	Probable_Truth	LEFT	LEFT	1	1578.9307000000008	135	2020-02-28 14:49:50.523058
4	Self	S200228	0.5	1	2	2	1	0.1	1000.000002	1283.3333359	1650.0000033	2350.0000047	Major	Good_deeds	49	You have been arrested	C2_52	0.0	Hard	I1_31	31	It takes 112 years to build the Pisa Tower	0.833333333333333	No	RIGHT	383.2459999998719	RIGHT	632.3200000001634	RIGHT	844.4767000000866	LEFT	838.6027999999897	29.600000000000005	0.1	Probable_Truth	LEFT	LEFT	3	821.766099999877	136	2020-02-28 14:50:12.898526
134	Computer	S200228	0.8333333333333334	1	2	2	1	0.7	1150.0000023	1066.6666688	2216.6666711000003	1783.3333369	Major	Good_deeds	8	You have watched a pirated movie	C1_34	0.45	Easy	I2_26	5	The hardest bone in human body is the jawbone	0.0	No	RIGHT	559.1873000003034	RIGHT	257.5645999995686	LEFT	1640.0489999996353	LEFT	814.9393000003329	30.300000000000004	0.7	Probable_Truth	LEFT	RIGHT	6	662.5338187727673	137	2020-02-28 14:50:35.627082
120	Computer	S200228	0.6666666666666666	2	1	1	2	0.4	1000.000002	1216.6666691	1650.0000033	1650.0000033	Major	Wrong_doings	59	You have attended all lectures as a student	C2_45	1.0	Hard	I2_17	50	Astatine is the rarest element in the Earth's crust	0.888888888888889	No	LEFT	176.03749999989304	LEFT	266.7295000001104	RIGHT	1712.536500000169	RIGHT	1638.043800000105	30.300000000000004	0.4	Probable_Lie	RIGHT	LEFT	4	598.5777345795832	138	2020-02-28 14:50:58.107234
143	Computer	S200228	0.8333333333333334	2	1	2	1	0.2	1000.000002	1066.6666688	1650.0000033	1783.3333369	Minor	Good_deeds	30	You have bribed a police officer	C1_27	0.0	Easy	I2_27	21	The current century is 21st	0.944444444444444	No	LEFT	119.74770000006174	LEFT	323.31250000015643	RIGHT	1132.6907000002393	LEFT	735.9218999999939	30.300000000000004	0.2	Probable_Lie	RIGHT	LEFT	6	541.6671338348568	139	2020-02-28 14:51:19.018838
139	Computer	S200228	0.8333333333333334	2	1	1	2	0.4	1283.3333359	1000.000002	2500.000005	1500.000003	Major	Wrong_doings	24	You have lost everything just to help others	C1_12	0.95	Hard	I2_3	3	Kangaroos live in Africa	0.0555555555555556	Yes	RIGHT	231.8012999999155	RIGHT	950.25859999987	LEFT	896.7898000000787	RIGHT	1996.59260000044	30.700000000000003	0.4	Probable_Truth	LEFT	LEFT	1	740.9418681987324	140	2020-02-28 14:51:42.682358
54	Self	S200228	0.5	1	2	2	1	0.6	1216.6666691	1500.000003	1933.3333372	2216.6666711000003	Major	Good_deeds	56	You have complimented others for good work	C2_19	0.0	Easy	I2_51	13	The Eiffel Tower is in Paris	0.0	Yes	RIGHT	315.97659999988537	RIGHT	376.0259999999107	RIGHT	966.2414000003992	RIGHT	1263.2137999999031	31.300000000000004	0.6	Probable_Truth	LEFT	RIGHT	4	2019.606500000009	141	2020-02-28 14:52:07.067458
33	Self	S200228	0.8333333333333334	1	2	1	2	0.7	1283.3333359	1433.3333362	1933.3333372	1500.000003	Minor	Good_deeds	31	You have borrowed things and never returned	C1_28	0.1	Hard	I1_19	13	Statute of Liberty is in New York	0.111111111111111	No	LEFT	484.1839999999138	LEFT	239.6931000002951	RIGHT	935.4818000001616	LEFT	1318.141900000228	31.300000000000004	0.7	Probable_Lie	RIGHT	RIGHT	1	2408.632800000305	142	2020-02-28 14:52:31.179505
15	Self	S200228	0.5	2	1	2	1	0.3	1066.6666688	1350.0000027	1933.3333372	1933.3333372	Major	Good_deeds	20	You have shown your appreciation to your teachers	C2_27	0.0	Hard	I2_55	55	Cernan was the second last man to walk on the Moon	0.0	Yes	LEFT	81.00730000023759	LEFT	428.7470999997822	RIGHT	2285.4434999999285	RIGHT	855.6645999997272	31.300000000000004	0.3	Probable_Lie	LEFT	LEFT	4	1413.8812999999573	143	2020-02-28 14:52:55.098004
