index	Trial_Type	Participant_ID	Trial_Probability	Question_Position_Prediction_Correct	Question_Position_Prediction_Agent	Question_Position_Comparison_Self	Question_Position_Comparison_Irrelevant	Trial_Stake	Trial_Stake_Jitter	Trial_Type_Jitter	Trial_Result_Jitter	Balance_Update_Jitter	Question_Comparison_Condition	Question_Comparison_Type	Question_Comparison_Question	Question_Comparison_Label	Question_Comparison_Item	Question_Comparison_Proportion_Yes	Question_Factual_Condition	Question_Factual_Item	Question_Factual_Question	Question_Factual_Label	Question_Factual_Proportion_DontKnow	Question_Factual_Type	Answer_Prediction_Agent	Answer_Prediction_Agent_RT	Answer_Prediction_Correct	Answer_Prediction_Correct_RT	Answer_Self	Answer_Self_RT	Answer_Irrelevant	Answer_Irrelevant_RT	Trial_Balance	Trial_Balance_Effect	Trial_Condition	Trial_ProbableSide	Prediction_Choice	Prediction_Result	Prediction_RT	Trial_Order	Trial_Datetime
25	Self	S210128	0.6666666666666666	2	1	1	2	0.1	1216.6666691	1433.3333362	2500.000005	1500.000003	Major	Good_deeds	30	You have pretended to be busy to avoid a social situation	C1_51	0.95	Easy	I2_4	32	A square has 3 corners	0.0555555555555556	No	RIGHT	829.4255000000135	RIGHT	760.3861999999708	LEFT	2099.620099999981	LEFT	1736.0871000000202	10.1	0.1	Probable_Truth	LEFT	LEFT	2	1178.805299999965	0	2021-01-28 14:36:56.282606
49	Self	S210128	0.5	1	2	1	2	0.8	1283.3333359	1150.0000023	1783.3333369	2216.6666711000003	Major	Wrong_doings	18	You have used heroin	C1_43	0.0	Easy	I2_17	15	Vegetarians can eat vegetable products	0.0555555555555556	No	RIGHT	527.7206999999748	RIGHT	1010.1129999999898	LEFT	1145.4795000000215	RIGHT	1943.850800000007	10.9	0.8	Probable_Truth	LEFT	RIGHT	6	1077.9952999999978	1	2021-01-28 14:37:20.995071
140	Computer	S210128	0.8333333333333334	2	1	2	1	0.1	1066.6666688	1066.6666688	1933.3333372	1650.0000033	Minor	Good_deeds	10	You have given directions to a lost tourist	C1_33	0.0	Easy	I2_23	2	Hot chocolate was created by the Mayan culture	0.0	Yes	LEFT	875.1169999999888	LEFT	569.6731000000455	RIGHT	1432.792099999915	RIGHT	1943.9063999999464	10.9	0.1	Probable_Lie	RIGHT	LEFT	5	743.6623422078244	2	2021-01-28 14:37:44.849481
28	Self	S210128	0.6666666666666666	2	1	2	1	0.5	1350.0000027	1216.6666691	1650.0000033	2350.0000047	Major	Wrong_doings	45	You have assisted in a crime	C2_45	0.0	Easy	I1_11	37	There are 6000 spoken languages in the World	0.888888888888889	Yes	RIGHT	1504.1625999999724	LEFT	943.0348999999296	LEFT	943.9598999999816	RIGHT	2017.931900000008	10.4	0.5	Probable_Lie	LEFT	LEFT	6	1403.0404999999746	3	2021-01-28 14:38:10.803128
60	Self	S210128	0.5	2	1	2	1	0.6	1350.0000027	1433.3333362	1500.000003	1500.000003	Major	Wrong_doings	44	You have thrown your trash into the bin	C2_54	0.85	Hard	I1_13	39	Summer is hotter than winter	0.833333333333333	Yes	RIGHT	740.4857999999876	RIGHT	632.2268999999778	RIGHT	1296.3965000000144	RIGHT	1487.1464999999944	11.0	0.6	Probable_Truth	LEFT	LEFT	3	1266.2321999999904	4	2021-01-28 14:38:34.585510
22	Self	S210128	0.6666666666666666	1	2	2	1	0.3	1283.3333359	1500.000003	1500.000003	1650.0000033	Minor	Wrong_doings	8	You have engaged in underage smoking	C2_30	0.05	Easy	I2_56	53	Beer is an alcoholic drink	0.888888888888889	No	RIGHT	649.0189999999529	RIGHT	574.2070999999669	LEFT	1167.754299999956	RIGHT	975.6527999999208	11.3	0.3	Probable_Lie	LEFT	LEFT	3	913.6457999999266	5	2021-01-28 14:38:57.369699
27	Self	S210128	0.6666666666666666	2	1	1	2	0.7	1150.0000023	1283.3333359	2350.0000047	1650.0000033	Minor	Wrong_doings	59	You have taken months off to volunteer	C1_30	0.55	Easy	I2_8	51	Fishes can swim in water	0.777777777777778	Yes	RIGHT	588.2887999999866	RIGHT	423.8573999999744	RIGHT	1335.1033000000143	RIGHT	894.8145000000522	12.0	0.7	Probable_Truth	LEFT	LEFT	2	1786.9870000000674	6	2021-01-28 14:39:21.402078
104	Computer	S210128	0.5	2	1	1	2	0.3	1500.000003	1283.3333359	2350.0000047	2500.000005	Minor	Wrong_doings	50	You have held the door open for a stranger	C2_27	0.0	Easy	I1_21	46	Last day of the year is 30th December	0.0555555555555556	No	LEFT	779.7310000000834	LEFT	782.0623000000069	RIGHT	1461.2419999999702	LEFT	2744.1155999999864	12.0	0.3	Probable_Lie	RIGHT	RIGHT	3	677.4100901500149	7	2021-01-28 14:39:48.058638
20	Self	S210128	0.6666666666666666	1	2	2	1	0.2	1066.6666688	1350.0000027	2500.000005	2350.0000047	Major	Wrong_doings	39	You have provided shelter for stray animals	C2_8	0.5	Easy	I2_22	10	Singapore has four seasons	0.0	Yes	RIGHT	384.6501000000444	RIGHT	627.3664999999937	RIGHT	1214.6973000000116	LEFT	1763.1405000000768	12.2	0.2	Probable_Truth	LEFT	LEFT	2	1047.2316999999975	8	2021-01-28 14:40:12.938848
128	Computer	S210128	0.8333333333333334	1	2	1	2	0.1	1500.000003	1350.0000027	2216.6666711000003	1650.0000033	Minor	Good_deeds	19	You have held the elevator doors for others	C1_19	0.0	Hard	I2_12	39	It is 20th Century now	0.722222222222222	No	LEFT	560.9008000000131	LEFT	827.1788999999217	RIGHT	1216.8861999999765	LEFT	2183.362699999975	12.2	0.1	Probable_Lie	RIGHT	RIGHT	1	717.3073967803373	9	2021-01-28 14:40:37.729564
52	Self	S210128	0.5	1	2	2	1	0.1	1000.000002	1000.000002	1650.0000033	2350.0000047	Major	Good_deeds	19	You have offered a listening ear to a friend	C2_42	0.0	Hard	I2_48	17	It sometimes snows in Singapore	0.0	Yes	RIGHT	375.7683000000043	RIGHT	472.14210000004186	RIGHT	1128.558699999985	LEFT	923.0588000000351	12.3	0.1	Probable_Truth	LEFT	RIGHT	5	968.5303999999632	10	2021-01-28 14:41:00.170815
118	Computer	S210128	0.6666666666666666	1	2	2	1	0.8	1150.0000023	1433.3333362	2216.6666711000003	2066.6666708	Minor	Wrong_doings	8	You have engaged in underage smoking	C2_30	0.05	Easy	I2_56	53	Beer is an alcoholic drink	0.888888888888889	No	LEFT	432.9658000000336	LEFT	743.8679000000548	LEFT	871.5157000000318	RIGHT	853.9918999999827	12.3	0.8	Probable_Lie	RIGHT	LEFT	3	720.6970070543	11	2021-01-28 14:41:23.225760
34	Self	S210128	0.8333333333333334	1	2	1	2	0.2	1066.6666688	1500.000003	2066.6666708	1650.0000033	Major	Wrong_doings	39	You have kidnapped someone	C2_35	0.95	Hard	I1_12	12	A triangle has three sides	0.0	Yes	RIGHT	641.3044000000809	RIGHT	510.2106999999023	LEFT	800.0187000000096	RIGHT	983.0852999999706	12.499999999999998	0.2	Probable_Truth	LEFT	LEFT	1	879.8584999999548	12	2021-01-28 14:41:45.897353
69	Self	S210128	0.6666666666666666	1	2	2	1	0.3	1433.3333362	1000.000002	1650.0000033	1650.0000033	Minor	Wrong_doings	29	You have complimented others for good work	C2_9	0.05	Hard	I2_40	34	Earth's atmosphere extends up to 10,000km into space	0.0	No	RIGHT	424.920699999916	RIGHT	588.6318000000301	RIGHT	919.309300000009	RIGHT	1359.1061999999283	12.8	0.3	Probable_Truth	LEFT	LEFT	2	1157.574199999999	13	2021-01-28 14:42:08.657820
74	Self	S210128	0.6666666666666666	2	1	1	2	0.3	1500.000003	1150.0000023	1500.000003	2500.000005	Major	Good_deeds	25	You have engaged in arson	C1_13	0.85	Hard	I1_27	21	There are 10 continents in the World	0.611111111111111	Yes	LEFT	668.0107000000817	LEFT	1936.3789000000224	LEFT	1248.9822000000004	RIGHT	4086.057100000062	12.8	0.3	Probable_Lie	RIGHT	RIGHT	2	1037.0598000000657	14	2021-01-28 14:42:36.858751
36	Self	S210128	0.8333333333333334	1	2	2	1	0.8	1433.3333362	1216.6666691	2500.000005	2500.000005	Major	Good_deeds	48	You have volunteered every week for many years	C2_48	0.15	Easy	I2_39	26	The hardest bone in human body is the jawbone	0.0	Yes	RIGHT	1296.3388000000575	RIGHT	637.8928000000315	RIGHT	1464.101899999946	RIGHT	2726.3761000000386	13.6	0.8	Probable_Lie	LEFT	LEFT	3	774.8514999999543	15	2021-01-28 14:43:03.977202
133	Computer	S210128	0.8333333333333334	1	2	2	1	0.8	1350.0000027	1216.6666691	2066.6666708	1500.000003	Minor	Wrong_doings	35	You have deceived a loved one	C2_3	0.0	Hard	I1_41	12	Penguin can fly with their wings	0.944444444444444	Yes	LEFT	744.9270000000752	LEFT	896.2142999999969	LEFT	1751.575500000058	LEFT	1615.5248000000029	13.6	0.8	Probable_Truth	LEFT	RIGHT	2	698.3894883415185	16	2021-01-28 14:43:28.385334
105	Computer	S210128	0.5	2	1	1	2	0.6	1433.3333362	1066.6666688	2500.000005	2350.0000047	Minor	Wrong_doings	60	You have engaged in drink-driving	C1_23	0.95	Hard	I1_3	41	The Amazon forest covers an area of 1 billion acres	0.0	No	RIGHT	2775.6418000000167	RIGHT	1632.4714999999514	LEFT	1009.3967000000248	RIGHT	2678.9277999999968	14.2	0.6	Probable_Truth	LEFT	LEFT	3	804.0571809589055	17	2021-01-28 14:43:57.201624
99	Computer	S210128	0.5	1	2	1	2	0.5	1000.000002	1066.6666688	1500.000003	1783.3333369	Major	Good_deeds	13	You have violated a traffic law	C2_13	0.95	Hard	I2_24	45	The Eiffel Tower is in Paris	0.0	Yes	RIGHT	567.1838000000662	RIGHT	1109.4514000000115	LEFT	945.3595999999608	RIGHT	1087.9567999999151	14.7	0.5	Probable_Truth	LEFT	LEFT	3	765.960250014457	18	2021-01-28 14:44:19.602080
1	Self	S210128	0.5	1	2	1	2	0.8	1283.3333359	1066.6666688	1933.3333372	1650.0000033	Major	Wrong_doings	1	You have been donating all your excess food to a food bank	C2_47	0.75	Hard	I1_17	24	A caterpillar has more muscle than a human	0.0555555555555556	No	LEFT	848.6447000000226	LEFT	2682.959299999993	RIGHT	2144.528599999944	LEFT	3847.781300000065	14.7	0.8	Probable_Lie	RIGHT	RIGHT	1	950.8624000000054	19	2021-01-28 14:44:48.594085
122	Computer	S210128	0.6666666666666666	2	1	1	2	0.4	1433.3333362	1216.6666691	2350.0000047	1933.3333372	Minor	Wrong_doings	45	You have blackmailed others for money	C2_24	1.0	Easy	I1_37	4	The Earth turns the closest to the sun in May	0.0	Yes	LEFT	2276.9446999999445	LEFT	2296.743699999979	LEFT	972.9705999999396	RIGHT	1838.574799999947	14.7	0.4	Probable_Truth	LEFT	RIGHT	4	839.7082977239982	20	2021-01-28 14:45:16.313323
70	Self	S210128	0.6666666666666666	1	2	2	1	0.4	1283.3333359	1216.6666691	1500.000003	2216.6666711000003	Minor	Wrong_doings	38	You have attended all lectures as a student	C1_7	0.15	Hard	I2_13	14	China is a part of Asia	0.888888888888889	No	RIGHT	520.7107999999607	RIGHT	3523.8564999999653	RIGHT	2119.628599999942	RIGHT	944.1071999999622	15.1	0.4	Probable_Lie	RIGHT	RIGHT	2	1749.9081000000842	21	2021-01-28 14:45:43.962176
103	Computer	S210128	0.5	1	2	2	1	0.4	1500.000003	1150.0000023	1650.0000033	2216.6666711000003	Minor	Good_deeds	8	You have signed up as a bone marrow donor	C1_34	1.0	Easy	I1_8	43	The Seine river is 50 feet above sea level	1.0	Yes	RIGHT	623.8786999999775	RIGHT	629.9572000000353	RIGHT	2199.060599999939	RIGHT	2929.5358000000533	15.5	0.4	Probable_Truth	LEFT	LEFT	1	922.7378286295752	22	2021-01-28 14:46:10.345955
43	Self	S210128	0.8333333333333334	2	1	1	2	0.5	1066.6666688	1066.6666688	2216.6666711000003	1783.3333369	Minor	Wrong_doings	4	You have cursed at your loved ones	C2_46	0.85	Hard	I2_38	50	Singapore is in Africa	0.944444444444444	No	RIGHT	413.9341999998578	RIGHT	360.1493999999548	LEFT	906.0541000001194	LEFT	1023.5579999998664	16.0	0.5	Probable_Truth	LEFT	LEFT	1	1235.083700000132	23	2021-01-28 14:46:32.993326
31	Self	S210128	0.6666666666666666	2	1	2	1	0.2	1283.3333359	1066.6666688	1500.000003	1783.3333369	Major	Good_deeds	2	You have gossiped about your best friend	C1_14	0.0	Hard	I2_54	11	Today is a weekday	0.777777777777778	No	RIGHT	516.9714999999542	RIGHT	423.6022000000048	LEFT	783.7718000000677	RIGHT	1297.71629999982	16.2	0.2	Probable_Lie	LEFT	LEFT	4	1177.2827000002053	24	2021-01-28 14:46:55.401510
39	Self	S210128	0.8333333333333334	1	2	2	1	0.5	1500.000003	1150.0000023	1650.0000033	1500.000003	Minor	Good_deeds	48	You have lost everything just to help others	C1_39	0.0	Easy	I1_24	44	A dog has four legs	0.0555555555555556	Yes	RIGHT	351.402200000166	RIGHT	415.9326999999848	RIGHT	1335.5385000002116	RIGHT	1070.3684999998586	16.7	0.5	Probable_Truth	RIGHT	RIGHT	3	935.9053000000586	25	2021-01-28 14:47:17.881543
114	Computer	S210128	0.6666666666666666	1	2	1	2	0.4	1066.6666688	1066.6666688	2066.6666708	1783.3333369	Major	Good_deeds	50	You have fabricated facts about yourself	C1_42	1.0	Hard	I2_58	33	The Earth is round	0.0	Yes	RIGHT	593.4093000000757	RIGHT	528.8378000000193	LEFT	994.7513999998135	RIGHT	688.6336000000028	17.099999999999998	0.4	Probable_Lie	LEFT	LEFT	4	715.7573927124699	26	2021-01-28 14:47:39.953119
30	Self	S210128	0.6666666666666666	2	1	2	1	0.4	1000.000002	1350.0000027	2216.6666711000003	2216.6666711000003	Major	Wrong_doings	51	You have started a hotline for victims of bully	C1_45	0.05	Hard	I1_28	28	North Korea is more developed than South Korea	0.0	No	RIGHT	696.2765999999192	RIGHT	368.5897999998815	RIGHT	1439.676499999905	LEFT	1271.7600999999377	17.499999999999996	0.4	Probable_Truth	RIGHT	RIGHT	5	674.7009999999136	27	2021-01-28 14:48:03.761663
127	Computer	S210128	0.6666666666666666	2	1	2	1	0.6	1500.000003	1000.000002	1933.3333372	1783.3333369	Major	Good_deeds	2	You have gossiped about your best friend	C1_14	0.0	Hard	I2_54	11	Today is a weekday	0.777777777777778	No	RIGHT	621.863699999949	RIGHT	664.4457999998394	LEFT	751.7302999999629	RIGHT	923.7628999999288	18.1	0.6	Probable_Truth	RIGHT	LEFT	2	719.2426105148952	28	2021-01-28 14:48:26.225396
53	Self	S210128	0.5	1	2	2	1	0.4	1216.6666691	1433.3333362	1500.000003	1650.0000033	Minor	Good_deeds	37	You have drunk alcohol when you were underage	C1_29	0.55	Hard	I1_38	48	Nomophobia is the fear of being without a phone or computer	0.944444444444444	No	RIGHT	305.3207000000384	RIGHT	467.8433000001405	LEFT	1399.2734000000837	RIGHT	2927.539399999887	18.5	0.4	Probable_Truth	LEFT	RIGHT	5	822.6962999999614	29	2021-01-28 14:48:50.522165
82	Self	S210128	0.8333333333333334	1	2	1	2	0.3	1500.000003	1350.0000027	2216.6666711000003	1500.000003	Major	Good_deeds	11	You have helped with household chores	C1_49	0.65	Easy	I1_40	25	Marijuana is legal in Singapore	0.0	Yes	RIGHT	295.9083999999166	RIGHT	368.8139000000774	RIGHT	2262.9531000000043	LEFT	833.1381999998939	18.8	0.3	Probable_Truth	LEFT	LEFT	1	809.0658000000985	30	2021-01-28 14:49:14.225523
135	Computer	S210128	0.8333333333333334	1	2	2	1	0.4	1066.6666688	1150.0000023	1500.000003	2350.0000047	Minor	Good_deeds	48	You have lost everything just to help others	C1_39	0.0	Easy	I1_24	44	A dog has four legs	0.0555555555555556	Yes	RIGHT	392.30399999996735	RIGHT	440.8158000001095	RIGHT	1420.883399999866	RIGHT	755.4832999999235	19.2	0.4	Probable_Truth	RIGHT	LEFT	1	939.2119349505904	31	2021-01-28 14:49:36.809981
18	Self	S210128	0.6666666666666666	1	2	1	2	0.7	1350.0000027	1066.6666688	2350.0000047	1933.3333372	Major	Good_deeds	50	You have fabricated facts about yourself	C1_42	1.0	Hard	I2_58	33	The Earth is round	0.0	Yes	RIGHT	303.2474999999977	RIGHT	415.840899999921	LEFT	1107.2183999999652	RIGHT	647.7927999999338	19.899999999999995	0.7	Probable_Truth	LEFT	LEFT	1	1439.1273999999612	32	2021-01-28 14:50:00.000648
95	Self	S210128	0.8333333333333334	2	1	2	1	0.3	1150.0000023	1216.6666691	2350.0000047	1933.3333372	Minor	Wrong_doings	46	You have started an NGO using your savings	C2_14	0.85	Hard	I1_58	53	There are 9 rings in the Olympic flag	0.166666666666667	Yes	RIGHT	372.1272999998746	RIGHT	352.7266000000964	RIGHT	2239.0570000000025	RIGHT	2125.0215000000026	20.2	0.3	Probable_Lie	LEFT	LEFT	4	648.8955000002079	33	2021-01-28 14:50:24.960206
13	Self	S210128	0.5	2	1	2	1	0.5	1500.000003	1433.3333362	2216.6666711000003	2216.6666711000003	Major	Good_deeds	23	You have stopped using products tested on animals	C2_60	0.7	Easy	I2_1	3	Arabi is the oldest surviving breed of horse	0.0555555555555556	Yes	RIGHT	544.2924999999832	RIGHT	537.4939000000722	RIGHT	2159.8297999998977	RIGHT	2319.471900000053	20.7	0.5	Probable_Truth	LEFT	LEFT	1	1514.4359999999324	34	2021-01-28 14:50:51.977421
23	Self	S210128	0.6666666666666666	1	2	2	1	0.6	1150.0000023	1216.6666691	1933.3333372	2500.000005	Major	Wrong_doings	12	You have watched a pirated movie	C1_9	1.0	Easy	I1_53	56	Milwaukee Art Museum is located in California	0.0	No	RIGHT	449.311200000011	RIGHT	741.2295999999969	LEFT	1207.1579000000838	LEFT	2670.8401999999296	21.3	0.6	Probable_Lie	LEFT	LEFT	6	574.1447000000335	35	2021-01-28 14:51:16.993308
100	Computer	S210128	0.5	1	2	2	1	0.3	1066.6666688	1500.000003	2216.6666711000003	2500.000005	Minor	Wrong_doings	58	You have bought cocaine	C1_53	0.0	Easy	I2_43	8	Singapore is a poor country	0.0	No	RIGHT	502.1408000000065	RIGHT	1469.1072000000531	LEFT	880.4728999998588	LEFT	1028.362799999968	21.6	0.3	Probable_Lie	RIGHT	RIGHT	3	624.3021115448811	36	2021-01-28 14:51:41.344388
102	Computer	S210128	0.5	1	2	2	1	0.8	1283.3333359	1350.0000027	2066.6666708	1933.3333372	Major	Wrong_doings	11	You have lied to your parents	C1_8	0.95	Hard	I1_45	60	R. Amundsen discovered the South Pole	0.0555555555555556	No	RIGHT	584.3317000001207	RIGHT	661.2625000000207	LEFT	886.8684000001394	RIGHT	2244.4037999998727	22.4	0.8	Probable_Lie	RIGHT	RIGHT	2	884.6000098183504	37	2021-01-28 14:52:05.809837
81	Self	S210128	0.8333333333333334	1	2	1	2	0.5	1150.0000023	1150.0000023	1783.3333369	2500.000005	Major	Wrong_doings	34	You have donated a pay cheque to charity	C2_6	0.0	Hard	I2_11	50	Christmas Day is in March	0.0	No	RIGHT	431.7641000000094	RIGHT	1314.6037999999862	RIGHT	1486.2071999998534	LEFT	1399.552999999969	22.9	0.5	Probable_Lie	LEFT	LEFT	6	860.0264000001516	38	2021-01-28 14:52:30.458157
117	Computer	S210128	0.6666666666666666	1	2	2	1	0.3	1216.6666691	1500.000003	1500.000003	2350.0000047	Minor	Good_deeds	35	You have been physically hurt to protect others	C2_50	0.2	Hard	I2_60	22	Astatine is the rarest element in the Earth's crust	0.722222222222222	No	RIGHT	737.4245999999403	RIGHT	541.5063000000373	LEFT	1103.6760000001775	RIGHT	2028.2486000000968	23.2	0.3	Probable_Lie	LEFT	RIGHT	2	600.2940340418121	39	2021-01-28 14:52:54.601636
119	Computer	S210128	0.6666666666666666	1	2	2	1	0.7	1000.000002	1350.0000027	1783.3333369	1500.000003	Major	Wrong_doings	12	You have watched a pirated movie	C1_9	1.0	Easy	I1_53	56	Milwaukee Art Museum is located in California	0.0	No	RIGHT	817.4789999998211	RIGHT	534.337800000003	LEFT	935.9739999999874	LEFT	1574.898100000155	23.9	0.7	Probable_Lie	RIGHT	RIGHT	1	888.9015965787548	40	2021-01-28 14:53:17.544589
10	Self	S210128	0.5	2	1	1	2	0.1	1283.3333359	1066.6666688	1650.0000033	1500.000003	Major	Good_deeds	60	You have coveted things that belong to others	C1_22	0.05	Hard	I1_46	31	It is snowing outside now	0.0	No	RIGHT	453.25529999990977	RIGHT	310.33149999984744	LEFT	2463.009899999861	LEFT	1063.1337999998325	24.0	0.1	Probable_Truth	LEFT	RIGHT	5	1404.1875000000346	41	2021-01-28 14:53:41.314100
47	Self	S210128	0.8333333333333334	2	1	2	1	0.2	1433.3333362	1150.0000023	1500.000003	2350.0000047	Major	Wrong_doings	46	You have been convicted in court	C2_43	0.95	Hard	I1_50	23	Slavery was abolished in Cuba in 1886	1.0	Yes	RIGHT	909.0019000000212	RIGHT	576.0631000000558	LEFT	1047.3001000000295	RIGHT	1459.5635999999104	24.2	0.2	Probable_Lie	RIGHT	RIGHT	1	713.7901000000966	42	2021-01-28 14:54:05.025624
0	Self	S210128	0.5	1	2	1	2	0.5	1500.000003	1216.6666691	2066.6666708	2350.0000047	Minor	Good_deeds	34	You have sold illegal drugs	C2_1	0.0	Hard	I1_60	27	Brazil is in South America	0.777777777777778	No	RIGHT	313.1822000000284	RIGHT	631.0108000000128	LEFT	805.2311999999802	RIGHT	1153.239800000165	24.7	0.5	Probable_Truth	LEFT	RIGHT	5	731.8923999998788	43	2021-01-28 14:54:28.361624
113	Computer	S210128	0.6666666666666666	1	2	1	2	0.5	1350.0000027	1216.6666691	1933.3333372	1933.3333372	Minor	Good_deeds	42	You have helped others to pick up their belongings	C1_12	0.0	Easy	I1_6	6	French is Singapore's official language	0.722222222222222	No	RIGHT	719.5062000000689	RIGHT	606.4268000000084	RIGHT	1308.132500000056	LEFT	1207.5595999999678	25.2	0.5	Probable_Lie	RIGHT	RIGHT	1	883.1199917689568	44	2021-01-28 14:54:52.089145
112	Computer	S210128	0.6666666666666666	1	2	1	2	0.2	1433.3333362	1000.000002	2350.0000047	1650.0000033	Major	Wrong_doings	9	You have bribed a police officer	C2_39	0.45	Hard	I1_33	58	Acoustic Kitty refers to cat with implants	0.666666666666667	Yes	RIGHT	496.7502999998033	RIGHT	637.467400000105	LEFT	1104.522800000041	LEFT	3232.566099999985	25.4	0.2	Probable_Lie	LEFT	RIGHT	2	955.8639556010572	45	2021-01-28 14:55:17.513581
92	Self	S210128	0.8333333333333334	2	1	2	1	0.4	1216.6666691	1000.000002	1933.3333372	1650.0000033	Major	Good_deeds	40	You have failed to keep promises	C1_40	0.0	Hard	I2_30	3	Kangaroos live in Africa	0.833333333333333	No	RIGHT	395.18889999999374	RIGHT	320.22249999999985	LEFT	1631.7240000000766	LEFT	1101.7535000000862	25.8	0.4	Probable_Truth	RIGHT	RIGHT	6	725.1949999999852	46	2021-01-28 14:55:40.064336
125	Computer	S210128	0.6666666666666666	2	1	2	1	0.8	1216.6666691	1433.3333362	2216.6666711000003	2350.0000047	Minor	Good_deeds	14	You have returned your trays in food courts	C2_59	1.0	Hard	I1_32	54	Saturn's rings are between 30 and 300 feet thick	0.944444444444444	Yes	RIGHT	446.6176999999334	RIGHT	328.39209999997365	RIGHT	1064.7407000001294	RIGHT	1571.1145000000215	26.6	0.8	Probable_Truth	LEFT	LEFT	1	684.7563518146701	47	2021-01-28 14:56:03.944550
88	Self	S210128	0.8333333333333334	2	1	1	2	0.6	1066.6666688	1150.0000023	2500.000005	2500.000005	Major	Wrong_doings	6	You have given up your seat in the MRT	C1_15	0.0	Easy	I2_53	5	Most plants emit oxygen in the day	0.888888888888889	No	RIGHT	468.444399999953	RIGHT	624.3712000000414	RIGHT	949.4286999999986	RIGHT	3976.50869999984	27.2	0.6	Probable_Truth	LEFT	LEFT	1	1127.6095000000623	48	2021-01-28 14:56:58.288186
111	Computer	S210128	0.5	2	1	2	1	0.1	1216.6666691	1500.000003	2066.6666708	1650.0000033	Major	Good_deeds	22	You have been restricting your electricity consumption	C2_37	1.0	Hard	I2_33	28	The Moon orbits around the Earth	0.944444444444444	No	RIGHT	695.9557000000132	RIGHT	471.8735000001288	RIGHT	1768.1042000001526	RIGHT	1255.3144999999404	27.3	0.1	Probable_Lie	LEFT	RIGHT	2	749.3302156544039	49	2021-01-28 14:57:22.232366
45	Self	S210128	0.8333333333333334	2	1	2	1	0.1	1283.3333359	1500.000003	2350.0000047	1933.3333372	Minor	Good_deeds	16	You have let a homeless man into your house	C1_57	1.0	Hard	I1_4	4	It takes 112 years to build the Pisa Tower	0.0	Yes	RIGHT	475.824300000113	RIGHT	311.911900000041	RIGHT	1288.683600000013	RIGHT	1500.233799999933	27.4	0.1	Probable_Truth	RIGHT	RIGHT	6	702.6266999998825	50	2021-01-28 14:57:46.152664
32	Self	S210128	0.8333333333333334	1	2	1	2	0.6	1350.0000027	1433.3333362	2350.0000047	2216.6666711000003	Minor	Good_deeds	19	You have held the elevator doors for others	C1_19	0.0	Hard	I2_12	39	It is 20th Century now	0.722222222222222	No	RIGHT	296.4415999999801	RIGHT	360.4119999999966	RIGHT	993.1212999999844	LEFT	1055.661999999984	28.000000000000004	0.6	Probable_Truth	RIGHT	RIGHT	4	567.9595999999947	51	2021-01-28 14:58:09.352866
73	Self	S210128	0.6666666666666666	2	1	1	2	0.6	1150.0000023	1350.0000027	2216.6666711000003	2350.0000047	Minor	Wrong_doings	13	You have eaten something in the MRT train	C1_3	0.05	Easy	I2_49	19	Afghan Hound is the first cloned cat	0.888888888888889	Yes	RIGHT	400.63740000005055	RIGHT	296.3039999999637	LEFT	1139.125599999943	LEFT	3183.711599999924	28.600000000000005	0.6	Probable_Lie	LEFT	LEFT	4	971.7295000000375	52	2021-01-28 14:58:34.984270
5	Self	S210128	0.5	1	2	2	1	0.4	1066.6666688	1150.0000023	1783.3333369	2216.6666711000003	Minor	Good_deeds	53	You have taken responsibility for your actions	C1_11	0.1	Easy	I2_27	45	Feijoa is a type of grape	0.722222222222222	Yes	RIGHT	304.50980000000527	RIGHT	346.2560999998914	RIGHT	1390.7135000001745	LEFT	2049.640500000123	29.000000000000004	0.4	Probable_Truth	LEFT	RIGHT	6	797.0760999999129	53	2021-01-28 14:58:58.664833
137	Computer	S210128	0.8333333333333334	2	1	1	2	0.4	1350.0000027	1000.000002	1650.0000033	1783.3333369	Minor	Wrong_doings	33	You have made someone cry	C1_24	0.25	Hard	I2_59	52	Malay is one of the races in Singapore	1.0	Yes	RIGHT	541.8966999998247	RIGHT	344.4749000000229	LEFT	1103.987400000051	RIGHT	1343.4411999999156	29.4	0.4	Probable_Truth	LEFT	RIGHT	2	705.818738259974	54	2021-01-28 14:59:21.057703
67	Self	S210128	0.6666666666666666	1	2	1	2	0.7	1000.000002	1433.3333362	1783.3333369	2066.6666708	Major	Good_deeds	33	You have done something against your values	C1_20	0.8	Easy	I1_42	1	Bears have the biggest eyes among mammals	0.0	Yes	RIGHT	384.3075000002045	RIGHT	762.6804999999877	LEFT	1821.86999999999	LEFT	2615.495100000089	30.1	0.7	Probable_Lie	LEFT	LEFT	3	927.7521999999864	55	2021-01-28 14:59:46.424880
93	Self	S210128	0.8333333333333334	2	1	2	1	0.1	1500.000003	1283.3333359	2066.6666708	2350.0000047	Major	Good_deeds	14	You have adopted a zero-waste lifestyle	C1_6	0.95	Hard	I2_35	47	Airbags in cars are filled with sodium azide	0.888888888888889	Yes	RIGHT	356.20479999988675	RIGHT	301.2567999999192	RIGHT	1351.4077999998335	RIGHT	3236.382800000001	30.200000000000003	0.1	Probable_Truth	RIGHT	RIGHT	6	1048.7358000000313	56	2021-01-28 15:00:12.496351
110	Computer	S210128	0.5	2	1	2	1	0.7	1066.6666688	1216.6666691	2216.6666711000003	1500.000003	Major	Good_deeds	20	You have told someone's secret to others	C2_20	0.8	Hard	I1_31	33	"Statue of Liberty is 151 feet tall"	0.888888888888889	Yes	RIGHT	439.8972000001322	RIGHT	344.748299999992	LEFT	1143.9611000000696	RIGHT	1101.3679000000138	30.9	0.7	Probable_Truth	RIGHT	RIGHT	6	588.98529302354	57	2021-01-28 15:00:34.680468
15	Self	S210128	0.5	2	1	2	1	0.3	1000.000002	1350.0000027	1500.000003	1650.0000033	Major	Good_deeds	22	You have been restricting your electricity consumption	C2_37	1.0	Hard	I2_33	28	The Moon orbits around the Earth	0.944444444444444	No	RIGHT	468.988999999965	RIGHT	304.6836999999414	RIGHT	1247.9981999999836	RIGHT	3080.120799999804	31.200000000000003	0.3	Probable_Truth	LEFT	LEFT	3	952.5991999998952	58	2021-01-28 15:00:58.808422
136	Computer	S210128	0.8333333333333334	2	1	1	2	0.5	1216.6666691	1150.0000023	1500.000003	2216.6666711000003	Major	Good_deeds	24	You have bought cigarettes for a minor	C2_10	0.7	Easy	I1_2	59	December is the last month of the year	0.666666666666667	No	RIGHT	542.2665000000961	RIGHT	312.5938999999107	LEFT	1031.386200000043	RIGHT	1263.164599999982	31.700000000000003	0.5	Probable_Lie	RIGHT	LEFT	4	941.5178068111624	59	2021-01-28 15:01:21.544518
80	Self	S210128	0.8333333333333334	1	2	1	2	0.2	1216.6666691	1283.3333359	2350.0000047	2066.6666708	Minor	Wrong_doings	28	You have helped your parents when asked to	C1_16	0.85	Hard	I2_50	42	Animals are living things	0.833333333333333	Yes	RIGHT	296.14649999984977	RIGHT	403.204199999891	RIGHT	1527.4925999999596	RIGHT	1056.4690000001065	31.9	0.2	Probable_Truth	RIGHT	RIGHT	6	1122.5996000000578	60	2021-01-28 15:01:45.440475
17	Self	S210128	0.6666666666666666	1	2	1	2	0.5	1000.000002	1150.0000023	1650.0000033	1500.000003	Minor	Good_deeds	42	You have helped others to pick up their belongings	C1_12	0.0	Easy	I1_6	6	French is Singapore's official language	0.722222222222222	No	RIGHT	298.10790000010456	RIGHT	568.656400000009	RIGHT	973.4226999999008	LEFT	1016.1103999998886	32.400000000000006	0.5	Probable_Truth	RIGHT	RIGHT	5	800.4965999998603	61	2021-01-28 15:02:06.969142
98	Computer	S210128	0.5	1	2	1	2	0.2	1150.0000023	1283.3333359	1933.3333372	1500.000003	Major	Wrong_doings	47	You have followed instructions	C2_58	0.0	Easy	I2_45	17	There are 30 hours in a day	0.944444444444444	Yes	RIGHT	311.7322000000513	RIGHT	407.8556999998	RIGHT	2751.243899999963	LEFT	2078.5657000001265	32.60000000000001	0.2	Probable_Lie	RIGHT	LEFT	5	946.205944710111	62	2021-01-28 15:02:31.904616
63	Self	S210128	0.5	2	1	2	1	0.4	1500.000003	1500.000003	2350.0000047	1783.3333369	Minor	Good_deeds	27	You have bribed someone to improve a grade	C1_44	0.7	Easy	I2_46	2	February has 30 days	0.0	Yes	RIGHT	466.2292000000434	RIGHT	289.06099999994694	LEFT	1382.9548999999588	LEFT	2371.0954000000584	33.00000000000001	0.4	Probable_Lie	LEFT	RIGHT	1	872.499100000141	63	2021-01-28 15:02:56.993037
107	Computer	S210128	0.5	2	1	1	2	0.8	1350.0000027	1350.0000027	1500.000003	2066.6666708	Minor	Wrong_doings	27	You have made counterfeit money	C1_50	0.45	Easy	I2_41	1	Algeria is Africa's second largest country	0.888888888888889	Yes	RIGHT	639.1037000000779	RIGHT	720.3314000000773	LEFT	1164.982599999803	RIGHT	1783.4537000003363	33.800000000000004	0.8	Probable_Truth	RIGHT	LEFT	2	607.1982835534418	64	2021-01-28 15:03:20.736913
120	Computer	S210128	0.6666666666666666	2	1	1	2	0.3	1350.0000027	1283.3333359	2500.000005	2066.6666708	Minor	Good_deeds	24	You have confessed to your mistake	C2_2	0.0	Hard	I2_51	8	The first Grammy awards was held in 1959	0.0	No	LEFT	2160.342600000149	RIGHT	2000.5433999999696	RIGHT	1442.9735000003348	RIGHT	1440.2204999996684	33.800000000000004	0.3	Probable_Truth	LEFT	LEFT	1	818.8658401051455	65	2021-01-28 15:03:48.369044
84	Self	S210128	0.8333333333333334	1	2	2	1	0.7	1066.6666688	1500.000003	2066.6666708	1650.0000033	Minor	Good_deeds	31	You have stopped using plastics completely	C1_28	0.2	Hard	I2_25	26	The human's inner ear is larger than a pencil eraser	0.888888888888889	No	RIGHT	344.6143999999549	RIGHT	620.8207999998194	RIGHT	1709.4062000001031	RIGHT	2254.9408999998377	34.50000000000001	0.7	Probable_Truth	RIGHT	RIGHT	6	736.2433000002966	66	2021-01-28 15:04:12.896714
138	Computer	S210128	0.8333333333333334	2	1	1	2	0.3	1433.3333362	1350.0000027	1783.3333369	2350.0000047	Major	Wrong_doings	43	You have a non-judgmental attitude towards everyone	C2_16	0.0	Easy	I1_52	18	Septicemia is a lung infection condition	0.0	No	LEFT	900.9811999999328	LEFT	896.2684999996782	RIGHT	1483.5447999998903	RIGHT	1248.289499999828	34.50000000000001	0.3	Probable_Lie	RIGHT	LEFT	5	967.100021102498	67	2021-01-28 15:04:37.880362
115	Computer	S210128	0.6666666666666666	1	2	1	2	0.6	1283.3333359	1283.3333359	2500.000005	2500.000005	Minor	Good_deeds	30	You have shown your appreciation to your teachers	C1_35	1.0	Hard	I1_10	60	Cleopatra was born in Greece	0.0	Yes	RIGHT	575.1718000001347	RIGHT	701.033699999698	RIGHT	869.7658999999476	LEFT	2136.4464000002954	35.10000000000001	0.6	Probable_Lie	RIGHT	RIGHT	1	896.6614964021662	68	2021-01-28 15:05:03.200427
83	Self	S210128	0.8333333333333334	1	2	1	2	0.1	1000.000002	1216.6666691	1650.0000033	1933.3333372	Major	Good_deeds	57	You have cheated on a test	C1_31	0.0	Easy	I1_26	11	There are 6 million animal species on Earth	0.666666666666667	Yes	RIGHT	831.3461000002462	RIGHT	399.0043000003425	LEFT	925.3521999999066	RIGHT	1240.8538000004228	35.20000000000001	0.1	Probable_Truth	RIGHT	RIGHT	2	708.5688000001937	69	2021-01-28 15:05:25.680745
56	Self	S210128	0.5	2	1	1	2	0.8	1150.0000023	1066.6666688	1783.3333369	2066.6666708	Major	Wrong_doings	17	You have risked your life to save another person's life	C1_36	0.0	Hard	I2_31	46	Teddy Roosevelt was the youngest US President	0.833333333333333	Yes	RIGHT	362.2213000003285	RIGHT	312.7036999999291	RIGHT	1262.1361000001343	RIGHT	1399.8947000000044	36.00000000000001	0.8	Probable_Truth	LEFT	RIGHT	6	1127.5236999999834	70	2021-01-28 15:05:48.784682
139	Computer	S210128	0.8333333333333334	2	1	1	2	0.2	1500.000003	1216.6666691	2216.6666711000003	2066.6666708	Minor	Wrong_doings	4	You have cursed at your loved ones	C2_46	0.85	Hard	I2_38	50	Singapore is in Africa	0.944444444444444	No	LEFT	969.9989000000642	LEFT	761.4188999996259	LEFT	1024.0688999997474	LEFT	856.3051999999516	36.00000000000001	0.2	Probable_Lie	RIGHT	LEFT	4	872.300470862059	71	2021-01-28 15:06:12.833139
19	Self	S210128	0.6666666666666666	1	2	1	2	0.4	1433.3333362	1000.000002	2216.6666711000003	2216.6666711000003	Minor	Good_deeds	30	You have shown your appreciation to your teachers	C1_35	1.0	Hard	I1_10	60	Cleopatra was born in Greece	0.0	Yes	RIGHT	305.2034000002095	RIGHT	358.3338000003096	RIGHT	1207.0267000003696	LEFT	808.241100000032	36.400000000000006	0.4	Probable_Truth	RIGHT	RIGHT	6	540.5759999998736	72	2021-01-28 15:06:35.496301
131	Computer	S210128	0.8333333333333334	1	2	1	2	0.5	1000.000002	1066.6666688	2500.000005	1783.3333369	Major	Good_deeds	5	You have been sued	C1_5	0.65	Easy	I2_6	6	It takes 500 days to travel from Earth to Mars	0.0	No	RIGHT	343.5207000002265	RIGHT	825.39880000013	LEFT	899.7911999999815	RIGHT	1574.6969000001627	36.900000000000006	0.5	Probable_Truth	LEFT	RIGHT	5	570.4435083694675	73	2021-01-28 15:06:58.624568
85	Self	S210128	0.8333333333333334	1	2	2	1	0.6	1350.0000027	1000.000002	1933.3333372	1783.3333369	Minor	Good_deeds	6	You have taken part in burglary	C2_11	0.0	Hard	I1_54	29	There is typically 0.6 grams of mercury in glass thermometer	0.0	No	RIGHT	289.08270000010816	RIGHT	468.9328999997997	LEFT	912.3202000000674	RIGHT	1731.6965999998502	37.50000000000001	0.6	Probable_Truth	LEFT	LEFT	1	1394.6787999998378	74	2021-01-28 15:07:22.056337
90	Self	S210128	0.8333333333333334	2	1	1	2	0.8	1350.0000027	1350.0000027	2216.6666711000003	2216.6666711000003	Minor	Good_deeds	56	You have switched off appliances when not in use	C1_46	0.05	Easy	I2_3	35	Lehman Brothers went bankrupt on 20th September	0.0	Yes	RIGHT	1528.867700000319	RIGHT	600.8200999999644	RIGHT	1337.274100000286	RIGHT	2415.258900000026	38.3	0.8	Probable_Lie	RIGHT	RIGHT	1	639.6814999998242	75	2021-01-28 15:07:48.288449
130	Computer	S210128	0.8333333333333334	1	2	1	2	0.6	1433.3333362	1433.3333362	1650.0000033	2500.000005	Major	Wrong_doings	39	You have kidnapped someone	C2_35	0.95	Hard	I1_12	12	A triangle has three sides	0.0	Yes	RIGHT	336.76359999981287	RIGHT	560.4800999999497	LEFT	790.657999999894	RIGHT	911.6610999999466	38.900000000000006	0.6	Probable_Lie	RIGHT	LEFT	6	779.9928891486321	76	2021-01-28 15:08:11.256176
40	Self	S210128	0.8333333333333334	2	1	1	2	0.3	1000.000002	1216.6666691	2066.6666708	1500.000003	Major	Good_deeds	24	You have bought cigarettes for a minor	C2_10	0.7	Easy	I1_2	59	December is the last month of the year	0.666666666666667	No	RIGHT	1772.870100000091	RIGHT	441.5503000000172	LEFT	941.1761999999726	RIGHT	1311.7887000003066	39.2	0.3	Probable_Lie	RIGHT	RIGHT	1	1094.5125000002918	77	2021-01-28 15:08:35.175386
51	Self	S210128	0.5	1	2	1	2	0.7	1500.000003	1066.6666688	2500.000005	2066.6666708	Major	Wrong_doings	1	You have donated blood every 6 months for many years	C2_40	1.0	Easy	I1_15	38	There are 20 bones in the human skull	0.611111111111111	No	RIGHT	287.59539999964545	RIGHT	364.878299999873	RIGHT	1590.1160999997046	RIGHT	887.0333999998365	39.900000000000006	0.7	Probable_Truth	RIGHT	RIGHT	6	1105.0175000000309	78	2021-01-28 15:08:59.121160
109	Computer	S210128	0.5	2	1	2	1	0.5	1283.3333359	1000.000002	1933.3333372	1783.3333369	Major	Good_deeds	23	You have stopped using products tested on animals	C2_60	0.7	Easy	I2_1	3	Arabi is the oldest surviving breed of horse	0.0555555555555556	Yes	RIGHT	667.9030000000239	RIGHT	295.0289000000339	RIGHT	1383.4242000002632	LEFT	3346.2061999998696	40.400000000000006	0.5	Probable_Truth	RIGHT	LEFT	1	502.2927962044904	79	2021-01-28 15:09:23.879408
86	Self	S210128	0.8333333333333334	1	2	2	1	0.4	1283.3333359	1066.6666688	2500.000005	2350.0000047	Minor	Wrong_doings	49	You have cursed at others	C2_57	1.0	Easy	I1_29	54	South East Asia is currently free from polio	0.0	No	RIGHT	304.1894000002685	RIGHT	398.3250999999655	LEFT	831.8034000003536	RIGHT	2104.521700000077	40.8	0.4	Probable_Truth	LEFT	LEFT	1	1035.5085999999574	80	2021-01-28 15:09:48.328005
38	Self	S210128	0.8333333333333334	1	2	2	1	0.7	1000.000002	1000.000002	1500.000003	2350.0000047	Minor	Wrong_doings	23	You have watched an M18 movie when you were underage	C2_23	0.95	Hard	I1_44	24	Dutch is the 6th Europe's most widely spoken language	0.888888888888889	No	RIGHT	385.0636000001941	RIGHT	693.8072999996621	LEFT	1847.28449999966	RIGHT	1563.5331999997106	41.50000000000001	0.7	Probable_Lie	RIGHT	RIGHT	1	488.8298999999279	81	2021-01-28 15:10:11.735874
97	Computer	S210128	0.5	1	2	1	2	0.1	1350.0000027	1000.000002	2350.0000047	2350.0000047	Major	Wrong_doings	1	You have been donating all your excess food to a food bank	C2_47	0.75	Hard	I1_17	24	A caterpillar has more muscle than a human	0.0555555555555556	No	LEFT	783.1457000002047	LEFT	2595.085500000096	RIGHT	1339.0054999999847	LEFT	2111.4519000002474	41.50000000000001	0.1	Probable_Truth	LEFT	RIGHT	5	782.6890443195255	82	2021-01-28 15:10:38.977083
116	Computer	S210128	0.6666666666666666	1	2	2	1	0.1	1500.000003	1150.0000023	1650.0000033	2216.6666711000003	Major	Wrong_doings	39	You have provided shelter for stray animals	C2_8	0.5	Easy	I2_22	10	Singapore has four seasons	0.0	Yes	LEFT	569.0100000001621	RIGHT	724.2817999999716	RIGHT	1032.0711999997911	LEFT	1127.7918000000682	41.50000000000001	0.1	Probable_Truth	LEFT	LEFT	1	687.6434338459276	83	2021-01-28 15:11:02.200415
141	Computer	S210128	0.8333333333333334	2	1	2	1	0.7	1150.0000023	1433.3333362	2066.6666708	1500.000003	Minor	Good_deeds	16	You have let a homeless man into your house	C1_57	1.0	Hard	I1_4	4	It takes 112 years to build the Pisa Tower	0.0	Yes	RIGHT	467.9377000002205	RIGHT	313.22039999986373	RIGHT	878.883500000029	RIGHT	1141.3343999997778	42.20000000000001	0.7	Probable_Lie	LEFT	RIGHT	1	540.9093496935351	84	2021-01-28 15:11:24.255710
26	Self	S210128	0.6666666666666666	2	1	1	2	0.6	1500.000003	1150.0000023	2066.6666708	1933.3333372	Minor	Wrong_doings	45	You have blackmailed others for money	C2_24	1.0	Easy	I1_37	4	The Earth turns the closest to the sun in May	0.0	Yes	RIGHT	533.8313000002017	RIGHT	334.22710000013467	LEFT	836.7292000002635	RIGHT	1215.597400000206	42.80000000000001	0.6	Probable_Truth	RIGHT	RIGHT	6	716.4597000000867	85	2021-01-28 15:11:47.119415
134	Computer	S210128	0.8333333333333334	1	2	2	1	0.3	1216.6666691	1500.000003	1783.3333369	2216.6666711000003	Minor	Wrong_doings	23	You have watched an M18 movie when you were underage	C2_23	0.95	Hard	I1_44	24	Dutch is the 6th Europe's most widely spoken language	0.888888888888889	No	LEFT	680.7628999999906	RIGHT	514.8337000000538	LEFT	824.218700000074	RIGHT	1105.5744000000232	42.80000000000001	0.3	Probable_Lie	LEFT	LEFT	3	778.7677191237718	86	2021-01-28 15:12:10.313015
2	Self	S210128	0.5	1	2	1	2	0.1	1433.3333362	1433.3333362	1500.000003	1933.3333372	Major	Wrong_doings	47	You have followed instructions	C2_58	0.0	Easy	I2_45	17	There are 30 hours in a day	0.944444444444444	Yes	LEFT	617.2743000001901	LEFT	3884.657099999913	RIGHT	902.7181999999812	LEFT	1008.9232999998784	42.80000000000001	0.1	Probable_Lie	LEFT	RIGHT	2	1325.1790999997866	87	2021-01-28 15:12:36.919472
72	Self	S210128	0.6666666666666666	2	1	1	2	0.1	1066.6666688	1000.000002	2066.6666708	2216.6666711000003	Minor	Wrong_doings	58	You have sorted your trash into recycling bin	C2_52	0.05	Easy	I2_21	49	Africa is the continent with the least rainfall	0.944444444444444	Yes	RIGHT	485.6786000000284	RIGHT	320.5993999999919	RIGHT	1303.986299999906	RIGHT	2616.197800000009	42.90000000000001	0.1	Probable_Truth	RIGHT	RIGHT	6	764.7190999996383	88	2021-01-28 15:13:01.335865
108	Computer	S210128	0.5	2	1	2	1	0.4	1000.000002	1150.0000023	1783.3333369	1933.3333372	Minor	Wrong_doings	37	You have queued to enter the MRT train	C1_60	0.1	Easy	I2_28	21	There are 7 days in a week	0.777777777777778	Yes	RIGHT	551.3850000002094	RIGHT	284.67399999999543	RIGHT	1280.8115000002545	RIGHT	924.116199999844	43.30000000000001	0.4	Probable_Lie	RIGHT	RIGHT	2	834.029682500757	89	2021-01-28 15:13:23.648351
129	Computer	S210128	0.8333333333333334	1	2	1	2	0.7	1150.0000023	1000.000002	2350.0000047	2066.6666708	Major	Wrong_doings	3	You have said sorry when you were rude	C1_48	0.65	Easy	I2_26	41	Pyramid of Giza is 468 feet tall	0.611111111111111	No	RIGHT	264.4648000000416	RIGHT	428.4040000002278	RIGHT	1069.9578000003385	RIGHT	1055.9367999999267	44.000000000000014	0.7	Probable_Lie	LEFT	RIGHT	1	913.9481205562248	90	2021-01-28 15:13:46.520465
9	Self	S210128	0.5	2	1	1	2	0.2	1216.6666691	1283.3333359	1933.3333372	1933.3333372	Minor	Wrong_doings	60	You have engaged in drink-driving	C1_23	0.95	Hard	I1_3	41	The Amazon forest covers an area of 1 billion acres	0.0	No	LEFT	1588.750599999912	LEFT	1281.047199999648	LEFT	1173.6371000001782	RIGHT	1016.1135999996986	44.000000000000014	0.2	Probable_Lie	LEFT	RIGHT	3	1007.583699999941	91	2021-01-28 15:14:11.527755
78	Self	S210128	0.6666666666666666	2	1	2	1	0.4	1433.3333362	1500.000003	1783.3333369	1650.0000033	Major	Good_deeds	3	You have helped a friend in need	C1_58	0.0	Easy	I1_48	35	Mageirocophobia is a fear of deathly disease	0.0	No	RIGHT	577.3353999998108	RIGHT	377.1445000002132	RIGHT	863.8547999998991	LEFT	2839.422099999865	44.40000000000001	0.4	Probable_Truth	LEFT	LEFT	1	689.8979000002328	92	2021-01-28 15:14:35.815707
11	Self	S210128	0.5	2	1	1	2	0.6	1066.6666688	1216.6666691	1783.3333369	2350.0000047	Minor	Wrong_doings	27	You have made counterfeit money	C1_50	0.45	Easy	I2_41	1	Algeria is Africa's second largest country	0.888888888888889	Yes	RIGHT	507.60659999968993	RIGHT	296.3474999996833	LEFT	1035.620199999812	RIGHT	1256.1203999998725	45.000000000000014	0.6	Probable_Lie	RIGHT	RIGHT	3	889.8851999997532	93	2021-01-28 15:14:58.791410
71	Self	S210128	0.6666666666666666	1	2	2	1	0.1	1150.0000023	1500.000003	2216.6666711000003	1783.3333369	Minor	Good_deeds	38	You have sheltered others from disasters	C1_59	0.2	Hard	I1_1	13	Obama is the USA president now	0.0	Yes	RIGHT	864.2300999999861	LEFT	2119.358999999804	RIGHT	1360.2473999999347	LEFT	1569.8090999999297	44.90000000000001	0.1	Probable_Lie	RIGHT	RIGHT	2	653.5678000000189	94	2021-01-28 15:15:24.585154
6	Self	S210128	0.5	1	2	2	1	0.2	1000.000002	1283.3333359	1650.0000033	2500.000005	Major	Wrong_doings	11	You have lied to your parents	C1_8	0.95	Hard	I1_45	60	R. Amundsen discovered the South Pole	0.0555555555555556	No	RIGHT	271.9919000001028	RIGHT	639.8443999996744	LEFT	924.6898000001238	RIGHT	1598.9046999998209	45.100000000000016	0.2	Probable_Lie	LEFT	RIGHT	3	612.1224000003167	95	2021-01-28 15:15:47.639607
89	Self	S210128	0.8333333333333334	2	1	1	2	0.2	1283.3333359	1066.6666688	1500.000003	1783.3333369	Minor	Wrong_doings	36	You have been arrested	C2_56	0.9	Easy	I1_47	30	The first Olympic Games was held in the 5th century B.C	0.833333333333333	Yes	RIGHT	454.1831000001366	RIGHT	352.2083000002567	LEFT	754.9392999999327	RIGHT	1152.2549000001163	45.30000000000002	0.2	Probable_Lie	LEFT	LEFT	6	562.1667999998863	96	2021-01-28 15:16:35.744042
46	Self	S210128	0.8333333333333334	2	1	2	1	0.6	1216.6666691	1350.0000027	2500.000005	2066.6666708	Major	Good_deeds	57	You have kept your promises	C1_4	0.05	Easy	I2_18	38	It is night time now	0.0	No	RIGHT	348.5039000001961	RIGHT	303.32499999985885	RIGHT	655.3715000000011	LEFT	975.817200000165	45.90000000000002	0.6	Probable_Lie	RIGHT	RIGHT	1	689.0817000003153	97	2021-01-28 15:16:58.423964
59	Self	S210128	0.5	2	1	1	2	0.3	1216.6666691	1283.3333359	2216.6666711000003	2216.6666711000003	Minor	Good_deeds	17	You have started a movement to support a cause	C1_17	0.05	Hard	I2_2	13	Mexico's National Day is September 16	0.944444444444444	No	RIGHT	375.2610999999888	RIGHT	272.51939999996466	RIGHT	1095.7386000000042	RIGHT	1224.19519999994	46.20000000000002	0.3	Probable_Truth	RIGHT	LEFT	2	1188.5929000000033	98	2021-01-28 15:17:22.087453
77	Self	S210128	0.6666666666666666	2	1	2	1	0.8	1283.3333359	1216.6666691	2500.000005	1933.3333372	Major	Wrong_doings	52	You have volunteered for a disaster-related humanitarian mission	C2_25	1.0	Easy	I1_35	27	Singapore is a country	0.111111111111111	No	RIGHT	405.68290000010165	RIGHT	255.62289999970744	RIGHT	1087.3844999996436	RIGHT	750.3216000000066	47.000000000000014	0.8	Probable_Truth	RIGHT	RIGHT	3	488.814000000275	99	2021-01-28 15:17:44.583246
61	Self	S210128	0.5	2	1	2	1	0.1	1433.3333362	1350.0000027	2066.6666708	1650.0000033	Minor	Wrong_doings	54	You have participated in a scamming business	C2_26	1.0	Easy	I1_39	5	The hyoid bone is the only jointless bone	0.0	No	RIGHT	854.1763999996874	LEFT	832.3905000002014	LEFT	1055.2840999998807	RIGHT	1454.6054000002189	46.90000000000001	0.1	Probable_Lie	RIGHT	RIGHT	3	1374.1346000001613	100	2021-01-28 15:18:09.233102
106	Computer	S210128	0.5	2	1	1	2	0.2	1150.0000023	1433.3333362	1650.0000033	2216.6666711000003	Major	Good_deeds	60	You have coveted things that belong to others	C1_22	0.05	Hard	I1_46	31	It is snowing outside now	0.0	No	LEFT	754.9530999999661	LEFT	664.5121000001382	LEFT	1464.4869000003382	LEFT	695.8985000001121	46.90000000000001	0.2	Probable_Lie	RIGHT	RIGHT	1	773.07728320367	101	2021-01-28 15:18:32.598394
50	Self	S210128	0.5	1	2	1	2	0.5	1066.6666688	1500.000003	2350.0000047	2500.000005	Major	Good_deeds	40	You have organized a violent protest	C2_19	0.1	Easy	I1_25	25	Cernan was the second last man to walk on the Moon	1.0	Yes	RIGHT	320.4918000001271	RIGHT	594.5461999999679	LEFT	966.1426999996364	LEFT	4007.9000000000633	47.40000000000001	0.5	Probable_Lie	LEFT	RIGHT	1	878.0382999998437	102	2021-01-28 15:18:59.360129
123	Computer	S210128	0.6666666666666666	2	1	1	2	0.2	1283.3333359	1500.000003	2066.6666708	1500.000003	Minor	Wrong_doings	59	You have taken months off to volunteer	C1_30	0.55	Easy	I2_8	51	Fishes can swim in water	0.777777777777778	Yes	RIGHT	1805.4348999999088	RIGHT	352.56740000022546	RIGHT	1310.6031000002076	RIGHT	679.603600000064	47.600000000000016	0.2	Probable_Lie	RIGHT	RIGHT	1	636.9541827821832	103	2021-01-28 15:19:23.062395
21	Self	S210128	0.6666666666666666	1	2	2	1	0.1	1216.6666691	1433.3333362	1783.3333369	1783.3333369	Minor	Good_deeds	35	You have been physically hurt to protect others	C2_50	0.2	Hard	I2_60	22	Astatine is the rarest element in the Earth's crust	0.722222222222222	No	RIGHT	848.9125000000968	LEFT	2097.458299999744	RIGHT	2304.0554999997767	RIGHT	1295.7370999997693	47.500000000000014	0.1	Probable_Lie	RIGHT	RIGHT	1	1148.6494999999195	104	2021-01-28 15:19:49.551471
48	Self	S210128	0.5	1	2	1	2	0.2	1350.0000027	1283.3333359	1933.3333372	1783.3333369	Minor	Wrong_doings	29	You have given way to the handicapped	C1_37	1.0	Easy	I2_55	55	Nanyang Technological University is in Australia	0.0	Yes	RIGHT	328.64569999992455	RIGHT	420.4231999997319	RIGHT	1139.291499999672	LEFT	1223.7496999996438	47.70000000000002	0.2	Probable_Truth	RIGHT	RIGHT	6	794.2745999998806	105	2021-01-28 15:20:12.383631
42	Self	S210128	0.8333333333333334	2	1	1	2	0.4	1150.0000023	1000.000002	1783.3333369	2500.000005	Major	Wrong_doings	43	You have a non-judgmental attitude towards everyone	C2_16	0.0	Easy	I1_52	18	Septicemia is a lung infection condition	0.0	No	RIGHT	385.4064000001927	RIGHT	352.76199999998425	RIGHT	1373.3013999999455	RIGHT	1455.846500000007	48.100000000000016	0.4	Probable_Truth	LEFT	LEFT	1	2046.8074999998864	106	2021-01-28 15:20:37.007756
65	Self	S210128	0.6666666666666666	1	2	1	2	0.8	1350.0000027	1066.6666688	2350.0000047	2500.000005	Major	Good_deeds	59	You have illegally stayed in a country	C2_33	0.95	Easy	I2_16	16	Today is Sunday	0.666666666666667	No	RIGHT	280.2671999997983	RIGHT	379.1668999997455	LEFT	1115.319699999873	LEFT	1008.55219999994	48.90000000000001	0.8	Probable_Lie	LEFT	LEFT	4	701.8293000000995	107	2021-01-28 15:21:00.335263
3	Self	S210128	0.5	1	2	1	2	0.6	1350.0000027	1000.000002	2350.0000047	1500.000003	Major	Good_deeds	13	You have violated a traffic law	C2_13	0.95	Hard	I2_24	45	The Eiffel Tower is in Paris	0.0	Yes	RIGHT	295.7120000000941	RIGHT	411.5776999997252	LEFT	950.3187000000252	RIGHT	686.7520999999215	49.500000000000014	0.6	Probable_Truth	LEFT	RIGHT	6	535.439000000224	108	2021-01-28 15:21:21.991287
16	Self	S210128	0.6666666666666666	1	2	1	2	0.8	1500.000003	1283.3333359	2066.6666708	2066.6666708	Major	Wrong_doings	9	You have bribed a police officer	C2_39	0.45	Hard	I1_33	58	Acoustic Kitty refers to cat with implants	0.666666666666667	Yes	RIGHT	248.0776000002152	RIGHT	644.7386999998344	LEFT	759.0344000000186	LEFT	1590.8057999999985	50.30000000000001	0.8	Probable_Lie	LEFT	LEFT	6	872.2130000001016	109	2021-01-28 15:21:45.598885
96	Computer	S210128	0.5	1	2	1	2	0.7	1433.3333362	1216.6666691	1783.3333369	1650.0000033	Minor	Good_deeds	34	You have sold illegal drugs	C2_1	0.0	Hard	I1_60	27	Brazil is in South America	0.777777777777778	No	RIGHT	294.7610999999597	RIGHT	447.63600000032966	LEFT	808.5716000000502	RIGHT	721.0003000000142	51.000000000000014	0.7	Probable_Lie	RIGHT	RIGHT	1	887.7553133136705	110	2021-01-28 15:22:07.406801
75	Self	S210128	0.6666666666666666	2	1	1	2	0.2	1216.6666691	1283.3333359	1650.0000033	1783.3333369	Minor	Good_deeds	53	You have extorted money from anyone	C1_47	0.65	Hard	I2_52	36	Carnivore refers to meat-eater	0.833333333333333	No	RIGHT	1126.9381000001886	LEFT	648.1356999997843	LEFT	899.9395999999251	RIGHT	1095.8418999998685	50.80000000000001	0.2	Probable_Lie	LEFT	LEFT	5	1026.172200000019	111	2021-01-28 15:22:30.710598
68	Self	S210128	0.6666666666666666	1	2	2	1	0.6	1066.6666688	1283.3333359	2500.000005	1933.3333372	Major	Wrong_doings	9	You have said thank you when you have received help	C1_38	1.0	Hard	I1_36	40	Polish is 20th most spoken language in the World	0.666666666666667	No	RIGHT	305.16160000024684	RIGHT	603.9504999998826	RIGHT	1095.5952999997862	RIGHT	1678.357600000254	51.40000000000001	0.6	Probable_Truth	RIGHT	RIGHT	3	427.2252999999182	112	2021-01-28 15:22:54.175205
14	Self	S210128	0.5	2	1	2	1	0.7	1150.0000023	1000.000002	2500.000005	2500.000005	Major	Good_deeds	20	You have told someone's secret to others	C2_20	0.8	Hard	I1_31	33	"Statue of Liberty is 151 feet tall"	0.888888888888889	Yes	RIGHT	597.8067999999439	RIGHT	312.5519000000168	LEFT	1128.952500000196	RIGHT	996.6619000001627	52.100000000000016	0.7	Probable_Lie	LEFT	RIGHT	3	831.6869999998744	113	2021-01-28 15:23:17.766471
29	Self	S210128	0.6666666666666666	2	1	2	1	0.3	1433.3333362	1000.000002	1783.3333369	2066.6666708	Minor	Good_deeds	14	You have returned your trays in food courts	C2_59	1.0	Hard	I1_32	54	Saturn's rings are between 30 and 300 feet thick	0.944444444444444	Yes	RIGHT	3515.5172999998285	RIGHT	1215.9763000004205	RIGHT	912.09310000022	RIGHT	1710.290399999849	52.40000000000001	0.3	Probable_Lie	RIGHT	RIGHT	2	949.480499999936	114	2021-01-28 15:23:44.927592
37	Self	S210128	0.8333333333333334	1	2	2	1	0.3	1216.6666691	1283.3333359	2216.6666711000003	2066.6666708	Minor	Wrong_doings	35	You have deceived a loved one	C2_3	0.0	Hard	I1_41	12	Penguin can fly with their wings	0.944444444444444	Yes	RIGHT	272.16379999981655	RIGHT	366.38719999973546	LEFT	1343.458499999997	LEFT	926.8271000000824	52.70000000000001	0.3	Probable_Truth	LEFT	LEFT	1	520.5214000002343	115	2021-01-28 15:24:07.718536
79	Self	S210128	0.6666666666666666	2	1	2	1	0.7	1350.0000027	1433.3333362	1933.3333372	1500.000003	Major	Good_deeds	47	You have sign up to sponsor a needy child	C2_53	0.05	Hard	I2_36	48	The Franco-Prussian War occurred in the 19th century	0.111111111111111	Yes	RIGHT	427.7748999998039	RIGHT	257.2293000002901	RIGHT	1031.370600000173	RIGHT	1238.315600000078	53.40000000000001	0.7	Probable_Lie	LEFT	LEFT	5	1139.8442999998224	116	2021-01-28 15:24:30.606472
41	Self	S210128	0.8333333333333334	2	1	1	2	0.8	1500.000003	1283.3333359	1933.3333372	1650.0000033	Minor	Wrong_doings	33	You have made someone cry	C1_24	0.25	Hard	I2_59	52	Malay is one of the races in Singapore	1.0	Yes	RIGHT	442.1950000000834	RIGHT	248.46060000027137	LEFT	1073.1659000002765	RIGHT	1015.3807000001508	54.20000000000001	0.8	Probable_Lie	LEFT	LEFT	2	671.5902000000824	117	2021-01-28 15:24:52.998317
8	Self	S210128	0.5	2	1	1	2	0.4	1350.0000027	1500.000003	2350.0000047	2066.6666708	Minor	Wrong_doings	50	You have held the door open for a stranger	C2_27	0.0	Easy	I1_21	46	Last day of the year is 30th December	0.0555555555555556	No	RIGHT	4155.254100000093	RIGHT	848.3146000003217	RIGHT	1246.2143999996442	LEFT	1064.3620999999257	54.60000000000001	0.4	Probable_Lie	RIGHT	RIGHT	3	781.0349000001224	118	2021-01-28 15:25:20.935137
24	Self	S210128	0.6666666666666666	2	1	1	2	0.8	1066.6666688	1500.000003	1933.3333372	2500.000005	Minor	Good_deeds	24	You have confessed to your mistake	C2_2	0.0	Hard	I2_51	8	The first Grammy awards was held in 1959	0.0	No	RIGHT	378.3183000000463	RIGHT	312.9842000003009	RIGHT	1204.018599999927	RIGHT	847.4937999999383	55.400000000000006	0.8	Probable_Truth	RIGHT	RIGHT	6	1213.1765999997697	119	2021-01-28 15:25:44.471274
87	Self	S210128	0.8333333333333334	1	2	2	1	0.8	1433.3333362	1433.3333362	1500.000003	2216.6666711000003	Major	Wrong_doings	16	You have engaged in money laundering	C2_34	1.0	Easy	I2_42	40	The current century is 21st	0.777777777777778	Yes	RIGHT	322.03389999995125	RIGHT	387.83980000016527	LEFT	895.0677000002543	RIGHT	1354.632799999763	56.2	0.8	Probable_Truth	RIGHT	RIGHT	3	807.1971999997913	120	2021-01-28 15:26:07.391281
58	Self	S210128	0.5	2	1	1	2	0.5	1066.6666688	1000.000002	1650.0000033	2350.0000047	Minor	Wrong_doings	26	You have claimed doing things that you never did	C1_27	0.55	Easy	I1_9	9	Red is a color	0.0	No	RIGHT	727.1338999998989	LEFT	1112.782000000152	LEFT	2228.341399999863	RIGHT	720.9324000000379	55.7	0.5	Probable_Lie	RIGHT	LEFT	4	1106.8970000001173	121	2021-01-28 15:26:31.926383
44	Self	S210128	0.8333333333333334	2	1	2	1	0.7	1350.0000027	1433.3333362	1650.0000033	2216.6666711000003	Minor	Good_deeds	10	You have given directions to a lost tourist	C1_33	0.0	Easy	I2_23	2	Hot chocolate was created by the Mayan culture	0.0	Yes	RIGHT	367.3278999999639	RIGHT	312.68580000005386	RIGHT	1184.3905999999151	RIGHT	1467.1352999998817	56.400000000000006	0.7	Probable_Truth	LEFT	LEFT	1	575.0552000004063	122	2021-01-28 15:26:55.063838
101	Computer	S210128	0.5	1	2	2	1	0.6	1216.6666691	1433.3333362	2500.000005	2066.6666708	Minor	Good_deeds	53	You have taken responsibility for your actions	C1_11	0.1	Easy	I2_27	45	Feijoa is a type of grape	0.722222222222222	Yes	LEFT	703.4159999998337	RIGHT	589.3251000002238	RIGHT	829.8846000002413	LEFT	1383.9209999996456	56.400000000000006	0.6	Probable_Truth	RIGHT	LEFT	3	967.7285295884392	123	2021-01-28 15:27:19.327571
76	Self	S210128	0.6666666666666666	2	1	2	1	0.5	1000.000002	1066.6666688	2350.0000047	2066.6666708	Minor	Wrong_doings	7	You have stolen something	C2_7	0.85	Hard	I1_19	52	Cheese is an Asian staple	0.0	No	RIGHT	410.99309999981415	RIGHT	288.8996000001498	LEFT	1295.903200000339	LEFT	1968.118300000242	56.900000000000006	0.5	Probable_Truth	RIGHT	RIGHT	6	436.1426000000392	124	2021-01-28 15:27:42.782497
66	Self	S210128	0.6666666666666666	1	2	1	2	0.2	1500.000003	1150.0000023	2066.6666708	1500.000003	Minor	Good_deeds	7	You have borrowed things and never returned	C2_38	0.9	Easy	I1_14	36	Beef comes from cows	0.0	Yes	RIGHT	695.2895999997963	LEFT	1197.881999999936	LEFT	1669.8458999999275	RIGHT	848.4904000001734	56.7	0.2	Probable_Lie	RIGHT	RIGHT	2	718.2792000003246	125	2021-01-28 15:28:06.703235
142	Computer	S210128	0.8333333333333334	2	1	2	1	0.8	1283.3333359	1283.3333359	2350.0000047	2500.000005	Major	Good_deeds	57	You have kept your promises	C1_4	0.05	Easy	I2_18	38	It is night time now	0.0	No	RIGHT	811.2914999996974	RIGHT	328.9143000001786	LEFT	936.241500000051	LEFT	923.6902000002374	57.5	0.8	Probable_Lie	LEFT	RIGHT	1	808.6066093522143	126	2021-01-28 15:28:30.494359
121	Computer	S210128	0.6666666666666666	2	1	1	2	0.5	1000.000002	1350.0000027	1650.0000033	1650.0000033	Major	Good_deeds	30	You have pretended to be busy to avoid a social situation	C1_51	0.95	Easy	I2_4	32	A square has 3 corners	0.0555555555555556	No	LEFT	987.6070999998774	LEFT	897.0557999996345	LEFT	1834.2092000002597	LEFT	1496.3360000001558	57.5	0.5	Probable_Lie	RIGHT	RIGHT	2	743.4947367641552	127	2021-01-28 15:28:54.678523
54	Self	S210128	0.5	1	2	2	1	0.3	1433.3333362	1216.6666691	2216.6666711000003	1933.3333372	Minor	Wrong_doings	42	You have downloaded pirated movies	C1_1	0.7	Hard	I1_57	57	Fibers in oranges can be used to make fabric	0.0	Yes	RIGHT	297.31230000015785	RIGHT	416.3186999999198	LEFT	944.0933000000769	RIGHT	2507.7658999998675	57.8	0.3	Probable_Truth	LEFT	RIGHT	5	1116.717900000367	128	2021-01-28 15:29:19.334645
57	Self	S210128	0.5	2	1	1	2	0.7	1283.3333359	1216.6666691	2500.000005	1933.3333372	Major	Good_deeds	36	You have used a fake name online	C2_17	0.0	Easy	I2_5	31	Singapore ranked 8th in World's smallest countries	0.0	No	RIGHT	349.3763999999828	RIGHT	321.02690000010625	LEFT	1371.2298000000374	RIGHT	2784.4019000003755	58.5	0.7	Probable_Truth	RIGHT	RIGHT	6	711.6742000002887	129	2021-01-28 15:29:44.382747
132	Computer	S210128	0.8333333333333334	1	2	2	1	0.2	1283.3333359	1283.3333359	1933.3333372	1933.3333372	Major	Good_deeds	48	You have volunteered every week for many years	C2_48	0.15	Easy	I2_39	26	The hardest bone in human body is the jawbone	0.0	Yes	LEFT	831.5744999999879	LEFT	916.0695999999008	RIGHT	1119.1413999999895	RIGHT	1284.9923999997372	58.5	0.2	Probable_Truth	LEFT	RIGHT	2	876.2829438511856	130	2021-01-28 15:30:08.422897
55	Self	S210128	0.5	1	2	2	1	0.6	1150.0000023	1350.0000027	2066.6666708	1500.000003	Minor	Good_deeds	43	You have rescued others from a catastrophe	C2_18	0.05	Hard	I2_44	44	Chickens lay eggs	0.764705882352941	No	RIGHT	272.81479999965086	RIGHT	411.6622000001371	RIGHT	887.7748999998403	RIGHT	958.548999999948	59.1	0.6	Probable_Truth	LEFT	LEFT	2	1267.3132999998415	131	2021-01-28 15:30:30.862255
143	Computer	S210128	0.8333333333333334	2	1	2	1	0.6	1000.000002	1500.000003	2500.000005	1933.3333372	Major	Wrong_doings	46	You have been convicted in court	C2_43	0.95	Hard	I1_50	23	Slavery was abolished in Cuba in 1886	1.0	Yes	LEFT	1168.2186999996702	LEFT	680.4656000003888	LEFT	889.1910999996071	RIGHT	1139.7994999997536	59.1	0.6	Probable_Lie	RIGHT	RIGHT	1	795.1578193761168	132	2021-01-28 15:30:55.046328
64	Self	S210128	0.6666666666666666	1	2	1	2	0.5	1216.6666691	1350.0000027	1933.3333372	2350.0000047	Major	Wrong_doings	20	You have cheated on a national exam	C2_29	0.0	Easy	I2_34	42	Some owl species hunt fish	0.833333333333333	Yes	RIGHT	360.16049999989264	RIGHT	384.1308999999456	LEFT	1164.60300000017	RIGHT	1896.0885999999848	59.6	0.5	Probable_Truth	LEFT	LEFT	2	1183.9303000001564	133	2021-01-28 15:31:19.462186
12	Self	S210128	0.5	2	1	2	1	0.8	1433.3333362	1150.0000023	2066.6666708	1783.3333369	Minor	Wrong_doings	37	You have queued to enter the MRT train	C1_60	0.1	Easy	I2_28	21	There are 7 days in a week	0.777777777777778	Yes	LEFT	4630.113499999879	LEFT	3456.4792999999554	RIGHT	1136.1127000000124	RIGHT	963.6273999999504	59.6	0.8	Probable_Lie	LEFT	RIGHT	1	1521.2111999999252	134	2021-01-28 15:31:50.174849
91	Self	S210128	0.8333333333333334	2	1	1	2	0.5	1000.000002	1433.3333362	1783.3333369	2066.6666708	Major	Wrong_doings	28	You have taken part in violent demonstration	C2_36	0.0	Easy	I1_23	58	Mozambique is the world's poorest country	0.0555555555555556	No	RIGHT	442.8264999996827	RIGHT	280.2329999999529	LEFT	1110.5760999998893	RIGHT	1312.5113000000963	60.1	0.5	Probable_Truth	RIGHT	RIGHT	3	422.9860000000372	135	2021-01-28 15:32:12.598764
62	Self	S210128	0.5	2	1	2	1	0.2	1000.000002	1150.0000023	1933.3333372	2500.000005	Major	Good_deeds	31	You have intentionally let others cut in line	C2_31	0.0	Hard	I1_43	43	The sun rises at night	1.0	Yes	RIGHT	387.9081000000042	RIGHT	207.78509999991	Time_Max_Exceeded	5000.317399999858	LEFT	1679.030799999964	60.3	0.2	Probable_Truth	LEFT	LEFT	1	1295.6340999999156	136	2021-01-28 15:32:40.328061
33	Self	S210128	0.8333333333333334	1	2	1	2	0.1	1283.3333359	1066.6666688	1933.3333372	1783.3333369	Major	Wrong_doings	3	You have said sorry when you were rude	C1_48	0.65	Easy	I2_26	41	Pyramid of Giza is 468 feet tall	0.611111111111111	No	RIGHT	247.73099999993065	RIGHT	388.6367999998584	RIGHT	1322.346099999777	RIGHT	919.9700999997732	60.400000000000006	0.1	Probable_Truth	LEFT	LEFT	1	825.745900000129	137	2021-01-28 15:33:02.670632
4	Self	S210128	0.5	1	2	2	1	0.7	1216.6666691	1500.000003	2216.6666711000003	1783.3333369	Minor	Wrong_doings	58	You have bought cocaine	C1_53	0.0	Easy	I2_43	8	Singapore is a poor country	0.0	No	RIGHT	288.5087999998177	RIGHT	463.7726999999359	LEFT	735.5799999995725	LEFT	868.1989000001522	61.10000000000001	0.7	Probable_Truth	RIGHT	RIGHT	6	1138.329800000065	138	2021-01-28 15:33:25.454548
35	Self	S210128	0.8333333333333334	1	2	1	2	0.4	1150.0000023	1350.0000027	1783.3333369	1933.3333372	Major	Good_deeds	5	You have been sued	C1_5	0.65	Easy	I2_6	6	It takes 500 days to travel from Earth to Mars	0.0	No	RIGHT	327.0466999997552	RIGHT	338.8285999999425	LEFT	820.4299999997602	RIGHT	1265.0094999999055	61.50000000000001	0.4	Probable_Truth	LEFT	LEFT	1	615.646199999901	139	2021-01-28 15:33:47.614363
7	Self	S210128	0.5	1	2	2	1	0.3	1150.0000023	1350.0000027	2500.000005	2066.6666708	Minor	Good_deeds	8	You have signed up as a bone marrow donor	C1_34	1.0	Easy	I1_8	43	The Seine river is 50 feet above sea level	1.0	Yes	RIGHT	272.7052000000185	RIGHT	501.64760000006936	RIGHT	1087.4589000000014	RIGHT	1069.5215000000644	61.8	0.3	Probable_Truth	RIGHT	RIGHT	6	1018.070500000249	140	2021-01-28 15:34:11.207120
94	Self	S210128	0.8333333333333334	2	1	2	1	0.7	1433.3333362	1500.000003	1650.0000033	1500.000003	Minor	Good_deeds	15	You have faked an illness	C2_28	0.9	Hard	I1_5	23	Statute of Liberty is in New York	0.0555555555555556	No	RIGHT	382.7561000002788	RIGHT	1071.7326999997567	LEFT	1239.2791000002037	RIGHT	910.7889000001704	62.50000000000001	0.7	Probable_Truth	RIGHT	RIGHT	6	801.5202000001409	141	2021-01-28 15:34:34.270222
126	Computer	S210128	0.6666666666666666	2	1	2	1	0.1	1150.0000023	1066.6666688	1500.000003	2500.000005	Major	Wrong_doings	51	You have started a hotline for victims of bully	C1_45	0.05	Hard	I1_28	28	North Korea is more developed than South Korea	0.0	No	LEFT	1118.154400000094	LEFT	960.1960999998482	RIGHT	1366.7774000000463	LEFT	1294.178699999975	62.50000000000001	0.1	Probable_Lie	RIGHT	LEFT	5	647.9843588636162	142	2021-01-28 15:34:58.446435
124	Computer	S210128	0.6666666666666666	2	1	2	1	0.7	1066.6666688	1150.0000023	1783.3333369	2216.6666711000003	Major	Wrong_doings	45	You have assisted in a crime	C2_45	0.0	Easy	I1_11	37	There are 6000 spoken languages in the World	0.888888888888889	Yes	LEFT	767.403800000011	LEFT	1119.2243000000417	LEFT	799.8081999999158	RIGHT	1561.6930999999568	62.50000000000001	0.7	Probable_Truth	LEFT	RIGHT	4	808.5408714900866	143	2021-01-28 15:35:22.286724
