"Participant"	"Task"	"Stimulus_Side"	"Response"	"RT"	"ITI"	"Previous_Response"	"Previous_RT"	"Stop_Signal"	"Stop_Signal_RT"	"Conflict"	"Cue_Response"	"Cue_Response_RT"	"Trial_Onset"	"Trial_End"	"Trial_Order"	"Duration"
"S210128"	"Conflict_Resolution"	"RIGHT"	"RIGHT"	499.50780000006	1183.3333357	n/a	n/a	n/a	n/a	"False"	n/a	n/a	"2021-01-28 14:14:03.786344"	"2021-01-28 14:14:04.493421"	1	6.4869486
"S210128"	"Conflict_Resolution"	"RIGHT"	"Time_Max_Exceeded"	1500.05729999998	1100.0000022	n/a	n/a	n/a	n/a	"True"	n/a	n/a	"2021-01-28 14:14:05.612632"	"2021-01-28 14:14:07.112101"	2	6.4869486
"S210128"	"Conflict_Resolution"	"RIGHT"	"RIGHT"	572.314399999982	533.3333344	n/a	n/a	n/a	n/a	"False"	n/a	n/a	"2021-01-28 14:14:07.665292"	"2021-01-28 14:14:08.445370"	3	6.4869486
"S210128"	"Conflict_Resolution"	"LEFT"	"LEFT"	437.965899999995	766.6666682	n/a	n/a	n/a	n/a	"False"	n/a	n/a	"2021-01-28 14:14:09.232228"	"2021-01-28 14:14:09.878841"	4	6.4869486
"S210128"	"Conflict_Resolution"	"RIGHT"	"RIGHT"	576.305600000069	900.0000018	n/a	n/a	n/a	n/a	"False"	n/a	n/a	"2021-01-28 14:14:10.797395"	"2021-01-28 14:14:11.581842"	5	6.4869486
"S210128"	"Conflict_Resolution"	"RIGHT"	"RIGHT"	1005.5582	1383.3333361	n/a	n/a	n/a	n/a	"True"	n/a	n/a	"2021-01-28 14:14:12.983749"	"2021-01-28 14:14:14.197475"	6	6.4869486
"S210128"	"Conflict_Resolution"	"LEFT"	"LEFT"	726.577799999973	1366.6666694	n/a	n/a	n/a	n/a	"True"	n/a	n/a	"2021-01-28 14:14:15.583369"	"2021-01-28 14:14:16.516988"	7	6.4869486
"S210128"	"Conflict_Resolution"	"LEFT"	"LEFT"	471.146900000008	1166.666669	n/a	n/a	n/a	n/a	"False"	n/a	n/a	"2021-01-28 14:14:17.702840"	"2021-01-28 14:14:18.381141"	8	6.4869486
"S210128"	"Conflict_Resolution"	"LEFT"	"LEFT"	413.01569999996	616.6666679	n/a	n/a	n/a	n/a	"False"	n/a	n/a	"2021-01-28 14:14:19.017108"	"2021-01-28 14:14:19.638657"	9	6.4869486
"S210128"	"Conflict_Resolution"	"RIGHT"	"RIGHT"	375.115899999969	950.0000019	n/a	n/a	n/a	n/a	"False"	n/a	n/a	"2021-01-28 14:14:20.606435"	"2021-01-28 14:14:21.189140"	10	6.4869486
"S210128"	"Conflict_Resolution"	"RIGHT"	"RIGHT"	459.345799999937	650.0000013	n/a	n/a	n/a	n/a	"False"	n/a	n/a	"2021-01-28 14:14:21.857932"	"2021-01-28 14:14:22.525928"	11	6.4869486
"S210128"	"Conflict_Resolution"	"LEFT"	"LEFT"	439.781499999981	1116.6666689	n/a	n/a	n/a	n/a	"False"	n/a	n/a	"2021-01-28 14:14:23.662442"	"2021-01-28 14:14:24.309148"	12	6.4869486
"S210128"	"Conflict_Resolution"	"LEFT"	"LEFT"	783.229200000051	1150.0000023	n/a	n/a	n/a	n/a	"True"	n/a	n/a	"2021-01-28 14:14:25.478588"	"2021-01-28 14:14:26.470634"	13	6.4869486
"S210128"	"Conflict_Resolution"	"RIGHT"	"RIGHT"	634.686299999998	633.3333346	n/a	n/a	n/a	n/a	"True"	n/a	n/a	"2021-01-28 14:14:27.122878"	"2021-01-28 14:14:27.966767"	14	6.4869486
"S210128"	"Conflict_Resolution"	"RIGHT"	"RIGHT"	607.497899999998	1316.6666693	n/a	n/a	n/a	n/a	"True"	n/a	n/a	"2021-01-28 14:14:29.302492"	"2021-01-28 14:14:30.117701"	15	6.4869486
"S210128"	"Conflict_Resolution"	"LEFT"	"LEFT"	540.495800000031	566.6666678	n/a	n/a	n/a	n/a	"False"	n/a	n/a	"2021-01-28 14:14:30.705132"	"2021-01-28 14:14:31.453510"	16	6.4869486
"S210128"	"Conflict_Resolution"	"LEFT"	"LEFT"	381.383099999994	1150.0000023	n/a	n/a	n/a	n/a	"False"	n/a	n/a	"2021-01-28 14:14:32.623955"	"2021-01-28 14:14:33.213125"	17	6.4869486
"S210128"	"Conflict_Resolution"	"LEFT"	"LEFT"	805.267400000048	1416.6666695	n/a	n/a	n/a	n/a	"True"	n/a	n/a	"2021-01-28 14:14:34.647987"	"2021-01-28 14:14:35.662050"	18	6.4869486
"S210128"	"Conflict_Resolution"	"LEFT"	"LEFT"	582.923699999924	1316.6666693	n/a	n/a	n/a	n/a	"True"	n/a	n/a	"2021-01-28 14:14:36.999064"	"2021-01-28 14:14:37.789029"	19	6.4869486
"S210128"	"Conflict_Resolution"	"RIGHT"	"RIGHT"	515.508899999986	700.0000014	n/a	n/a	n/a	n/a	"False"	n/a	n/a	"2021-01-28 14:14:38.505742"	"2021-01-28 14:14:39.229312"	20	6.4869486
"S210128"	"Conflict_Resolution"	"LEFT"	"LEFT"	452.30509999999	1200.0000024	n/a	n/a	n/a	n/a	"False"	n/a	n/a	"2021-01-28 14:14:40.449568"	"2021-01-28 14:14:41.109440"	21	6.4869486
"S210128"	"Conflict_Resolution"	"LEFT"	"LEFT"	389.789300000075	783.3333349	n/a	n/a	n/a	n/a	"False"	n/a	n/a	"2021-01-28 14:14:41.911595"	"2021-01-28 14:14:42.508942"	22	6.4869486
"S210128"	"Conflict_Resolution"	"LEFT"	"LEFT"	353.591199999983	1450.0000029	n/a	n/a	n/a	n/a	"False"	n/a	n/a	"2021-01-28 14:14:43.979562"	"2021-01-28 14:14:44.541758"	23	6.4869486
"S210128"	"Conflict_Resolution"	"LEFT"	"LEFT"	575.445399999921	1100.0000022	n/a	n/a	n/a	n/a	"True"	n/a	n/a	"2021-01-28 14:14:45.662396"	"2021-01-28 14:14:46.446826"	24	6.4869486
"S210128"	"Conflict_Resolution"	"RIGHT"	"RIGHT"	633.473900000013	500.000001	n/a	n/a	n/a	n/a	"True"	n/a	n/a	"2021-01-28 14:14:46.964483"	"2021-01-28 14:14:47.805287"	25	6.4869486
"S210128"	"Conflict_Resolution"	"RIGHT"	"RIGHT"	638.990499999977	750.0000015	n/a	n/a	n/a	n/a	"True"	n/a	n/a	"2021-01-28 14:14:48.574735"	"2021-01-28 14:14:49.421904"	26	6.4869486
"S210128"	"Conflict_Resolution"	"LEFT"	"LEFT"	508.351800000014	1200.0000024	n/a	n/a	n/a	n/a	"True"	n/a	n/a	"2021-01-28 14:14:50.641201"	"2021-01-28 14:14:51.357851"	27	6.4869486
"S210128"	"Conflict_Resolution"	"LEFT"	"LEFT"	429.722799999922	1016.6666687	n/a	n/a	n/a	n/a	"False"	n/a	n/a	"2021-01-28 14:14:52.391555"	"2021-01-28 14:14:53.029906"	28	6.4869486
"S210128"	"Conflict_Resolution"	"RIGHT"	"RIGHT"	605.233799999951	783.3333349	n/a	n/a	n/a	n/a	"True"	n/a	n/a	"2021-01-28 14:14:53.832222"	"2021-01-28 14:14:54.645225"	29	6.4869486
"S210128"	"Conflict_Resolution"	"RIGHT"	"RIGHT"	506.944799999928	1266.6666692	n/a	n/a	n/a	n/a	"True"	n/a	n/a	"2021-01-28 14:14:55.930777"	"2021-01-28 14:14:56.645124"	30	6.4869486
"S210128"	"Conflict_Resolution"	"LEFT"	"LEFT"	502.00719999998	583.3333345	n/a	n/a	n/a	n/a	"True"	n/a	n/a	"2021-01-28 14:14:57.248053"	"2021-01-28 14:14:57.957920"	31	6.4869486
"S210128"	"Conflict_Resolution"	"RIGHT"	"RIGHT"	497.370499999988	683.3333347	n/a	n/a	n/a	n/a	"False"	n/a	n/a	"2021-01-28 14:14:58.660023"	"2021-01-28 14:14:59.364977"	32	6.4869486
"S210128"	"Conflict_Resolution"	"RIGHT"	"RIGHT"	674.13190000002	733.3333348	n/a	n/a	n/a	n/a	"True"	n/a	n/a	"2021-01-28 14:15:00.116166"	"2021-01-28 14:15:00.998145"	33	6.4869486
"S210128"	"Conflict_Resolution"	"LEFT"	"LEFT"	425.068600000031	916.6666685	n/a	n/a	n/a	n/a	"False"	n/a	n/a	"2021-01-28 14:15:01.932213"	"2021-01-28 14:15:02.565822"	34	6.4869486
"S210128"	"Conflict_Resolution"	"RIGHT"	"RIGHT"	470.441499999993	550.0000011	n/a	n/a	n/a	n/a	"False"	n/a	n/a	"2021-01-28 14:15:03.135377"	"2021-01-28 14:15:03.813167"	35	6.4869486
"S210128"	"Conflict_Resolution"	"LEFT"	"LEFT"	495.004200000039	1166.666669	n/a	n/a	n/a	n/a	"True"	n/a	n/a	"2021-01-28 14:15:04.998380"	"2021-01-28 14:15:05.701291"	36	6.4869486
"S210128"	"Conflict_Resolution"	"LEFT"	"LEFT"	442.238900000007	666.666668	n/a	n/a	n/a	n/a	"True"	n/a	n/a	"2021-01-28 14:15:06.387590"	"2021-01-28 14:15:07.037400"	37	6.4869486
"S210128"	"Conflict_Resolution"	"RIGHT"	"RIGHT"	347.750499999961	800.0000016	n/a	n/a	n/a	n/a	"False"	n/a	n/a	"2021-01-28 14:15:07.857463"	"2021-01-28 14:15:08.413036"	38	6.4869486
"S210128"	"Conflict_Resolution"	"RIGHT"	"RIGHT"	448.160099999996	733.3333348	n/a	n/a	n/a	n/a	"False"	n/a	n/a	"2021-01-28 14:15:09.166058"	"2021-01-28 14:15:09.822609"	39	6.4869486
"S210128"	"Conflict_Resolution"	"LEFT"	"LEFT"	404.701699999919	1416.6666695	n/a	n/a	n/a	n/a	"False"	n/a	n/a	"2021-01-28 14:15:11.257350"	"2021-01-28 14:15:11.869283"	40	6.4869486
"S210128"	"Conflict_Resolution"	"LEFT"	"LEFT"	346.436100000005	683.3333347	n/a	n/a	n/a	n/a	"False"	n/a	n/a	"2021-01-28 14:15:12.571415"	"2021-01-28 14:15:13.126561"	41	6.4869486
"S210128"	"Conflict_Resolution"	"RIGHT"	"RIGHT"	429.689100000019	750.0000015	n/a	n/a	n/a	n/a	"False"	n/a	n/a	"2021-01-28 14:15:13.895570"	"2021-01-28 14:15:14.533811"	42	6.4869486
"S210128"	"Conflict_Resolution"	"RIGHT"	"LEFT"	412.535599999956	650.0000013	n/a	n/a	n/a	n/a	"True"	n/a	n/a	"2021-01-28 14:15:15.201516"	"2021-01-28 14:15:15.821043"	43	6.4869486
"S210128"	"Conflict_Resolution"	"LEFT"	"LEFT"	465.464899999915	900.0000018	n/a	n/a	n/a	n/a	"False"	n/a	n/a	"2021-01-28 14:15:16.739721"	"2021-01-28 14:15:17.414795"	44	6.4869486
"S210128"	"Conflict_Resolution"	"RIGHT"	"RIGHT"	422.068699999954	983.3333353	n/a	n/a	n/a	n/a	"False"	n/a	n/a	"2021-01-28 14:15:18.415225"	"2021-01-28 14:15:19.045889"	45	6.4869486
"S210128"	"Conflict_Resolution"	"LEFT"	"LEFT"	537.843100000032	1116.6666689	n/a	n/a	n/a	n/a	"True"	n/a	n/a	"2021-01-28 14:15:20.180149"	"2021-01-28 14:15:20.925253"	46	6.4869486
"S210128"	"Conflict_Resolution"	"RIGHT"	"RIGHT"	466.06589999999	1283.3333359	n/a	n/a	n/a	n/a	"False"	n/a	n/a	"2021-01-28 14:15:22.227594"	"2021-01-28 14:15:22.901245"	47	6.4869486
"S210128"	"Conflict_Resolution"	"RIGHT"	"RIGHT"	378.934400000048	1266.6666692	n/a	n/a	n/a	n/a	"False"	n/a	n/a	"2021-01-28 14:15:24.186447"	"2021-01-28 14:15:24.774881"	48	6.4869486
"S210128"	"Conflict_Resolution"	"LEFT"	"LEFT"	560.526399999958	916.6666685	n/a	n/a	n/a	n/a	"True"	n/a	n/a	"2021-01-28 14:15:25.709421"	"2021-01-28 14:15:26.478639"	49	6.4869486
"S210128"	"Conflict_Resolution"	"RIGHT"	"RIGHT"	571.252600000093	833.333335	n/a	n/a	n/a	n/a	"True"	n/a	n/a	"2021-01-28 14:15:27.330955"	"2021-01-28 14:15:28.110109"	50	6.4869486
"S210128"	"Conflict_Resolution"	"LEFT"	"LEFT"	551.427199999921	533.3333344	n/a	n/a	n/a	n/a	"True"	n/a	n/a	"2021-01-28 14:15:28.662653"	"2021-01-28 14:15:29.421001"	51	6.4869486
"S210128"	"Conflict_Resolution"	"LEFT"	"LEFT"	636.41419999999	866.6666684	n/a	n/a	n/a	n/a	"True"	n/a	n/a	"2021-01-28 14:15:30.304734"	"2021-01-28 14:15:31.149581"	52	6.4869486
"S210128"	"Conflict_Resolution"	"RIGHT"	"RIGHT"	515.134699999976	1466.6666696	n/a	n/a	n/a	n/a	"True"	n/a	n/a	"2021-01-28 14:15:32.634743"	"2021-01-28 14:15:33.358417"	53	6.4869486
"S210128"	"Conflict_Resolution"	"LEFT"	"LEFT"	464.459999999917	516.6666677	n/a	n/a	n/a	n/a	"False"	n/a	n/a	"2021-01-28 14:15:33.894058"	"2021-01-28 14:15:34.567006"	54	6.4869486
"S210128"	"Conflict_Resolution"	"LEFT"	"LEFT"	448.921900000073	1266.6666692	n/a	n/a	n/a	n/a	"False"	n/a	n/a	"2021-01-28 14:15:35.852849"	"2021-01-28 14:15:36.509268"	55	6.4869486
"S210128"	"Conflict_Resolution"	"LEFT"	"LEFT"	646.472300000028	566.6666678	n/a	n/a	n/a	n/a	"True"	n/a	n/a	"2021-01-28 14:15:37.095442"	"2021-01-28 14:15:37.949157"	56	6.4869486
"S210128"	"Conflict_Resolution"	"LEFT"	"LEFT"	490.962299999978	1066.6666688	n/a	n/a	n/a	n/a	"True"	n/a	n/a	"2021-01-28 14:15:39.035019"	"2021-01-28 14:15:39.733696"	57	6.4869486
"S210128"	"Conflict_Resolution"	"RIGHT"	"RIGHT"	451.868900000022	633.3333346	n/a	n/a	n/a	n/a	"False"	n/a	n/a	"2021-01-28 14:15:40.385955"	"2021-01-28 14:15:41.045203"	58	6.4869486
"S210128"	"Conflict_Resolution"	"RIGHT"	"RIGHT"	574.25939999996	800.0000016	n/a	n/a	n/a	n/a	"True"	n/a	n/a	"2021-01-28 14:15:41.864619"	"2021-01-28 14:15:42.646615"	59	6.4869486
"S210128"	"Conflict_Resolution"	"LEFT"	"LEFT"	649.984300000028	1050.0000021	n/a	n/a	n/a	n/a	"False"	n/a	n/a	"2021-01-28 14:15:43.716125"	"2021-01-28 14:15:44.574093"	60	6.4869486
"S210128"	"Conflict_Resolution"	"RIGHT"	"RIGHT"	534.967499999993	1133.3333356	n/a	n/a	n/a	n/a	"True"	n/a	n/a	"2021-01-28 14:15:45.726344"	"2021-01-28 14:15:46.470765"	61	6.4869486
"S210128"	"Conflict_Resolution"	"LEFT"	"LEFT"	653.530400000022	1400.0000028	n/a	n/a	n/a	n/a	"True"	n/a	n/a	"2021-01-28 14:15:47.888145"	"2021-01-28 14:15:48.749793"	62	6.4869486
"S210128"	"Conflict_Resolution"	"LEFT"	"LEFT"	493.634699999916	1400.0000028	n/a	n/a	n/a	n/a	"False"	n/a	n/a	"2021-01-28 14:15:50.168178"	"2021-01-28 14:15:50.869465"	63	6.4869486
"S210128"	"Conflict_Resolution"	"RIGHT"	"RIGHT"	512.539899999979	1316.6666693	n/a	n/a	n/a	n/a	"False"	n/a	n/a	"2021-01-28 14:15:52.205306"	"2021-01-28 14:15:52.925632"	64	6.4869486
"S210128"	"Conflict_Resolution"	"LEFT"	"LEFT"	495.584800000074	516.6666677	n/a	n/a	n/a	n/a	"True"	n/a	n/a	"2021-01-28 14:15:53.461801"	"2021-01-28 14:15:54.165917"	65	6.4869486
"S210128"	"Conflict_Resolution"	"RIGHT"	"RIGHT"	420.718399999942	1000.000002	n/a	n/a	n/a	n/a	"False"	n/a	n/a	"2021-01-28 14:15:55.184996"	"2021-01-28 14:15:55.813290"	66	6.4869486
"S210128"	"Conflict_Resolution"	"LEFT"	"LEFT"	718.704099999968	1366.6666694	n/a	n/a	n/a	n/a	"False"	n/a	n/a	"2021-01-28 14:15:57.199264"	"2021-01-28 14:15:58.125091"	67	6.4869486
"S210128"	"Conflict_Resolution"	"LEFT"	"LEFT"	438.911599999983	1000.000002	n/a	n/a	n/a	n/a	"False"	n/a	n/a	"2021-01-28 14:15:59.143079"	"2021-01-28 14:15:59.789343"	68	6.4869486
"S210128"	"Conflict_Resolution"	"RIGHT"	"RIGHT"	423.067800000013	1366.6666694	n/a	n/a	n/a	n/a	"False"	n/a	n/a	"2021-01-28 14:16:01.174701"	"2021-01-28 14:16:01.805754"	69	6.4869486
"S210128"	"Conflict_Resolution"	"LEFT"	"LEFT"	392.563400000085	1300.0000026	n/a	n/a	n/a	n/a	"False"	n/a	n/a	"2021-01-28 14:16:03.125420"	"2021-01-28 14:16:03.725373"	70	6.4869486
"S210128"	"Conflict_Resolution"	"RIGHT"	"RIGHT"	404.229600000008	1033.3333354	n/a	n/a	n/a	n/a	"False"	n/a	n/a	"2021-01-28 14:16:04.777150"	"2021-01-28 14:16:05.389259"	71	6.4869486
"S210128"	"Conflict_Resolution"	"RIGHT"	"RIGHT"	567.725199999927	933.3333352	n/a	n/a	n/a	n/a	"True"	n/a	n/a	"2021-01-28 14:16:06.342288"	"2021-01-28 14:16:07.117028"	72	6.4869486
"S210128"	"Conflict_Resolution"	"RIGHT"	"RIGHT"	649.766699999986	1333.333336	n/a	n/a	n/a	n/a	"True"	n/a	n/a	"2021-01-28 14:16:08.467635"	"2021-01-28 14:16:09.325839"	73	6.4869486
"S210128"	"Conflict_Resolution"	"LEFT"	"LEFT"	438.830100000018	733.3333348	n/a	n/a	n/a	n/a	"False"	n/a	n/a	"2021-01-28 14:16:10.078976"	"2021-01-28 14:16:10.725687"	74	6.4869486
"S210128"	"Conflict_Resolution"	"RIGHT"	"RIGHT"	433.498700000087	1483.3333363	n/a	n/a	n/a	n/a	"False"	n/a	n/a	"2021-01-28 14:16:12.228009"	"2021-01-28 14:16:12.868639"	75	6.4869486
"S210128"	"Conflict_Resolution"	"LEFT"	"LEFT"	435.884199999919	633.3333346	n/a	n/a	n/a	n/a	"False"	n/a	n/a	"2021-01-28 14:16:13.522146"	"2021-01-28 14:16:14.165588"	76	6.4869486
"S210128"	"Conflict_Resolution"	"LEFT"	"LEFT"	865.837700000043	716.6666681	n/a	n/a	n/a	n/a	"True"	n/a	n/a	"2021-01-28 14:16:14.900879"	"2021-01-28 14:16:15.974276"	77	6.4869486
"S210128"	"Conflict_Resolution"	"RIGHT"	"RIGHT"	564.430799999968	1033.3333354	n/a	n/a	n/a	n/a	"True"	n/a	n/a	"2021-01-28 14:16:17.024971"	"2021-01-28 14:16:17.797841"	78	6.4869486
"S210128"	"Conflict_Resolution"	"LEFT"	"LEFT"	393.357500000093	1466.6666696	n/a	n/a	n/a	n/a	"False"	n/a	n/a	"2021-01-28 14:16:19.284212"	"2021-01-28 14:16:19.886932"	79	6.4869486
"S210128"	"Conflict_Resolution"	"LEFT"	"LEFT"	530.455800000027	1266.6666692	n/a	n/a	n/a	n/a	"True"	n/a	n/a	"2021-01-28 14:16:21.171147"	"2021-01-28 14:16:21.909540"	80	6.4869486
"S210128"	"Conflict_Resolution"	"RIGHT"	"RIGHT"	591.339299999959	550.0000011	n/a	n/a	n/a	n/a	"True"	n/a	n/a	"2021-01-28 14:16:22.478026"	"2021-01-28 14:16:23.277392"	81	6.4869486
"S210128"	"Conflict_Resolution"	"RIGHT"	"RIGHT"	521.742700000004	1416.6666695	n/a	n/a	n/a	n/a	"True"	n/a	n/a	"2021-01-28 14:16:24.715768"	"2021-01-28 14:16:25.445812"	82	6.4869486
"S210128"	"Conflict_Resolution"	"LEFT"	"LEFT"	569.021000000021	1500.000003	n/a	n/a	n/a	n/a	"True"	n/a	n/a	"2021-01-28 14:16:26.964022"	"2021-01-28 14:16:27.740961"	83	6.4869486
"S210128"	"Conflict_Resolution"	"LEFT"	"LEFT"	392.644000000018	1500.000003	n/a	n/a	n/a	n/a	"False"	n/a	n/a	"2021-01-28 14:16:29.260469"	"2021-01-28 14:16:29.861457"	84	6.4869486
"S210128"	"Conflict_Resolution"	"RIGHT"	"RIGHT"	584.832499999948	950.0000019	n/a	n/a	n/a	n/a	"True"	n/a	n/a	"2021-01-28 14:16:30.828938"	"2021-01-28 14:16:31.621199"	85	6.4869486
"S210128"	"Conflict_Resolution"	"RIGHT"	"RIGHT"	525.045399999954	983.3333353	n/a	n/a	n/a	n/a	"True"	n/a	n/a	"2021-01-28 14:16:32.624716"	"2021-01-28 14:16:33.358639"	86	6.4869486
"S210128"	"Conflict_Resolution"	"LEFT"	"LEFT"	527.817700000014	1300.0000026	n/a	n/a	n/a	n/a	"True"	n/a	n/a	"2021-01-28 14:16:34.677252"	"2021-01-28 14:16:35.413239"	87	6.4869486
"S210128"	"Conflict_Resolution"	"RIGHT"	"RIGHT"	412.897300000054	1216.6666691	n/a	n/a	n/a	n/a	"False"	n/a	n/a	"2021-01-28 14:16:36.648683"	"2021-01-28 14:16:37.269630"	88	6.4869486
"S210128"	"Conflict_Resolution"	"RIGHT"	"RIGHT"	428.56340000003	1433.3333362	n/a	n/a	n/a	n/a	"False"	n/a	n/a	"2021-01-28 14:16:38.721398"	"2021-01-28 14:16:39.357648"	89	6.4869486
"S210128"	"Conflict_Resolution"	"LEFT"	"LEFT"	499.997200000053	1216.6666691	n/a	n/a	n/a	n/a	"True"	n/a	n/a	"2021-01-28 14:16:40.593816"	"2021-01-28 14:16:41.301744"	90	6.4869486
"S210128"	"Conflict_Resolution"	"LEFT"	"LEFT"	506.883099999982	1450.0000029	n/a	n/a	n/a	n/a	"True"	n/a	n/a	"2021-01-28 14:16:42.771014"	"2021-01-28 14:16:43.485655"	91	6.4869486
"S210128"	"Conflict_Resolution"	"RIGHT"	"RIGHT"	410.562400000003	1466.6666696	n/a	n/a	n/a	n/a	"False"	n/a	n/a	"2021-01-28 14:16:44.970845"	"2021-01-28 14:16:45.590782"	92	6.4869486
"S210128"	"Conflict_Resolution"	"RIGHT"	"RIGHT"	507.625899999994	1000.000002	n/a	n/a	n/a	n/a	"True"	n/a	n/a	"2021-01-28 14:16:46.609592"	"2021-01-28 14:16:47.325509"	93	6.4869486
"S210128"	"Conflict_Resolution"	"LEFT"	"LEFT"	411.728400000015	866.6666684	n/a	n/a	n/a	n/a	"False"	n/a	n/a	"2021-01-28 14:16:48.209756"	"2021-01-28 14:16:48.829719"	94	6.4869486
"S210128"	"Conflict_Resolution"	"RIGHT"	"RIGHT"	541.117099999951	600.0000012	n/a	n/a	n/a	n/a	"True"	n/a	n/a	"2021-01-28 14:16:49.449063"	"2021-01-28 14:16:50.197153"	95	6.4869486
"S210128"	"Conflict_Resolution"	"LEFT"	"LEFT"	394.822800000043	1066.6666688	n/a	n/a	n/a	n/a	"False"	n/a	n/a	"2021-01-28 14:16:51.282857"	"2021-01-28 14:16:51.885778"	96	6.4869486
"S210128"	"Conflict_Resolution"	"LEFT"	"LEFT"	508.591199999955	816.6666683	n/a	n/a	n/a	n/a	"True"	n/a	n/a	"2021-01-28 14:16:52.721107"	"2021-01-28 14:16:53.437030"	97	6.4869486
"S210128"	"Conflict_Resolution"	"RIGHT"	"RIGHT"	435.091299999954	500.000001	n/a	n/a	n/a	n/a	"False"	n/a	n/a	"2021-01-28 14:16:53.954295"	"2021-01-28 14:16:54.597675"	98	6.4869486
"S210128"	"Conflict_Resolution"	"RIGHT"	"RIGHT"	560.838599999897	683.3333347	n/a	n/a	n/a	n/a	"True"	n/a	n/a	"2021-01-28 14:16:55.300836"	"2021-01-28 14:16:56.069002"	99	6.4869486
"S210128"	"Conflict_Resolution"	"RIGHT"	"RIGHT"	429.856400000062	1233.3333358	n/a	n/a	n/a	n/a	"False"	n/a	n/a	"2021-01-28 14:16:57.319747"	"2021-01-28 14:16:57.956387"	100	6.4869486
"S210128"	"Conflict_Resolution"	"LEFT"	"LEFT"	487.909500000114	966.6666686	n/a	n/a	n/a	n/a	"True"	n/a	n/a	"2021-01-28 14:16:58.942018"	"2021-01-28 14:16:59.637161"	101	6.4869486
"S210128"	"Conflict_Resolution"	"LEFT"	"LEFT"	536.678100000017	900.0000018	n/a	n/a	n/a	n/a	"True"	n/a	n/a	"2021-01-28 14:17:00.557216"	"2021-01-28 14:17:01.302075"	102	6.4869486
"S210128"	"Conflict_Resolution"	"LEFT"	"LEFT"	526.714900000115	1350.0000027	n/a	n/a	n/a	n/a	"True"	n/a	n/a	"2021-01-28 14:17:02.670672"	"2021-01-28 14:17:03.406823"	103	6.4869486
"S210128"	"Conflict_Resolution"	"RIGHT"	"RIGHT"	546.010399999886	1233.3333358	n/a	n/a	n/a	n/a	"True"	n/a	n/a	"2021-01-28 14:17:04.659287"	"2021-01-28 14:17:05.413021"	104	6.4869486
"S210128"	"Conflict_Resolution"	"LEFT"	"LEFT"	445.867099999987	583.3333345	n/a	n/a	n/a	n/a	"False"	n/a	n/a	"2021-01-28 14:17:06.015418"	"2021-01-28 14:17:06.669452"	105	6.4869486
"S210128"	"Conflict_Resolution"	"LEFT"	"LEFT"	436.257699999942	816.6666683	n/a	n/a	n/a	n/a	"False"	n/a	n/a	"2021-01-28 14:17:07.505473"	"2021-01-28 14:17:08.149082"	106	6.4869486
"S210128"	"Conflict_Resolution"	"RIGHT"	"RIGHT"	663.830799999914	533.3333344	n/a	n/a	n/a	n/a	"True"	n/a	n/a	"2021-01-28 14:17:08.702020"	"2021-01-28 14:17:09.573412"	107	6.4869486
"S210128"	"Conflict_Resolution"	"RIGHT"	"RIGHT"	601.893999999902	1083.3333355	n/a	n/a	n/a	n/a	"True"	n/a	n/a	"2021-01-28 14:17:10.676050"	"2021-01-28 14:17:11.487393"	108	6.4869486
"S210128"	"Conflict_Resolution"	"RIGHT"	"RIGHT"	397.617900000114	1333.333336	n/a	n/a	n/a	n/a	"False"	n/a	n/a	"2021-01-28 14:17:12.840476"	"2021-01-28 14:17:13.445871"	109	6.4869486
"S210128"	"Conflict_Resolution"	"RIGHT"	"RIGHT"	393.071499999905	883.3333351	n/a	n/a	n/a	n/a	"False"	n/a	n/a	"2021-01-28 14:17:14.348647"	"2021-01-28 14:17:14.949597"	110	6.4869486
"S210128"	"Conflict_Resolution"	"RIGHT"	"RIGHT"	324.204900000041	850.0000017	n/a	n/a	n/a	n/a	"False"	n/a	n/a	"2021-01-28 14:17:15.817391"	"2021-01-28 14:17:16.349624"	111	6.4869486
"S210128"	"Conflict_Resolution"	"LEFT"	"LEFT"	581.311200000073	633.3333346	n/a	n/a	n/a	n/a	"True"	n/a	n/a	"2021-01-28 14:17:17.000003"	"2021-01-28 14:17:17.789739"	112	6.4869486
"S210128"	"Conflict_Resolution"	"RIGHT"	"RIGHT"	477.571399999988	583.3333345	n/a	n/a	n/a	n/a	"True"	n/a	n/a	"2021-01-28 14:17:18.391828"	"2021-01-28 14:17:19.078902"	113	6.4869486
"S210128"	"Conflict_Resolution"	"LEFT"	"LEFT"	773.192599999902	783.3333349	n/a	n/a	n/a	n/a	"True"	n/a	n/a	"2021-01-28 14:17:19.879922"	"2021-01-28 14:17:20.861871"	114	6.4869486
"S210128"	"Conflict_Resolution"	"RIGHT"	"RIGHT"	420.691799999986	833.333335	n/a	n/a	n/a	n/a	"False"	n/a	n/a	"2021-01-28 14:17:21.713262"	"2021-01-28 14:17:22.341581"	115	6.4869486
"S210128"	"Conflict_Resolution"	"RIGHT"	"RIGHT"	645.951699999841	1216.6666691	n/a	n/a	n/a	n/a	"True"	n/a	n/a	"2021-01-28 14:17:23.575558"	"2021-01-28 14:17:24.429872"	116	6.4869486
"S210128"	"Conflict_Resolution"	"RIGHT"	"RIGHT"	400.352999999996	1083.3333355	n/a	n/a	n/a	n/a	"False"	n/a	n/a	"2021-01-28 14:17:25.532952"	"2021-01-28 14:17:26.140618"	117	6.4869486
"S210128"	"Conflict_Resolution"	"LEFT"	"LEFT"	526.055099999894	1000.000002	n/a	n/a	n/a	n/a	"True"	n/a	n/a	"2021-01-28 14:17:27.159106"	"2021-01-28 14:17:27.893067"	118	6.4869486
"S210128"	"Conflict_Resolution"	"LEFT"	"LEFT"	375.920499999893	1350.0000027	n/a	n/a	n/a	n/a	"False"	n/a	n/a	"2021-01-28 14:17:29.261251"	"2021-01-28 14:17:29.845687"	119	6.4869486
"S210128"	"Conflict_Resolution"	"RIGHT"	"RIGHT"	493.621200000007	1366.6666694	n/a	n/a	n/a	n/a	"True"	n/a	n/a	"2021-01-28 14:17:31.232239"	"2021-01-28 14:17:31.933865"	120	6.4869486
"S210128"	"Conflict_Resolution"	"RIGHT"	"RIGHT"	586.880300000075	1283.3333359	n/a	n/a	n/a	n/a	"True"	n/a	n/a	"2021-01-28 14:17:33.234504"	"2021-01-28 14:17:34.029704"	121	6.4869486
"S210128"	"Conflict_Resolution"	"RIGHT"	"RIGHT"	433.747699999913	700.0000014	n/a	n/a	n/a	n/a	"True"	n/a	n/a	"2021-01-28 14:17:34.747987"	"2021-01-28 14:17:35.389773"	122	6.4869486
"S210128"	"Conflict_Resolution"	"LEFT"	"LEFT"	456.677500000069	666.666668	n/a	n/a	n/a	n/a	"False"	n/a	n/a	"2021-01-28 14:17:36.076270"	"2021-01-28 14:17:36.741490"	123	6.4869486
"S210128"	"Conflict_Resolution"	"LEFT"	"LEFT"	784.501300000102	683.3333347	n/a	n/a	n/a	n/a	"True"	n/a	n/a	"2021-01-28 14:17:37.445468"	"2021-01-28 14:17:38.437749"	124	6.4869486
"S210128"	"Conflict_Resolution"	"RIGHT"	"RIGHT"	477.06160000007	933.3333352	n/a	n/a	n/a	n/a	"False"	n/a	n/a	"2021-01-28 14:17:39.392832"	"2021-01-28 14:17:40.077951"	125	6.4869486
"S210128"	"Conflict_Resolution"	"RIGHT"	"RIGHT"	554.440299999897	850.0000017	n/a	n/a	n/a	n/a	"True"	n/a	n/a	"2021-01-28 14:17:40.946956"	"2021-01-28 14:17:41.709750"	126	6.4869486
"S210128"	"Conflict_Resolution"	"LEFT"	"LEFT"	625.9735000001	1466.6666696	n/a	n/a	n/a	n/a	"True"	n/a	n/a	"2021-01-28 14:17:43.195941"	"2021-01-28 14:17:44.029869"	127	6.4869486
"S210128"	"Conflict_Resolution"	"LEFT"	"LEFT"	376.447699999972	1100.0000022	n/a	n/a	n/a	n/a	"False"	n/a	n/a	"2021-01-28 14:17:45.149338"	"2021-01-28 14:17:45.733344"	128	6.4869486
"S210128"	"Conflict_Resolution"	"LEFT"	"LEFT"	396.509199999855	1216.6666691	n/a	n/a	n/a	n/a	"False"	n/a	n/a	"2021-01-28 14:17:46.968659"	"2021-01-28 14:17:47.574622"	129	6.4869486
"S210128"	"Conflict_Resolution"	"LEFT"	"LEFT"	414.998900000001	716.6666681	n/a	n/a	n/a	n/a	"False"	n/a	n/a	"2021-01-28 14:17:48.310708"	"2021-01-28 14:17:48.933334"	130	6.4869486
"S210128"	"Conflict_Resolution"	"LEFT"	"LEFT"	533.590499999946	616.6666679	n/a	n/a	n/a	n/a	"True"	n/a	n/a	"2021-01-28 14:17:49.568073"	"2021-01-28 14:17:50.309648"	131	6.4869486
"S210128"	"Conflict_Resolution"	"LEFT"	"LEFT"	327.362800000174	950.0000019	n/a	n/a	n/a	n/a	"False"	n/a	n/a	"2021-01-28 14:17:51.279477"	"2021-01-28 14:17:51.814026"	132	6.4869486
"S210128"	"Conflict_Resolution"	"RIGHT"	"RIGHT"	563.754200000176	1050.0000021	n/a	n/a	n/a	n/a	"False"	n/a	n/a	"2021-01-28 14:17:52.881994"	"2021-01-28 14:17:53.653899"	133	6.4869486
"S210128"	"Conflict_Resolution"	"RIGHT"	"RIGHT"	533.299299999953	1183.3333357	n/a	n/a	n/a	n/a	"True"	n/a	n/a	"2021-01-28 14:17:54.856655"	"2021-01-28 14:17:55.597669"	134	6.4869486
"S210128"	"Conflict_Resolution"	"LEFT"	"LEFT"	482.872199999974	1050.0000021	n/a	n/a	n/a	n/a	"True"	n/a	n/a	"2021-01-28 14:17:56.666202"	"2021-01-28 14:17:57.357370"	135	6.4869486
"S210128"	"Conflict_Resolution"	"LEFT"	"LEFT"	684.592800000019	850.0000017	n/a	n/a	n/a	n/a	"False"	n/a	n/a	"2021-01-28 14:17:58.224919"	"2021-01-28 14:17:59.117037"	136	6.4869486
"S210128"	"Conflict_Resolution"	"LEFT"	"LEFT"	697.325700000192	850.0000017	n/a	n/a	n/a	n/a	"True"	n/a	n/a	"2021-01-28 14:17:59.988145"	"2021-01-28 14:18:00.893837"	137	6.4869486
"S210128"	"Conflict_Resolution"	"LEFT"	"LEFT"	373.633499999869	966.6666686	n/a	n/a	n/a	n/a	"False"	n/a	n/a	"2021-01-28 14:18:01.879865"	"2021-01-28 14:18:02.461777"	138	6.4869486
"S210128"	"Conflict_Resolution"	"RIGHT"	"RIGHT"	423.223499999949	1133.3333356	n/a	n/a	n/a	n/a	"False"	n/a	n/a	"2021-01-28 14:18:03.613856"	"2021-01-28 14:18:04.245164"	139	6.4869486
"S210128"	"Conflict_Resolution"	"RIGHT"	"RIGHT"	406.946199999993	1100.0000022	n/a	n/a	n/a	n/a	"False"	n/a	n/a	"2021-01-28 14:18:05.366145"	"2021-01-28 14:18:05.981489"	140	6.4869486
"S210128"	"Conflict_Resolution"	"RIGHT"	"RIGHT"	407.033499999898	1383.3333361	n/a	n/a	n/a	n/a	"False"	n/a	n/a	"2021-01-28 14:18:07.382311"	"2021-01-28 14:18:07.996989"	141	6.4869486
"S210128"	"Conflict_Resolution"	"RIGHT"	"RIGHT"	580.415099999982	1433.3333362	n/a	n/a	n/a	n/a	"True"	n/a	n/a	"2021-01-28 14:18:09.448896"	"2021-01-28 14:18:10.236493"	142	6.4869486
"S210128"	"Conflict_Resolution"	"RIGHT"	"RIGHT"	442.449800000077	883.3333351	n/a	n/a	n/a	n/a	"True"	n/a	n/a	"2021-01-28 14:18:11.138635"	"2021-01-28 14:18:11.789124"	143	6.4869486
"S210128"	"Conflict_Resolution"	"RIGHT"	"RIGHT"	605.251100000032	600.0000012	n/a	n/a	n/a	n/a	"False"	n/a	n/a	"2021-01-28 14:18:12.408061"	"2021-01-28 14:18:13.220546"	144	6.4869486
"S210128"	"Conflict_Resolution"	"RIGHT"	"RIGHT"	382.23220000009	783.3333349	n/a	n/a	n/a	n/a	"False"	n/a	n/a	"2021-01-28 14:18:14.023038"	"2021-01-28 14:18:14.613478"	145	6.4869486
"S210128"	"Conflict_Resolution"	"RIGHT"	"RIGHT"	552.716400000008	1483.3333363	n/a	n/a	n/a	n/a	"True"	n/a	n/a	"2021-01-28 14:18:16.116783"	"2021-01-28 14:18:16.877462"	146	6.4869486
"S210128"	"Conflict_Resolution"	"LEFT"	"LEFT"	570.309400000042	1250.0000025	n/a	n/a	n/a	n/a	"True"	n/a	n/a	"2021-01-28 14:18:18.146973"	"2021-01-28 14:18:18.924970"	147	6.4869486
"S210128"	"Conflict_Resolution"	"LEFT"	"LEFT"	418.749899999966	1250.0000025	n/a	n/a	n/a	n/a	"False"	n/a	n/a	"2021-01-28 14:18:20.194288"	"2021-01-28 14:18:20.821391"	148	6.4869486
"S210128"	"Conflict_Resolution"	"RIGHT"	"RIGHT"	461.824200000137	583.3333345	n/a	n/a	n/a	n/a	"False"	n/a	n/a	"2021-01-28 14:18:21.423780"	"2021-01-28 14:18:22.093921"	149	6.4869486
"S210128"	"Conflict_Resolution"	"LEFT"	"LEFT"	461.866699999973	533.3333344	n/a	n/a	n/a	n/a	"False"	n/a	n/a	"2021-01-28 14:18:22.647845"	"2021-01-28 14:18:23.317066"	150	6.4869486
"S210128"	"Conflict_Resolution"	"LEFT"	"LEFT"	573.554599999852	1016.6666687	n/a	n/a	n/a	n/a	"True"	n/a	n/a	"2021-01-28 14:18:24.351335"	"2021-01-28 14:18:25.133870"	151	6.4869486
"S210128"	"Conflict_Resolution"	"RIGHT"	"RIGHT"	451.909999999998	1416.6666695	n/a	n/a	n/a	n/a	"False"	n/a	n/a	"2021-01-28 14:18:26.569723"	"2021-01-28 14:18:27.228991"	152	6.4869486
"S210128"	"Conflict_Resolution"	"LEFT"	"LEFT"	512.413400000014	950.0000019	n/a	n/a	n/a	n/a	"True"	n/a	n/a	"2021-01-28 14:18:28.197311"	"2021-01-28 14:18:28.917181"	153	6.4869486
"S210128"	"Conflict_Resolution"	"LEFT"	"LEFT"	487.900100000161	733.3333348	n/a	n/a	n/a	n/a	"True"	n/a	n/a	"2021-01-28 14:18:29.669346"	"2021-01-28 14:18:30.365655"	154	6.4869486
"S210128"	"Conflict_Resolution"	"RIGHT"	"RIGHT"	530.714500000158	1050.0000021	n/a	n/a	n/a	n/a	"True"	n/a	n/a	"2021-01-28 14:18:31.434799"	"2021-01-28 14:18:32.173857"	155	6.4869486
"S210128"	"Conflict_Resolution"	"LEFT"	"LEFT"	401.145399999905	1316.6666693	n/a	n/a	n/a	n/a	"False"	n/a	n/a	"2021-01-28 14:18:33.508549"	"2021-01-28 14:18:34.118478"	156	6.4869486
"S210128"	"Conflict_Resolution"	"RIGHT"	"RIGHT"	406.092800000124	1150.0000023	n/a	n/a	n/a	n/a	"False"	n/a	n/a	"2021-01-28 14:18:35.287216"	"2021-01-28 14:18:35.902244"	157	6.4869486
"S210128"	"Conflict_Resolution"	"RIGHT"	"RIGHT"	535.522299999911	1150.0000023	n/a	n/a	n/a	n/a	"True"	n/a	n/a	"2021-01-28 14:18:37.069780"	"2021-01-28 14:18:37.814545"	158	6.4869486
"S210128"	"Conflict_Resolution"	"RIGHT"	"RIGHT"	510.654799999884	900.0000018	n/a	n/a	n/a	n/a	"True"	n/a	n/a	"2021-01-28 14:18:38.735117"	"2021-01-28 14:18:39.453338"	159	6.4869486
"S210128"	"Conflict_Resolution"	"LEFT"	"LEFT"	622.69809999998	766.6666682	n/a	n/a	n/a	n/a	"True"	n/a	n/a	"2021-01-28 14:18:40.239256"	"2021-01-28 14:18:41.069438"	160	6.4869486
"S210128"	"Processing_Speed"	"LEFT"	"Time_Max_Exceeded"	1500.06470000001	1300.0000026	""	n/a	n/a	n/a	n/a	n/a	n/a	"2021-01-28 14:01:57.032299"	"2021-01-28 14:01:58.555694"	1	2.25824098333333
"S210128"	"Processing_Speed"	"RIGHT"	"DOWN"	292.594499999979	1150.0000023	""	n/a	n/a	n/a	n/a	n/a	n/a	"2021-01-28 14:01:59.714240"	"2021-01-28 14:02:00.217452"	2	2.25824098333333
"S210128"	"Processing_Speed"	"RIGHT"	"DOWN"	324.957399999988	1183.3333357	""	n/a	n/a	n/a	n/a	n/a	n/a	"2021-01-28 14:02:01.409783"	"2021-01-28 14:02:01.942681"	3	2.25824098333333
"S210128"	"Processing_Speed"	"LEFT"	"DOWN"	288.699199999996	566.6666678	""	n/a	n/a	n/a	n/a	n/a	n/a	"2021-01-28 14:02:02.518178"	"2021-01-28 14:02:03.014387"	4	2.25824098333333
"S210128"	"Processing_Speed"	"LEFT"	"DOWN"	324.130099999991	883.3333351	""	n/a	n/a	n/a	n/a	n/a	n/a	"2021-01-28 14:02:03.906656"	"2021-01-28 14:02:04.438635"	5	2.25824098333333
"S210128"	"Processing_Speed"	"LEFT"	"DOWN"	272.327700000005	1366.6666694	""	n/a	n/a	n/a	n/a	n/a	n/a	"2021-01-28 14:02:05.814656"	"2021-01-28 14:02:06.294235"	6	2.25824098333333
"S210128"	"Processing_Speed"	"RIGHT"	"DOWN"	282.825700000018	533.3333344	""	n/a	n/a	n/a	n/a	n/a	n/a	"2021-01-28 14:02:06.835830"	"2021-01-28 14:02:07.327515"	7	2.25824098333333
"S210128"	"Processing_Speed"	"LEFT"	"DOWN"	255.316599999986	983.3333353	""	n/a	n/a	n/a	n/a	n/a	n/a	"2021-01-28 14:02:08.319018"	"2021-01-28 14:02:08.782079"	8	2.25824098333333
"S210128"	"Processing_Speed"	"LEFT"	"DOWN"	259.425000000022	533.3333344	""	n/a	n/a	n/a	n/a	n/a	n/a	"2021-01-28 14:02:09.324193"	"2021-01-28 14:02:09.791354"	9	2.25824098333333
"S210128"	"Processing_Speed"	"LEFT"	"DOWN"	242.391400000002	500.000001	""	n/a	n/a	n/a	n/a	n/a	n/a	"2021-01-28 14:02:10.300625"	"2021-01-28 14:02:10.751376"	10	2.25824098333333
"S210128"	"Processing_Speed"	"LEFT"	"DOWN"	245.517500000005	1433.3333362	""	n/a	n/a	n/a	n/a	n/a	n/a	"2021-01-28 14:02:12.192681"	"2021-01-28 14:02:12.646482"	11	2.25824098333333
"S210128"	"Processing_Speed"	"LEFT"	"DOWN"	249.333400000012	733.3333348	""	n/a	n/a	n/a	n/a	n/a	n/a	"2021-01-28 14:02:13.389725"	"2021-01-28 14:02:13.847914"	12	2.25824098333333
"S210128"	"Processing_Speed"	"RIGHT"	"DOWN"	226.357299999989	883.3333351	""	n/a	n/a	n/a	n/a	n/a	n/a	"2021-01-28 14:02:14.739760"	"2021-01-28 14:02:15.174607"	13	2.25824098333333
"S210128"	"Processing_Speed"	"RIGHT"	"DOWN"	248.625400000009	1366.6666694	""	n/a	n/a	n/a	n/a	n/a	n/a	"2021-01-28 14:02:16.550343"	"2021-01-28 14:02:17.006250"	14	2.25824098333333
"S210128"	"Processing_Speed"	"LEFT"	"DOWN"	273.033400000003	1150.0000023	""	n/a	n/a	n/a	n/a	n/a	n/a	"2021-01-28 14:02:18.165959"	"2021-01-28 14:02:18.646674"	15	2.25824098333333
"S210128"	"Processing_Speed"	"LEFT"	"DOWN"	251.651699999996	700.0000014	""	n/a	n/a	n/a	n/a	n/a	n/a	"2021-01-28 14:02:19.354854"	"2021-01-28 14:02:19.814661"	16	2.25824098333333
"S210128"	"Processing_Speed"	"RIGHT"	"DOWN"	251.119999999986	666.666668	""	n/a	n/a	n/a	n/a	n/a	n/a	"2021-01-28 14:02:20.491412"	"2021-01-28 14:02:20.950072"	17	2.25824098333333
"S210128"	"Processing_Speed"	"LEFT"	"DOWN"	244.391199999995	1083.3333355	""	n/a	n/a	n/a	n/a	n/a	n/a	"2021-01-28 14:02:22.042313"	"2021-01-28 14:02:22.494070"	18	2.25824098333333
"S210128"	"Processing_Speed"	"LEFT"	"DOWN"	216.635400000001	783.3333349	""	n/a	n/a	n/a	n/a	n/a	n/a	"2021-01-28 14:02:23.286057"	"2021-01-28 14:02:23.710480"	19	2.25824098333333
"S210128"	"Processing_Speed"	"RIGHT"	"DOWN"	223.581600000017	600.0000012	""	n/a	n/a	n/a	n/a	n/a	n/a	"2021-01-28 14:02:24.318854"	"2021-01-28 14:02:24.750843"	20	2.25824098333333
"S210128"	"Processing_Speed"	"RIGHT"	"DOWN"	301.279700000009	850.0000017	""	n/a	n/a	n/a	n/a	n/a	n/a	"2021-01-28 14:02:25.609727"	"2021-01-28 14:02:26.119361"	21	2.25824098333333
"S210128"	"Processing_Speed"	"RIGHT"	"DOWN"	273.908000000006	916.6666685	""	n/a	n/a	n/a	n/a	n/a	n/a	"2021-01-28 14:02:27.044843"	"2021-01-28 14:02:27.527583"	22	2.25824098333333
"S210128"	"Processing_Speed"	"RIGHT"	"DOWN"	257.178900000014	1333.333336	""	n/a	n/a	n/a	n/a	n/a	n/a	"2021-01-28 14:02:28.869023"	"2021-01-28 14:02:29.334777"	23	2.25824098333333
"S210128"	"Processing_Speed"	"LEFT"	"DOWN"	198.724800000008	816.6666683	""	n/a	n/a	n/a	n/a	n/a	n/a	"2021-01-28 14:02:30.159619"	"2021-01-28 14:02:30.566212"	24	2.25824098333333
"S210128"	"Processing_Speed"	"RIGHT"	"DOWN"	232.465300000001	983.3333353	""	n/a	n/a	n/a	n/a	n/a	n/a	"2021-01-28 14:02:31.557630"	"2021-01-28 14:02:31.998262"	25	2.25824098333333
"S210128"	"Processing_Speed"	"RIGHT"	"DOWN"	251.631700000019	1300.0000026	""	n/a	n/a	n/a	n/a	n/a	n/a	"2021-01-28 14:02:33.306389"	"2021-01-28 14:02:33.767625"	26	2.25824098333333
"S210128"	"Processing_Speed"	"RIGHT"	"DOWN"	228.680400000002	1216.6666691	""	n/a	n/a	n/a	n/a	n/a	n/a	"2021-01-28 14:02:34.993924"	"2021-01-28 14:02:35.430766"	27	2.25824098333333
"S210128"	"Processing_Speed"	"LEFT"	"DOWN"	229.247499999985	850.0000017	""	n/a	n/a	n/a	n/a	n/a	n/a	"2021-01-28 14:02:36.289100"	"2021-01-28 14:02:36.726563"	28	2.25824098333333
"S210128"	"Processing_Speed"	"LEFT"	"DOWN"	238.496599999991	633.3333346	""	n/a	n/a	n/a	n/a	n/a	n/a	"2021-01-28 14:02:37.368518"	"2021-01-28 14:02:37.814919"	29	2.25824098333333
"S210128"	"Processing_Speed"	"RIGHT"	"DOWN"	225.42279999999	733.3333348	""	n/a	n/a	n/a	n/a	n/a	n/a	"2021-01-28 14:02:38.557146"	"2021-01-28 14:02:38.990663"	30	2.25824098333333
"S210128"	"Processing_Speed"	"RIGHT"	"DOWN"	268.574899999976	1466.6666696	""	n/a	n/a	n/a	n/a	n/a	n/a	"2021-01-28 14:02:40.465504"	"2021-01-28 14:02:40.941297"	31	2.25824098333333
"S210128"	"Processing_Speed"	"RIGHT"	"DOWN"	246.759299999979	1050.0000021	""	n/a	n/a	n/a	n/a	n/a	n/a	"2021-01-28 14:02:41.999655"	"2021-01-28 14:02:42.454270"	32	2.25824098333333
"S210128"	"Processing_Speed"	"RIGHT"	"DOWN"	329.282599999999	566.6666678	""	n/a	n/a	n/a	n/a	n/a	n/a	"2021-01-28 14:02:43.029766"	"2021-01-28 14:02:43.566459"	33	2.25824098333333
"S210128"	"Processing_Speed"	"LEFT"	"DOWN"	324.921500000016	1466.6666696	"DOWN"	-543.546	n/a	n/a	n/a	n/a	n/a	"2021-01-28 14:02:45.041598"	"2021-01-28 14:02:45.575720"	34	2.25824098333333
"S210128"	"Processing_Speed"	"LEFT"	"DOWN"	275.396799999982	666.666668	""	n/a	n/a	n/a	n/a	n/a	n/a	"2021-01-28 14:02:46.250992"	"2021-01-28 14:02:46.734697"	35	2.25824098333333
"S210128"	"Processing_Speed"	"LEFT"	"DOWN"	254.740400000003	1216.6666691	""	n/a	n/a	n/a	n/a	n/a	n/a	"2021-01-28 14:02:47.959456"	"2021-01-28 14:02:48.421221"	36	2.25824098333333
"S210128"	"Processing_Speed"	"LEFT"	"DOWN"	310.12960000001	1266.6666692	""	n/a	n/a	n/a	n/a	n/a	n/a	"2021-01-28 14:02:49.695949"	"2021-01-28 14:02:50.214560"	37	2.25824098333333
"S210128"	"Processing_Speed"	"RIGHT"	"DOWN"	222.871999999995	1016.6666687	""	n/a	n/a	n/a	n/a	n/a	n/a	"2021-01-28 14:02:51.239980"	"2021-01-28 14:02:51.670116"	38	2.25824098333333
"S210128"	"Processing_Speed"	"RIGHT"	"DOWN"	281.250499999999	950.0000019	""	n/a	n/a	n/a	n/a	n/a	n/a	"2021-01-28 14:02:52.628828"	"2021-01-28 14:02:53.118332"	39	2.25824098333333
"S210128"	"Processing_Speed"	"LEFT"	"DOWN"	241.650499999992	950.0000019	""	n/a	n/a	n/a	n/a	n/a	n/a	"2021-01-28 14:02:54.077151"	"2021-01-28 14:02:54.526570"	40	2.25824098333333
"S210128"	"Processing_Speed"	"LEFT"	"DOWN"	256.479600000006	1333.333336	""	n/a	n/a	n/a	n/a	n/a	n/a	"2021-01-28 14:02:55.869853"	"2021-01-28 14:02:56.334914"	41	2.25824098333333
"S210128"	"Processing_Speed"	"RIGHT"	"DOWN"	286.66530000001	1400.0000028	""	n/a	n/a	n/a	n/a	n/a	n/a	"2021-01-28 14:02:57.744332"	"2021-01-28 14:02:58.238759"	42	2.25824098333333
"S210128"	"Processing_Speed"	"LEFT"	"DOWN"	233.447600000005	1116.6666689	""	n/a	n/a	n/a	n/a	n/a	n/a	"2021-01-28 14:02:59.364870"	"2021-01-28 14:02:59.806255"	43	2.25824098333333
"S210128"	"Processing_Speed"	"RIGHT"	"DOWN"	243.814299999997	700.0000014	""	n/a	n/a	n/a	n/a	n/a	n/a	"2021-01-28 14:03:00.514416"	"2021-01-28 14:03:00.966206"	44	2.25824098333333
"S210128"	"Processing_Speed"	"LEFT"	"DOWN"	231.792399999989	1400.0000028	""	n/a	n/a	n/a	n/a	n/a	n/a	"2021-01-28 14:03:02.375145"	"2021-01-28 14:03:02.815367"	45	2.25824098333333
"S210128"	"Processing_Speed"	"RIGHT"	"DOWN"	265.937000000008	500.000001	""	n/a	n/a	n/a	n/a	n/a	n/a	"2021-01-28 14:03:03.324618"	"2021-01-28 14:03:03.799068"	46	2.25824098333333
"S210128"	"Processing_Speed"	"LEFT"	"DOWN"	244.839799999994	1050.0000021	""	n/a	n/a	n/a	n/a	n/a	n/a	"2021-01-28 14:03:04.857827"	"2021-01-28 14:03:05.310088"	47	2.25824098333333
"S210128"	"Processing_Speed"	"RIGHT"	"DOWN"	232.432100000011	783.3333349	""	n/a	n/a	n/a	n/a	n/a	n/a	"2021-01-28 14:03:06.102252"	"2021-01-28 14:03:06.542160"	48	2.25824098333333
"S210128"	"Processing_Speed"	"LEFT"	"DOWN"	282.97649999999	916.6666685	""	n/a	n/a	n/a	n/a	n/a	n/a	"2021-01-28 14:03:07.467684"	"2021-01-28 14:03:07.957430"	49	2.25824098333333
"S210128"	"Processing_Speed"	"LEFT"	"DOWN"	247.847900000011	1016.6666687	""	n/a	n/a	n/a	n/a	n/a	n/a	"2021-01-28 14:03:08.982888"	"2021-01-28 14:03:09.438669"	50	2.25824098333333
"S210128"	"Processing_Speed"	"LEFT"	"DOWN"	307.124200000004	1500.000003	""	n/a	n/a	n/a	n/a	n/a	n/a	"2021-01-28 14:03:10.947214"	"2021-01-28 14:03:11.463780"	51	2.25824098333333
"S210128"	"Processing_Speed"	"RIGHT"	"DOWN"	245.070299999981	633.3333346	""	n/a	n/a	n/a	n/a	n/a	n/a	"2021-01-28 14:03:12.105267"	"2021-01-28 14:03:12.559574"	52	2.25824098333333
"S210128"	"Processing_Speed"	"RIGHT"	"DOWN"	258.186499999994	1500.000003	""	n/a	n/a	n/a	n/a	n/a	n/a	"2021-01-28 14:03:14.068456"	"2021-01-28 14:03:14.534478"	53	2.25824098333333
"S210128"	"Processing_Speed"	"LEFT"	"DOWN"	231.360000000024	1183.3333357	""	n/a	n/a	n/a	n/a	n/a	n/a	"2021-01-28 14:03:15.726967"	"2021-01-28 14:03:16.165061"	54	2.25824098333333
"S210128"	"Processing_Speed"	"RIGHT"	"DOWN"	252.488	1083.3333355	""	n/a	n/a	n/a	n/a	n/a	n/a	"2021-01-28 14:03:17.258303"	"2021-01-28 14:03:17.719297"	55	2.25824098333333
"S210128"	"Processing_Speed"	"RIGHT"	"DOWN"	297.966099999996	1116.6666689	""	n/a	n/a	n/a	n/a	n/a	n/a	"2021-01-28 14:03:18.844874"	"2021-01-28 14:03:19.350206"	56	2.25824098333333
"S210128"	"Processing_Speed"	"RIGHT"	"DOWN"	247.131699999983	816.6666683	""	n/a	n/a	n/a	n/a	n/a	n/a	"2021-01-28 14:03:20.175754"	"2021-01-28 14:03:20.630563"	57	2.25824098333333
"S210128"	"Processing_Speed"	"RIGHT"	"DOWN"	508.80380000001	1266.6666692	"DOWN"	-151.136	n/a	n/a	n/a	n/a	n/a	"2021-01-28 14:03:21.905235"	"2021-01-28 14:03:22.622441"	58	2.25824098333333
"S210128"	"Processing_Speed"	"LEFT"	"DOWN"	287.570399999993	600.0000012	""	n/a	n/a	n/a	n/a	n/a	n/a	"2021-01-28 14:03:23.230815"	"2021-01-28 14:03:23.726140"	59	2.25824098333333
"S210128"	"Processing_Speed"	"RIGHT"	"DOWN"	270.631500000007	1433.3333362	""	n/a	n/a	n/a	n/a	n/a	n/a	"2021-01-28 14:03:25.168157"	"2021-01-28 14:03:25.646414"	60	2.25824098333333
"S210128"	"Response_Inhibition"	"RIGHT"	"RIGHT"	558.876199999986	700.0000014	n/a	n/a	n/a	n/a	n/a	n/a	n/a	"2021-01-28 14:06:55.775730"	"2021-01-28 14:06:56.542700"	1	5.79691665
"S210128"	"Response_Inhibition"	"LEFT"	"LEFT"	384.819700000037	900.0000018	n/a	n/a	n/a	n/a	n/a	n/a	n/a	"2021-01-28 14:06:57.453820"	"2021-01-28 14:06:58.045278"	2	5.79691665
"S210128"	"Response_Inhibition"	"LEFT"	"Time_Max_Exceeded"	1500.16010030004	1066.6666688	n/a	n/a	n/a	n/a	n/a	n/a	n/a	"2021-01-28 14:06:59.120501"	"2021-01-28 14:07:00.623831"	3	5.79691665
"S210128"	"Response_Inhibition"	"LEFT"	"LEFT"	554.743499999972	1450.0000029	n/a	n/a	n/a	n/a	n/a	n/a	n/a	"2021-01-28 14:07:02.083594"	"2021-01-28 14:07:02.846100"	4	5.79691665
"S210128"	"Response_Inhibition"	"LEFT"	"LEFT"	524.720000000002	650.0000013	n/a	n/a	n/a	n/a	n/a	n/a	n/a	"2021-01-28 14:07:03.505950"	"2021-01-28 14:07:04.237130"	5	5.79691665
"S210128"	"Response_Inhibition"	"RIGHT"	"Time_Max_Exceeded"	1500.05410019998	883.3333351	n/a	n/a	n/a	n/a	n/a	n/a	n/a	"2021-01-28 14:07:05.128777"	"2021-01-28 14:07:06.632337"	6	5.79691665
"S210128"	"Response_Inhibition"	"LEFT"	"LEFT"	327.463799999975	950.0000019	n/a	n/a	n/a	n/a	n/a	n/a	n/a	"2021-01-28 14:07:07.591169"	"2021-01-28 14:07:08.126737"	7	5.79691665
"S210128"	"Response_Inhibition"	"RIGHT"	"RIGHT"	470.1235	633.3333346	n/a	n/a	n/a	n/a	n/a	n/a	n/a	"2021-01-28 14:07:08.768034"	"2021-01-28 14:07:09.447154"	8	5.79691665
"S210128"	"Response_Inhibition"	"LEFT"	"LEFT"	340.501099999983	1050.0000021	n/a	n/a	n/a	n/a	n/a	n/a	n/a	"2021-01-28 14:07:10.505797"	"2021-01-28 14:07:11.054196"	9	5.79691665
"S210128"	"Response_Inhibition"	"LEFT"	"LEFT"	352.370699999994	1366.6666694	n/a	n/a	n/a	n/a	n/a	n/a	n/a	"2021-01-28 14:07:12.429627"	"2021-01-28 14:07:12.990809"	10	5.79691665
"S210128"	"Response_Inhibition"	"LEFT"	"LEFT"	327.566400000023	1183.3333357	n/a	n/a	n/a	n/a	n/a	n/a	n/a	"2021-01-28 14:07:14.182823"	"2021-01-28 14:07:14.717393"	11	5.79691665
"S210128"	"Response_Inhibition"	"LEFT"	"LEFT"	299.384633500004	1433.3333362	n/a	n/a	n/a	n/a	n/a	n/a	n/a	"2021-01-28 14:07:16.159096"	"2021-01-28 14:07:16.670726"	12	5.79691665
"S210128"	"Response_Inhibition"	"RIGHT"	"RIGHT"	336.637733800013	683.3333347	n/a	n/a	n/a	n/a	n/a	n/a	n/a	"2021-01-28 14:07:17.362082"	"2021-01-28 14:07:17.909190"	13	5.79691665
"S210128"	"Response_Inhibition"	"LEFT"	"LEFT"	444.297399999982	500.000001	n/a	n/a	n/a	n/a	n/a	n/a	n/a	"2021-01-28 14:07:18.417830"	"2021-01-28 14:07:19.069455"	14	5.79691665
"S210128"	"Response_Inhibition"	"LEFT"	"LEFT"	328.993300000036	783.3333349	n/a	n/a	n/a	n/a	n/a	n/a	n/a	"2021-01-28 14:07:19.860935"	"2021-01-28 14:07:20.397984"	15	5.79691665
"S210128"	"Response_Inhibition"	"RIGHT"	"RIGHT"	504.362700000001	583.3333345	n/a	n/a	n/a	n/a	n/a	n/a	n/a	"2021-01-28 14:07:20.990002"	"2021-01-28 14:07:21.702450"	16	5.79691665
"S210128"	"Response_Inhibition"	"LEFT"	"LEFT"	286.136800000008	1033.3333354	n/a	n/a	n/a	n/a	n/a	n/a	n/a	"2021-01-28 14:07:22.743908"	"2021-01-28 14:07:23.238513"	17	5.79691665
"S210128"	"Response_Inhibition"	"RIGHT"	"RIGHT"	316.634899999997	1466.6666696	n/a	n/a	n/a	n/a	n/a	n/a	n/a	"2021-01-28 14:07:24.713662"	"2021-01-28 14:07:25.237740"	18	5.79691665
"S210128"	"Response_Inhibition"	"LEFT"	"LEFT"	298.984900399948	1216.6666691	n/a	n/a	n/a	n/a	n/a	n/a	n/a	"2021-01-28 14:07:26.464227"	"2021-01-28 14:07:26.973763"	19	5.79691665
"S210128"	"Response_Inhibition"	"RIGHT"	"Time_Max_Exceeded"	1500.06086719996	866.6666684	n/a	n/a	n/a	n/a	n/a	n/a	n/a	"2021-01-28 14:07:27.848398"	"2021-01-28 14:07:29.351700"	20	5.79691665
"S210128"	"Response_Inhibition"	"LEFT"	"Time_Max_Exceeded"	1500.05980010002	1283.3333359	n/a	n/a	n/a	n/a	n/a	n/a	n/a	"2021-01-28 14:07:30.644969"	"2021-01-28 14:07:32.147578"	21	5.79691665
"S210128"	"Response_Inhibition"	"LEFT"	"Time_Max_Exceeded"	1500.20270020002	633.3333346	n/a	n/a	n/a	n/a	n/a	n/a	n/a	"2021-01-28 14:07:32.790017"	"2021-01-28 14:07:34.293614"	22	5.79691665
"S210128"	"Response_Inhibition"	"RIGHT"	"RIGHT"	438.566300600036	1150.0000023	n/a	n/a	n/a	n/a	n/a	n/a	n/a	"2021-01-28 14:07:35.452894"	"2021-01-28 14:07:36.102624"	23	5.79691665
"S210128"	"Response_Inhibition"	"LEFT"	"Time_Max_Exceeded"	1500.05640050001	1166.666669	n/a	n/a	n/a	n/a	n/a	n/a	n/a	"2021-01-28 14:07:37.278145"	"2021-01-28 14:07:38.781233"	24	5.79691665
"S210128"	"Response_Inhibition"	"RIGHT"	"Time_Max_Exceeded"	1500.05530009997	1366.6666694	n/a	n/a	n/a	n/a	n/a	n/a	n/a	"2021-01-28 14:07:40.156116"	"2021-01-28 14:07:41.659711"	25	5.79691665
"S210128"	"Response_Inhibition"	"LEFT"	"LEFT"	700.353100000029	516.6666677	n/a	n/a	n/a	n/a	n/a	n/a	n/a	"2021-01-28 14:07:42.186003"	"2021-01-28 14:07:43.093217"	26	5.79691665
"S210128"	"Response_Inhibition"	"LEFT"	"LEFT"	473.985400000004	566.6666678	n/a	n/a	n/a	n/a	n/a	n/a	n/a	"2021-01-28 14:07:43.668661"	"2021-01-28 14:07:44.350768"	27	5.79691665
"S210128"	"Response_Inhibition"	"RIGHT"	"RIGHT"	683.055499999966	500.000001	n/a	n/a	n/a	n/a	n/a	n/a	n/a	"2021-01-28 14:07:44.858982"	"2021-01-28 14:07:45.750345"	28	5.79691665
"S210128"	"Response_Inhibition"	"LEFT"	"LEFT"	507.744800000012	1483.3333363	n/a	n/a	n/a	n/a	n/a	n/a	n/a	"2021-01-28 14:07:47.242586"	"2021-01-28 14:07:47.957409"	29	5.79691665
"S210128"	"Response_Inhibition"	"LEFT"	"LEFT"	647.009200000014	816.6666683	n/a	n/a	n/a	n/a	n/a	n/a	n/a	"2021-01-28 14:07:48.783200"	"2021-01-28 14:07:49.637038"	30	5.79691665
"S210128"	"Response_Inhibition"	"LEFT"	"Time_Max_Exceeded"	1500.05806690005	900.0000018	n/a	n/a	n/a	n/a	n/a	n/a	n/a	"2021-01-28 14:07:50.545115"	"2021-01-28 14:07:52.048947"	31	5.79691665
"S210128"	"Response_Inhibition"	"LEFT"	"LEFT"	678.931900000009	916.6666685	n/a	n/a	n/a	n/a	n/a	n/a	n/a	"2021-01-28 14:07:52.975510"	"2021-01-28 14:07:53.861137"	32	5.79691665
"S210128"	"Response_Inhibition"	"RIGHT"	"RIGHT"	773.912900000028	666.666668	n/a	n/a	n/a	n/a	n/a	n/a	n/a	"2021-01-28 14:07:54.536677"	"2021-01-28 14:07:55.518027"	33	5.79691665
"S210128"	"Response_Inhibition"	"RIGHT"	"RIGHT"	491.690800600004	1016.6666687	n/a	n/a	n/a	n/a	n/a	n/a	n/a	"2021-01-28 14:07:56.543449"	"2021-01-28 14:07:57.246660"	34	5.79691665
"S210128"	"Response_Inhibition"	"RIGHT"	"RIGHT"	1025.7411	1333.333336	n/a	n/a	n/a	n/a	n/a	n/a	n/a	"2021-01-28 14:07:58.588289"	"2021-01-28 14:07:59.822814"	35	5.79691665
"S210128"	"Response_Inhibition"	"LEFT"	"LEFT"	790.053999999998	1416.6666695	n/a	n/a	n/a	n/a	n/a	n/a	n/a	"2021-01-28 14:08:01.247845"	"2021-01-28 14:08:02.246565"	36	5.79691665
"S210128"	"Response_Inhibition"	"RIGHT"	"RIGHT"	825.13229999995	1150.0000023	n/a	n/a	n/a	n/a	n/a	n/a	n/a	"2021-01-28 14:08:03.405242"	"2021-01-28 14:08:04.438683"	37	5.79691665
"S210128"	"Response_Inhibition"	"LEFT"	"Time_Max_Exceeded"	1500.05476699998	600.0000012	n/a	n/a	n/a	n/a	n/a	n/a	n/a	"2021-01-28 14:08:05.046518"	"2021-01-28 14:08:06.550660"	38	5.79691665
"S210128"	"Response_Inhibition"	"LEFT"	"Time_Max_Exceeded"	1500.05983339999	533.3333344	n/a	n/a	n/a	n/a	n/a	n/a	n/a	"2021-01-28 14:08:07.092390"	"2021-01-28 14:08:08.596371"	39	5.79691665
"S210128"	"Response_Inhibition"	"LEFT"	"Time_Max_Exceeded"	1500.05976710001	933.3333352	n/a	n/a	n/a	n/a	n/a	n/a	n/a	"2021-01-28 14:08:09.538988"	"2021-01-28 14:08:11.041988"	40	5.79691665
"S210128"	"Response_Inhibition"	"LEFT"	"Time_Max_Exceeded"	1500.07780049999	716.6666681	n/a	n/a	n/a	n/a	n/a	n/a	n/a	"2021-01-28 14:08:11.768095"	"2021-01-28 14:08:13.272275"	41	5.79691665
"S210128"	"Response_Inhibition"	"LEFT"	"Time_Max_Exceeded"	1500.04806679997	1266.6666692	n/a	n/a	n/a	n/a	n/a	n/a	n/a	"2021-01-28 14:08:14.547635"	"2021-01-28 14:08:16.050939"	42	5.79691665
"S210128"	"Response_Inhibition"	"RIGHT"	"RIGHT"	732.200499999976	1350.0000027	n/a	n/a	n/a	n/a	n/a	n/a	n/a	"2021-01-28 14:08:17.409571"	"2021-01-28 14:08:18.349208"	43	5.79691665
"S210128"	"Response_Inhibition"	"LEFT"	"LEFT"	440.039500000012	583.3333345	n/a	n/a	n/a	n/a	n/a	n/a	n/a	"2021-01-28 14:08:18.941651"	"2021-01-28 14:08:19.590581"	44	5.79691665
"S210128"	"Response_Inhibition"	"RIGHT"	"RIGHT"	589.822599999991	633.3333346	n/a	n/a	n/a	n/a	n/a	n/a	n/a	"2021-01-28 14:08:20.232108"	"2021-01-28 14:08:21.030888"	45	5.79691665
"S210128"	"Response_Inhibition"	"RIGHT"	"RIGHT"	524.282699999958	1466.6666696	n/a	n/a	n/a	n/a	n/a	n/a	n/a	"2021-01-28 14:08:22.506108"	"2021-01-28 14:08:23.238413"	46	5.79691665
"S210128"	"Response_Inhibition"	"RIGHT"	"RIGHT"	554.530200000045	900.0000018	n/a	n/a	n/a	n/a	n/a	n/a	n/a	"2021-01-28 14:08:24.148025"	"2021-01-28 14:08:24.910217"	47	5.79691665
"S210128"	"Response_Inhibition"	"LEFT"	"LEFT"	581.684399999972	850.0000017	n/a	n/a	n/a	n/a	n/a	n/a	n/a	"2021-01-28 14:08:25.768617"	"2021-01-28 14:08:26.558768"	48	5.79691665
"S210128"	"Response_Inhibition"	"LEFT"	"LEFT"	677.727200000049	833.333335	n/a	n/a	n/a	n/a	n/a	n/a	n/a	"2021-01-28 14:08:27.400551"	"2021-01-28 14:08:28.286721"	49	5.79691665
"S210128"	"Response_Inhibition"	"RIGHT"	"RIGHT"	593.967000000021	1116.6666689	n/a	n/a	n/a	n/a	n/a	n/a	n/a	"2021-01-28 14:08:29.411901"	"2021-01-28 14:08:30.213380"	50	5.79691665
"S210128"	"Response_Inhibition"	"RIGHT"	"RIGHT"	560.956400000009	783.3333349	n/a	n/a	n/a	n/a	n/a	n/a	n/a	"2021-01-28 14:08:31.005412"	"2021-01-28 14:08:31.774004"	51	5.79691665
"S210128"	"Response_Inhibition"	"LEFT"	"LEFT"	275.157000000036	1116.6666689	n/a	n/a	n/a	n/a	n/a	n/a	n/a	"2021-01-28 14:08:32.898552"	"2021-01-28 14:08:33.381039"	52	5.79691665
"S210128"	"Response_Inhibition"	"RIGHT"	"Time_Max_Exceeded"	1500.04696699993	933.3333352	n/a	n/a	n/a	n/a	n/a	n/a	n/a	"2021-01-28 14:08:34.323112"	"2021-01-28 14:08:35.826266"	53	5.79691665
"S210128"	"Response_Inhibition"	"RIGHT"	"RIGHT"	532.6685	950.0000019	n/a	n/a	n/a	n/a	n/a	n/a	n/a	"2021-01-28 14:08:36.785358"	"2021-01-28 14:08:37.526168"	54	5.79691665
"S210128"	"Response_Inhibition"	"LEFT"	"LEFT"	366.393667199916	550.0000011	n/a	n/a	n/a	n/a	n/a	n/a	n/a	"2021-01-28 14:08:38.084760"	"2021-01-28 14:08:38.661521"	55	5.79691665
"S210128"	"Response_Inhibition"	"LEFT"	"Time_Max_Exceeded"	1500.06066709993	866.6666684	n/a	n/a	n/a	n/a	n/a	n/a	n/a	"2021-01-28 14:08:39.536744"	"2021-01-28 14:08:41.039800"	56	5.79691665
"S210128"	"Response_Inhibition"	"RIGHT"	"Time_Max_Exceeded"	1500.05643390008	1316.6666693	n/a	n/a	n/a	n/a	n/a	n/a	n/a	"2021-01-28 14:08:42.365912"	"2021-01-28 14:08:43.869170"	57	5.79691665
"S210128"	"Response_Inhibition"	"RIGHT"	"Time_Max_Exceeded"	1500.07119999998	1183.3333357	n/a	n/a	n/a	n/a	n/a	n/a	n/a	"2021-01-28 14:08:45.061869"	"2021-01-28 14:08:46.561486"	58	5.79691665
"S210128"	"Response_Inhibition"	"RIGHT"	"RIGHT"	860.997699999984	1166.666669	n/a	n/a	n/a	n/a	n/a	n/a	n/a	"2021-01-28 14:08:47.737419"	"2021-01-28 14:08:48.806654"	59	5.79691665
"S210128"	"Response_Inhibition"	"LEFT"	"LEFT"	665.876800000092	1316.6666693	n/a	n/a	n/a	n/a	n/a	n/a	n/a	"2021-01-28 14:08:50.131648"	"2021-01-28 14:08:51.006813"	60	5.79691665
"S210128"	"Response_Inhibition"	"LEFT"	"LEFT"	705.445499999996	733.3333348	n/a	n/a	n/a	n/a	n/a	n/a	n/a	"2021-01-28 14:08:51.748914"	"2021-01-28 14:08:52.662026"	61	5.79691665
"S210128"	"Response_Inhibition"	"RIGHT"	"RIGHT"	718.547899999976	816.6666683	n/a	n/a	n/a	n/a	n/a	n/a	n/a	"2021-01-28 14:08:53.487492"	"2021-01-28 14:08:54.414150"	62	5.79691665
"S210128"	"Response_Inhibition"	"RIGHT"	"RIGHT"	781.673799999908	650.0000013	n/a	n/a	n/a	n/a	n/a	n/a	n/a	"2021-01-28 14:08:55.072462"	"2021-01-28 14:08:56.062511"	63	5.79691665
"S210128"	"Response_Inhibition"	"LEFT"	"LEFT"	783.735200000024	783.3333349	n/a	n/a	n/a	n/a	n/a	n/a	n/a	"2021-01-28 14:08:56.853882"	"2021-01-28 14:08:57.844952"	64	5.79691665
"S210128"	"Response_Inhibition"	"LEFT"	"LEFT"	800.378899999941	1416.6666695	n/a	n/a	n/a	n/a	n/a	n/a	n/a	"2021-01-28 14:08:59.269933"	"2021-01-28 14:09:00.278924"	65	5.79691665
"S210128"	"Response_Inhibition"	"LEFT"	"LEFT"	1078.43809999997	1400.0000028	n/a	n/a	n/a	n/a	n/a	n/a	n/a	"2021-01-28 14:09:01.687707"	"2021-01-28 14:09:02.974929"	66	5.79691665
"S210128"	"Response_Inhibition"	"LEFT"	"LEFT"	596.119499999986	1216.6666691	n/a	n/a	n/a	n/a	n/a	n/a	n/a	"2021-01-28 14:09:04.201444"	"2021-01-28 14:09:05.005538"	67	5.79691665
"S210128"	"Response_Inhibition"	"LEFT"	"Time_Max_Exceeded"	1500.05523369995	966.6666686	n/a	n/a	n/a	n/a	n/a	n/a	n/a	"2021-01-28 14:09:05.980437"	"2021-01-28 14:09:07.483483"	68	5.79691665
"S210128"	"Response_Inhibition"	"RIGHT"	"RIGHT"	475.995200000057	1100.0000022	n/a	n/a	n/a	n/a	n/a	n/a	n/a	"2021-01-28 14:09:08.593732"	"2021-01-28 14:09:09.278251"	69	5.79691665
"S210128"	"Response_Inhibition"	"LEFT"	"LEFT"	574.098000000049	1200.0000024	n/a	n/a	n/a	n/a	n/a	n/a	n/a	"2021-01-28 14:09:10.487671"	"2021-01-28 14:09:11.269561"	70	5.79691665
"S210128"	"Response_Inhibition"	"RIGHT"	"RIGHT"	672.072699999944	800.0000016	n/a	n/a	n/a	n/a	n/a	n/a	n/a	"2021-01-28 14:09:12.078408"	"2021-01-28 14:09:12.958224"	71	5.79691665
"S210128"	"Response_Inhibition"	"LEFT"	"LEFT"	551.702200000022	983.3333353	n/a	n/a	n/a	n/a	n/a	n/a	n/a	"2021-01-28 14:09:13.950165"	"2021-01-28 14:09:14.710866"	72	5.79691665
"S210128"	"Response_Inhibition"	"LEFT"	"LEFT"	639.914699999963	1366.6666694	n/a	n/a	n/a	n/a	n/a	n/a	n/a	"2021-01-28 14:09:16.086340"	"2021-01-28 14:09:16.934073"	73	5.79691665
"S210128"	"Response_Inhibition"	"RIGHT"	"Time_Max_Exceeded"	1500.0583003	1083.3333355	n/a	n/a	n/a	n/a	n/a	n/a	n/a	"2021-01-28 14:09:18.028232"	"2021-01-28 14:09:19.531167"	74	5.79691665
"S210128"	"Response_Inhibition"	"RIGHT"	"RIGHT"	763.352599999962	733.3333348	n/a	n/a	n/a	n/a	n/a	n/a	n/a	"2021-01-28 14:09:20.274220"	"2021-01-28 14:09:21.248446"	75	5.79691665
"S210128"	"Response_Inhibition"	"RIGHT"	"Time_Max_Exceeded"	1500.05523360002	550.0000011	n/a	n/a	n/a	n/a	n/a	n/a	n/a	"2021-01-28 14:09:21.806589"	"2021-01-28 14:09:23.310178"	76	5.79691665
"S210128"	"Response_Inhibition"	"RIGHT"	"Time_Max_Exceeded"	1500.05176719996	1416.6666695	n/a	n/a	n/a	n/a	n/a	n/a	n/a	"2021-01-28 14:09:24.737451"	"2021-01-28 14:09:26.240786"	77	5.79691665
"S210128"	"Response_Inhibition"	"LEFT"	"LEFT"	616.791700000022	1100.0000022	n/a	n/a	n/a	n/a	n/a	n/a	n/a	"2021-01-28 14:09:27.349627"	"2021-01-28 14:09:28.173363"	78	5.79691665
"S210128"	"Response_Inhibition"	"RIGHT"	"RIGHT"	679.026699999895	1033.3333354	n/a	n/a	n/a	n/a	n/a	n/a	n/a	"2021-01-28 14:09:29.214741"	"2021-01-28 14:09:30.101489"	79	5.79691665
"S210128"	"Response_Inhibition"	"RIGHT"	"RIGHT"	580.770499999971	1283.3333359	n/a	n/a	n/a	n/a	n/a	n/a	n/a	"2021-01-28 14:09:31.393587"	"2021-01-28 14:09:32.182525"	80	5.79691665
"S210128"	"Response_Inhibition"	"RIGHT"	"RIGHT"	567.922700000054	566.6666678	n/a	n/a	n/a	n/a	n/a	n/a	n/a	"2021-01-28 14:09:32.758491"	"2021-01-28 14:09:33.534921"	81	5.79691665
"S210128"	"Response_Inhibition"	"RIGHT"	"RIGHT"	769.759700000009	900.0000018	n/a	n/a	n/a	n/a	n/a	n/a	n/a	"2021-01-28 14:09:34.443657"	"2021-01-28 14:09:35.421521"	82	5.79691665
"S210128"	"Response_Inhibition"	"RIGHT"	"RIGHT"	637.30170000008	1066.6666688	n/a	n/a	n/a	n/a	n/a	n/a	n/a	"2021-01-28 14:09:36.496453"	"2021-01-28 14:09:37.342902"	83	5.79691665
"S210128"	"Response_Inhibition"	"LEFT"	"LEFT"	739.271899999949	683.3333347	n/a	n/a	n/a	n/a	n/a	n/a	n/a	"2021-01-28 14:09:38.035053"	"2021-01-28 14:09:38.982710"	84	5.79691665
"S210128"	"Response_Inhibition"	"LEFT"	"LEFT"	655.156999999917	1000.000002	n/a	n/a	n/a	n/a	n/a	n/a	n/a	"2021-01-28 14:09:39.990879"	"2021-01-28 14:09:40.853867"	85	5.79691665
"S210128"	"Response_Inhibition"	"RIGHT"	"Time_Max_Exceeded"	1500.08136680007	516.6666677	n/a	n/a	n/a	n/a	n/a	n/a	n/a	"2021-01-28 14:09:41.379509"	"2021-01-28 14:09:42.883624"	86	5.79691665
"S210128"	"Response_Inhibition"	"LEFT"	"Time_Max_Exceeded"	1500.05763380008	1333.333336	n/a	n/a	n/a	n/a	n/a	n/a	n/a	"2021-01-28 14:09:44.225694"	"2021-01-28 14:09:45.728281"	87	5.79691665
"S210128"	"Response_Inhibition"	"RIGHT"	"RIGHT"	627.699199999938	1216.6666691	n/a	n/a	n/a	n/a	n/a	n/a	n/a	"2021-01-28 14:09:46.954667"	"2021-01-28 14:09:47.789014"	88	5.79691665
"S210128"	"Response_Inhibition"	"LEFT"	"Time_Max_Exceeded"	1500.04796679995	1383.3333361	n/a	n/a	n/a	n/a	n/a	n/a	n/a	"2021-01-28 14:09:49.181273"	"2021-01-28 14:09:50.684402"	89	5.79691665
"S210128"	"Response_Inhibition"	"LEFT"	"Time_Max_Exceeded"	1500.05766689996	800.0000016	n/a	n/a	n/a	n/a	n/a	n/a	n/a	"2021-01-28 14:09:51.493746"	"2021-01-28 14:09:52.996963"	90	5.79691665
"S210128"	"Response_Inhibition"	"LEFT"	"LEFT"	548.790800000006	700.0000014	n/a	n/a	n/a	n/a	n/a	n/a	n/a	"2021-01-28 14:09:53.706686"	"2021-01-28 14:09:54.463659"	91	5.79691665
"S210128"	"Response_Inhibition"	"RIGHT"	"RIGHT"	622.795699999983	583.3333345	n/a	n/a	n/a	n/a	n/a	n/a	n/a	"2021-01-28 14:09:55.055043"	"2021-01-28 14:09:55.885575"	92	5.79691665
"S210128"	"Response_Inhibition"	"LEFT"	"LEFT"	517.538999999942	666.666668	n/a	n/a	n/a	n/a	n/a	n/a	n/a	"2021-01-28 14:09:56.560804"	"2021-01-28 14:09:57.286697"	93	5.79691665
"S210128"	"Response_Inhibition"	"LEFT"	"LEFT"	487.039100000061	766.6666682	n/a	n/a	n/a	n/a	n/a	n/a	n/a	"2021-01-28 14:09:58.062914"	"2021-01-28 14:09:58.758456"	94	5.79691665
"S210128"	"Response_Inhibition"	"LEFT"	"LEFT"	632.817100000011	1150.0000023	n/a	n/a	n/a	n/a	n/a	n/a	n/a	"2021-01-28 14:09:59.917186"	"2021-01-28 14:10:00.758398"	95	5.79691665
"S210128"	"Response_Inhibition"	"RIGHT"	"Time_Max_Exceeded"	1500.05146670007	1100.0000022	n/a	n/a	n/a	n/a	n/a	n/a	n/a	"2021-01-28 14:10:01.867015"	"2021-01-28 14:10:03.370060"	96	5.79691665
"S210128"	"Response_Inhibition"	"RIGHT"	"RIGHT"	530.518799999982	1000.000002	n/a	n/a	n/a	n/a	n/a	n/a	n/a	"2021-01-28 14:10:04.379509"	"2021-01-28 14:10:05.118354"	97	5.79691665
"S210128"	"Response_Inhibition"	"RIGHT"	"RIGHT"	592.515100000014	966.6666686	n/a	n/a	n/a	n/a	n/a	n/a	n/a	"2021-01-28 14:10:06.093821"	"2021-01-28 14:10:06.894254"	98	5.79691665
"S210128"	"Response_Inhibition"	"LEFT"	"LEFT"	561.497899999949	750.0000015	n/a	n/a	n/a	n/a	n/a	n/a	n/a	"2021-01-28 14:10:07.652365"	"2021-01-28 14:10:08.421292"	99	5.79691665
"S210128"	"Response_Inhibition"	"RIGHT"	"RIGHT"	550.089000000071	1433.3333362	n/a	n/a	n/a	n/a	n/a	n/a	n/a	"2021-01-28 14:10:09.863951"	"2021-01-28 14:10:10.621980"	100	5.79691665
"S210128"	"Response_Inhibition"	"LEFT"	"LEFT"	572.030099999893	1083.3333355	n/a	n/a	n/a	n/a	n/a	n/a	n/a	"2021-01-28 14:10:11.714217"	"2021-01-28 14:10:12.493128"	101	5.79691665
"S210128"	"Response_Inhibition"	"LEFT"	"LEFT"	458.218200000033	950.0000019	n/a	n/a	n/a	n/a	n/a	n/a	n/a	"2021-01-28 14:10:13.451678"	"2021-01-28 14:10:14.117276"	102	5.79691665
"S210128"	"Response_Inhibition"	"LEFT"	"LEFT"	612.702900000045	883.3333351	n/a	n/a	n/a	n/a	n/a	n/a	n/a	"2021-01-28 14:10:15.009178"	"2021-01-28 14:10:15.830208"	103	5.79691665
"S210128"	"Response_Inhibition"	"RIGHT"	"RIGHT"	529.953299999988	1300.0000026	n/a	n/a	n/a	n/a	n/a	n/a	n/a	"2021-01-28 14:10:17.140087"	"2021-01-28 14:10:17.877150"	104	5.79691665
"S210128"	"Response_Inhibition"	"LEFT"	"LEFT"	359.748233600009	1350.0000027	n/a	n/a	n/a	n/a	n/a	n/a	n/a	"2021-01-28 14:10:19.235537"	"2021-01-28 14:10:19.806830"	105	5.79691665
"S210128"	"Response_Inhibition"	"RIGHT"	"RIGHT"	759.035299999937	1200.0000024	n/a	n/a	n/a	n/a	n/a	n/a	n/a	"2021-01-28 14:10:21.014831"	"2021-01-28 14:10:21.981695"	106	5.79691665
"S210128"	"Response_Inhibition"	"RIGHT"	"Time_Max_Exceeded"	1500.05753390004	783.3333349	n/a	n/a	n/a	n/a	n/a	n/a	n/a	"2021-01-28 14:10:22.774865"	"2021-01-28 14:10:24.277850"	107	5.79691665
"S210128"	"Response_Inhibition"	"RIGHT"	"Time_Max_Exceeded"	1500.05293339992	750.0000015	n/a	n/a	n/a	n/a	n/a	n/a	n/a	"2021-01-28 14:10:25.036824"	"2021-01-28 14:10:26.539950"	108	5.79691665
"S210128"	"Response_Inhibition"	"RIGHT"	"RIGHT"	571.92740000005	1316.6666693	n/a	n/a	n/a	n/a	n/a	n/a	n/a	"2021-01-28 14:10:27.865787"	"2021-01-28 14:10:28.646438"	109	5.79691665
"S210128"	"Response_Inhibition"	"LEFT"	"LEFT"	524.370099999942	1466.6666696	n/a	n/a	n/a	n/a	n/a	n/a	n/a	"2021-01-28 14:10:30.122057"	"2021-01-28 14:10:30.854782"	110	5.79691665
"S210128"	"Response_Inhibition"	"LEFT"	"LEFT"	726.338400000031	616.6666679	n/a	n/a	n/a	n/a	n/a	n/a	n/a	"2021-01-28 14:10:31.479765"	"2021-01-28 14:10:32.414178"	111	5.79691665
"S210128"	"Response_Inhibition"	"RIGHT"	"RIGHT"	561.058199999934	950.0000019	n/a	n/a	n/a	n/a	n/a	n/a	n/a	"2021-01-28 14:10:33.372637"	"2021-01-28 14:10:34.142083"	112	5.79691665
"S210128"	"Response_Inhibition"	"LEFT"	"LEFT"	482.064899999955	533.3333344	n/a	n/a	n/a	n/a	n/a	n/a	n/a	"2021-01-28 14:10:34.684224"	"2021-01-28 14:10:35.373331"	113	5.79691665
"S210128"	"Response_Inhibition"	"RIGHT"	"Time_Max_Exceeded"	1500.05283380002	1250.0000025	n/a	n/a	n/a	n/a	n/a	n/a	n/a	"2021-01-28 14:10:36.633139"	"2021-01-28 14:10:38.135917"	114	5.79691665
"S210128"	"Response_Inhibition"	"LEFT"	"LEFT"	443.255499999964	1050.0000021	n/a	n/a	n/a	n/a	n/a	n/a	n/a	"2021-01-28 14:10:39.195203"	"2021-01-28 14:10:39.846632"	115	5.79691665
"S210128"	"Response_Inhibition"	"RIGHT"	"RIGHT"	566.419100000076	1416.6666695	n/a	n/a	n/a	n/a	n/a	n/a	n/a	"2021-01-28 14:10:41.271755"	"2021-01-28 14:10:42.045960"	116	5.79691665
"S210128"	"Response_Inhibition"	"LEFT"	"LEFT"	581.51399999997	1250.0000025	n/a	n/a	n/a	n/a	n/a	n/a	n/a	"2021-01-28 14:10:43.304414"	"2021-01-28 14:10:44.093371"	117	5.79691665
"S210128"	"Response_Inhibition"	"RIGHT"	"Time_Max_Exceeded"	1500.04980040001	600.0000012	n/a	n/a	n/a	n/a	n/a	n/a	n/a	"2021-01-28 14:10:44.701481"	"2021-01-28 14:10:46.205612"	118	5.79691665
"S210128"	"Response_Inhibition"	"LEFT"	"LEFT"	619.311599999946	1316.6666693	n/a	n/a	n/a	n/a	n/a	n/a	n/a	"2021-01-28 14:10:47.531219"	"2021-01-28 14:10:48.358768"	119	5.79691665
"S210128"	"Response_Inhibition"	"RIGHT"	"Time_Max_Exceeded"	1500.04710020005	616.6666679	n/a	n/a	n/a	n/a	n/a	n/a	n/a	"2021-01-28 14:10:48.983718"	"2021-01-28 14:10:50.487451"	120	5.79691665
"S210128"	"Response_Inhibition"	"RIGHT"	"RIGHT"	630.093500000044	1400.0000028	n/a	n/a	n/a	n/a	n/a	n/a	n/a	"2021-01-28 14:10:51.896695"	"2021-01-28 14:10:52.734824"	121	5.79691665
"S210128"	"Response_Inhibition"	"LEFT"	"LEFT"	613.671600000089	1016.6666687	n/a	n/a	n/a	n/a	n/a	n/a	n/a	"2021-01-28 14:10:53.760148"	"2021-01-28 14:10:54.581013"	122	5.79691665
"S210128"	"Response_Inhibition"	"RIGHT"	"RIGHT"	614.63260000005	1050.0000021	n/a	n/a	n/a	n/a	n/a	n/a	n/a	"2021-01-28 14:10:55.639794"	"2021-01-28 14:10:56.462626"	123	5.79691665
"S210128"	"Response_Inhibition"	"LEFT"	"LEFT"	645.576099999971	1233.3333358	n/a	n/a	n/a	n/a	n/a	n/a	n/a	"2021-01-28 14:10:57.704343"	"2021-01-28 14:10:58.558433"	124	5.79691665
"S210128"	"Response_Inhibition"	"LEFT"	"Time_Max_Exceeded"	1500.05910049993	1100.0000022	n/a	n/a	n/a	n/a	n/a	n/a	n/a	"2021-01-28 14:10:59.667402"	"2021-01-28 14:11:01.170300"	125	5.79691665
"S210128"	"Response_Inhibition"	"RIGHT"	"Time_Max_Exceeded"	1500.05476690005	983.3333353	n/a	n/a	n/a	n/a	n/a	n/a	n/a	"2021-01-28 14:11:02.164652"	"2021-01-28 14:11:03.667779"	126	5.79691665
"S210128"	"Response_Inhibition"	"RIGHT"	"Time_Max_Exceeded"	1500.05483369997	833.333335	n/a	n/a	n/a	n/a	n/a	n/a	n/a	"2021-01-28 14:11:04.509772"	"2021-01-28 14:11:06.013107"	127	5.79691665
"S210128"	"Response_Inhibition"	"RIGHT"	"Time_Max_Exceeded"	1500.05220010007	1500.000003	n/a	n/a	n/a	n/a	n/a	n/a	n/a	"2021-01-28 14:11:07.522116"	"2021-01-28 14:11:09.025161"	128	5.79691665
"S210128"	"Response_Inhibition"	"RIGHT"	"RIGHT"	626.258399999983	1233.3333358	n/a	n/a	n/a	n/a	n/a	n/a	n/a	"2021-01-28 14:11:10.268130"	"2021-01-28 14:11:11.101489"	129	5.79691665
"S210128"	"Response_Inhibition"	"RIGHT"	"Time_Max_Exceeded"	1500.05340029998	716.6666681	n/a	n/a	n/a	n/a	n/a	n/a	n/a	"2021-01-28 14:11:11.828128"	"2021-01-28 14:11:13.331338"	130	5.79691665
"S210128"	"Response_Inhibition"	"RIGHT"	"Time_Max_Exceeded"	1500.05286700006	1266.6666692	n/a	n/a	n/a	n/a	n/a	n/a	n/a	"2021-01-28 14:11:14.607833"	"2021-01-28 14:11:16.111200"	131	5.79691665
"S210128"	"Response_Inhibition"	"RIGHT"	"RIGHT"	572.47719999998	1216.6666691	n/a	n/a	n/a	n/a	n/a	n/a	n/a	"2021-01-28 14:11:17.337609"	"2021-01-28 14:11:18.118754"	132	5.79691665
"S210128"	"Response_Inhibition"	"LEFT"	"Time_Max_Exceeded"	1500.05043359996	1000.000002	n/a	n/a	n/a	n/a	n/a	n/a	n/a	"2021-01-28 14:11:19.128096"	"2021-01-28 14:11:20.631206"	133	5.79691665
"S210128"	"Response_Inhibition"	"LEFT"	"LEFT"	457.157499999994	1500.000003	n/a	n/a	n/a	n/a	n/a	n/a	n/a	"2021-01-28 14:11:22.140499"	"2021-01-28 14:11:22.805216"	134	5.79691665
"S210128"	"Response_Inhibition"	"RIGHT"	"RIGHT"	565.380899999923	850.0000017	n/a	n/a	n/a	n/a	n/a	n/a	n/a	"2021-01-28 14:11:23.665000"	"2021-01-28 14:11:24.438434"	135	5.79691665
"S210128"	"Response_Inhibition"	"RIGHT"	"Time_Max_Exceeded"	1500.05563340001	1366.6666694	n/a	n/a	n/a	n/a	n/a	n/a	n/a	"2021-01-28 14:11:25.813881"	"2021-01-28 14:11:27.317374"	136	5.79691665
"S210128"	"Response_Inhibition"	"LEFT"	"Time_Max_Exceeded"	1500.07240039998	1133.3333356	n/a	n/a	n/a	n/a	n/a	n/a	n/a	"2021-01-28 14:11:28.460638"	"2021-01-28 14:11:29.964125"	137	5.79691665
"S210128"	"Response_Inhibition"	"RIGHT"	"RIGHT"	499.400000000037	916.6666685	n/a	n/a	n/a	n/a	n/a	n/a	n/a	"2021-01-28 14:11:30.890407"	"2021-01-28 14:11:31.597894"	138	5.79691665
"S210128"	"Response_Inhibition"	"LEFT"	"LEFT"	478.230199999985	633.3333346	n/a	n/a	n/a	n/a	n/a	n/a	n/a	"2021-01-28 14:11:32.239758"	"2021-01-28 14:11:32.926532"	139	5.79691665
"S210128"	"Response_Inhibition"	"RIGHT"	"RIGHT"	456.742500000018	766.6666682	n/a	n/a	n/a	n/a	n/a	n/a	n/a	"2021-01-28 14:11:33.701515"	"2021-01-28 14:11:34.365800"	140	5.79691665
"S210128"	"Response_Inhibition"	"RIGHT"	"Time_Max_Exceeded"	1500.05243350002	1450.0000029	n/a	n/a	n/a	n/a	n/a	n/a	n/a	"2021-01-28 14:11:35.824859"	"2021-01-28 14:11:37.327249"	141	5.79691665
"S210128"	"Response_Inhibition"	"LEFT"	"LEFT"	426.480500000025	1266.6666692	n/a	n/a	n/a	n/a	n/a	n/a	n/a	"2021-01-28 14:11:38.603557"	"2021-01-28 14:11:39.238347"	142	5.79691665
"S210128"	"Response_Inhibition"	"LEFT"	"Time_Max_Exceeded"	1500.04886669994	1466.6666696	n/a	n/a	n/a	n/a	n/a	n/a	n/a	"2021-01-28 14:11:40.713488"	"2021-01-28 14:11:42.217246"	143	5.79691665
"S210128"	"Response_Inhibition"	"LEFT"	"LEFT"	639.879800000017	1300.0000026	n/a	n/a	n/a	n/a	n/a	n/a	n/a	"2021-01-28 14:11:43.526510"	"2021-01-28 14:11:44.374129"	144	5.79691665
"S210128"	"Response_Inhibition"	"RIGHT"	"RIGHT"	508.096000000023	1483.3333363	n/a	n/a	n/a	n/a	n/a	n/a	n/a	"2021-01-28 14:11:45.865829"	"2021-01-28 14:11:46.581452"	145	5.79691665
"S210128"	"Response_Inhibition"	"LEFT"	"LEFT"	449.243799999977	1150.0000023	n/a	n/a	n/a	n/a	n/a	n/a	n/a	"2021-01-28 14:11:47.740523"	"2021-01-28 14:11:48.396986"	146	5.79691665
"S210128"	"Response_Inhibition"	"RIGHT"	"RIGHT"	474.930199999903	533.3333344	n/a	n/a	n/a	n/a	n/a	n/a	n/a	"2021-01-28 14:11:48.938538"	"2021-01-28 14:11:49.622829"	147	5.79691665
"S210128"	"Response_Inhibition"	"LEFT"	"LEFT"	349.442933900004	733.3333348	n/a	n/a	n/a	n/a	n/a	n/a	n/a	"2021-01-28 14:11:50.364941"	"2021-01-28 14:11:50.926695"	148	5.79691665
"S210128"	"Response_Inhibition"	"RIGHT"	"RIGHT"	527.624199999991	1383.3333361	n/a	n/a	n/a	n/a	n/a	n/a	n/a	"2021-01-28 14:11:52.318183"	"2021-01-28 14:11:53.053563"	149	5.79691665
"S210128"	"Response_Inhibition"	"RIGHT"	"RIGHT"	495.543100000077	1000.000002	n/a	n/a	n/a	n/a	n/a	n/a	n/a	"2021-01-28 14:11:54.062441"	"2021-01-28 14:11:54.766625"	150	5.79691665
"S210128"	"Response_Inhibition"	"RIGHT"	"RIGHT"	496.944100000064	1133.3333356	n/a	n/a	n/a	n/a	n/a	n/a	n/a	"2021-01-28 14:11:55.909284"	"2021-01-28 14:11:56.614795"	151	5.79691665
"S210128"	"Response_Inhibition"	"LEFT"	"Time_Max_Exceeded"	1500.05386669992	850.0000017	n/a	n/a	n/a	n/a	n/a	n/a	n/a	"2021-01-28 14:11:57.475036"	"2021-01-28 14:11:58.978837"	152	5.79691665
"S210128"	"Response_Inhibition"	"RIGHT"	"RIGHT"	396.736700000019	733.3333348	n/a	n/a	n/a	n/a	n/a	n/a	n/a	"2021-01-28 14:11:59.721505"	"2021-01-28 14:12:00.325973"	153	5.79691665
"S210128"	"Response_Inhibition"	"LEFT"	"Time_Max_Exceeded"	1500.10339999994	683.3333347	n/a	n/a	n/a	n/a	n/a	n/a	n/a	"2021-01-28 14:12:01.017764"	"2021-01-28 14:12:02.518526"	154	5.79691665
"S210128"	"Response_Inhibition"	"RIGHT"	"RIGHT"	417.690733700022	1050.0000021	n/a	n/a	n/a	n/a	n/a	n/a	n/a	"2021-01-28 14:12:03.577484"	"2021-01-28 14:12:04.205290"	155	5.79691665
"S210128"	"Response_Inhibition"	"RIGHT"	"RIGHT"	516.770899999983	683.3333347	n/a	n/a	n/a	n/a	n/a	n/a	n/a	"2021-01-28 14:12:04.897439"	"2021-01-28 14:12:05.621687"	156	5.79691665
"S210128"	"Response_Inhibition"	"RIGHT"	"RIGHT"	474.392299999977	533.3333344	n/a	n/a	n/a	n/a	n/a	n/a	n/a	"2021-01-28 14:12:06.163249"	"2021-01-28 14:12:06.846538"	157	5.79691665
"S210128"	"Response_Inhibition"	"LEFT"	"LEFT"	495.796700000028	583.3333345	n/a	n/a	n/a	n/a	n/a	n/a	n/a	"2021-01-28 14:12:07.438177"	"2021-01-28 14:12:08.141308"	158	5.79691665
"S210128"	"Response_Inhibition"	"RIGHT"	"RIGHT"	526.040799999919	850.0000017	n/a	n/a	n/a	n/a	n/a	n/a	n/a	"2021-01-28 14:12:08.999727"	"2021-01-28 14:12:09.733877"	159	5.79691665
"S210128"	"Response_Inhibition"	"RIGHT"	"RIGHT"	547.884300000078	1266.6666692	n/a	n/a	n/a	n/a	n/a	n/a	n/a	"2021-01-28 14:12:11.009671"	"2021-01-28 14:12:11.766599"	160	5.79691665
"S210128"	"Response_Selection"	"RIGHT"	"RIGHT"	351.138400000025	1166.666669	n/a	n/a	n/a	n/a	n/a	n/a	n/a	"2021-01-28 14:04:23.871368"	"2021-01-28 14:04:24.429991"	1	2.93883275
"S210128"	"Response_Selection"	"LEFT"	"LEFT"	275.251799999978	883.3333351	n/a	n/a	n/a	n/a	n/a	n/a	n/a	"2021-01-28 14:04:25.323296"	"2021-01-28 14:04:25.805969"	2	2.93883275
"S210128"	"Response_Selection"	"LEFT"	"LEFT"	274.354100000039	1350.0000027	n/a	n/a	n/a	n/a	n/a	n/a	n/a	"2021-01-28 14:04:27.163923"	"2021-01-28 14:04:27.647654"	3	2.93883275
"S210128"	"Response_Selection"	"RIGHT"	"RIGHT"	330.3674	500.000001	n/a	n/a	n/a	n/a	n/a	n/a	n/a	"2021-01-28 14:04:28.155755"	"2021-01-28 14:04:28.693996"	4	2.93883275
"S210128"	"Response_Selection"	"LEFT"	"LEFT"	254.356900000005	1200.0000024	n/a	n/a	n/a	n/a	n/a	n/a	n/a	"2021-01-28 14:04:29.904192"	"2021-01-28 14:04:30.366445"	5	2.93883275
"S210128"	"Response_Selection"	"LEFT"	"LEFT"	284.348199999954	1450.0000029	n/a	n/a	n/a	n/a	n/a	n/a	n/a	"2021-01-28 14:04:31.826137"	"2021-01-28 14:04:32.317373"	6	2.93883275
"S210128"	"Response_Selection"	"RIGHT"	"RIGHT"	353.594799999996	583.3333345	n/a	n/a	n/a	n/a	n/a	n/a	n/a	"2021-01-28 14:04:32.908818"	"2021-01-28 14:04:33.471009"	7	2.93883275
"S210128"	"Response_Selection"	"LEFT"	"LEFT"	233.814800000005	933.3333352	n/a	n/a	n/a	n/a	n/a	n/a	n/a	"2021-01-28 14:04:34.412904"	"2021-01-28 14:04:34.854722"	8	2.93883275
"S210128"	"Response_Selection"	"RIGHT"	"RIGHT"	297.034999999994	550.0000011	n/a	n/a	n/a	n/a	n/a	n/a	n/a	"2021-01-28 14:04:35.413774"	"2021-01-28 14:04:35.918056"	9	2.93883275
"S210128"	"Response_Selection"	"RIGHT"	"RIGHT"	268.606299999988	1083.3333355	n/a	n/a	n/a	n/a	n/a	n/a	n/a	"2021-01-28 14:04:37.009760"	"2021-01-28 14:04:37.486520"	10	2.93883275
"S210128"	"Response_Selection"	"RIGHT"	"RIGHT"	300.340199999994	883.3333351	n/a	n/a	n/a	n/a	n/a	n/a	n/a	"2021-01-28 14:04:38.378140"	"2021-01-28 14:04:38.887083"	11	2.93883275
"S210128"	"Response_Selection"	"LEFT"	"LEFT"	306.868800000018	500.000001	n/a	n/a	n/a	n/a	n/a	n/a	n/a	"2021-01-28 14:04:39.395418"	"2021-01-28 14:04:39.910589"	12	2.93883275
"S210128"	"Response_Selection"	"LEFT"	"LEFT"	321.574999999996	966.6666686	n/a	n/a	n/a	n/a	n/a	n/a	n/a	"2021-01-28 14:04:40.885708"	"2021-01-28 14:04:41.415868"	13	2.93883275
"S210128"	"Response_Selection"	"LEFT"	"LEFT"	255.653100000018	733.3333348	n/a	n/a	n/a	n/a	n/a	n/a	n/a	"2021-01-28 14:04:42.158435"	"2021-01-28 14:04:42.623649"	14	2.93883275
"S210128"	"Response_Selection"	"LEFT"	"LEFT"	315.629999999999	1466.6666696	n/a	n/a	n/a	n/a	n/a	n/a	n/a	"2021-01-28 14:04:44.098487"	"2021-01-28 14:04:44.621186"	15	2.93883275
"S210128"	"Response_Selection"	"RIGHT"	"RIGHT"	239.391599999976	1033.3333354	n/a	n/a	n/a	n/a	n/a	n/a	n/a	"2021-01-28 14:04:45.662596"	"2021-01-28 14:04:46.110706"	16	2.93883275
"S210128"	"Response_Selection"	"LEFT"	"LEFT"	244.862099999978	1033.3333354	n/a	n/a	n/a	n/a	n/a	n/a	n/a	"2021-01-28 14:04:47.153205"	"2021-01-28 14:04:47.606317"	17	2.93883275
"S210128"	"Response_Selection"	"LEFT"	"LEFT"	361.707199999955	550.0000011	n/a	n/a	n/a	n/a	n/a	n/a	n/a	"2021-01-28 14:04:48.164419"	"2021-01-28 14:04:48.734439"	18	2.93883275
"S210128"	"Response_Selection"	"LEFT"	"LEFT"	293.359699999996	650.0000013	n/a	n/a	n/a	n/a	n/a	n/a	n/a	"2021-01-28 14:04:49.393372"	"2021-01-28 14:04:49.895530"	19	2.93883275
"S210128"	"Response_Selection"	"RIGHT"	"RIGHT"	294.218100000023	800.0000016	n/a	n/a	n/a	n/a	n/a	n/a	n/a	"2021-01-28 14:04:50.703611"	"2021-01-28 14:04:51.205266"	20	2.93883275
"S210128"	"Response_Selection"	"RIGHT"	"RIGHT"	318.17209999997	833.333335	n/a	n/a	n/a	n/a	n/a	n/a	n/a	"2021-01-28 14:04:52.048306"	"2021-01-28 14:04:52.575661"	21	2.93883275
"S210128"	"Response_Selection"	"RIGHT"	"RIGHT"	261.686600000019	1016.6666687	n/a	n/a	n/a	n/a	n/a	n/a	n/a	"2021-01-28 14:04:53.600527"	"2021-01-28 14:04:54.070331"	22	2.93883275
"S210128"	"Response_Selection"	"LEFT"	"LEFT"	255.788499999994	1366.6666694	n/a	n/a	n/a	n/a	n/a	n/a	n/a	"2021-01-28 14:04:55.447372"	"2021-01-28 14:04:55.910982"	23	2.93883275
"S210128"	"Response_Selection"	"LEFT"	"LEFT"	327.344400000015	533.3333344	n/a	n/a	n/a	n/a	n/a	n/a	n/a	"2021-01-28 14:04:56.455044"	"2021-01-28 14:04:56.989953"	24	2.93883275
"S210128"	"Response_Selection"	"RIGHT"	"RIGHT"	324.532000000033	683.3333347	n/a	n/a	n/a	n/a	n/a	n/a	n/a	"2021-01-28 14:04:57.681653"	"2021-01-28 14:04:58.214228"	25	2.93883275
"S210128"	"Response_Selection"	"LEFT"	"LEFT"	267.938700000002	1500.000003	n/a	n/a	n/a	n/a	n/a	n/a	n/a	"2021-01-28 14:04:59.722430"	"2021-01-28 14:05:00.198377"	26	2.93883275
"S210128"	"Response_Selection"	"LEFT"	"LEFT"	314.717500000029	1116.6666689	n/a	n/a	n/a	n/a	n/a	n/a	n/a	"2021-01-28 14:05:01.324148"	"2021-01-28 14:05:01.846712"	27	2.93883275
"S210128"	"Response_Selection"	"LEFT"	"LEFT"	303.464899999994	783.3333349	n/a	n/a	n/a	n/a	n/a	n/a	n/a	"2021-01-28 14:05:02.638661"	"2021-01-28 14:05:03.149939"	28	2.93883275
"S210128"	"Response_Selection"	"RIGHT"	"RIGHT"	306.430500000033	533.3333344	n/a	n/a	n/a	n/a	n/a	n/a	n/a	"2021-01-28 14:05:03.691492"	"2021-01-28 14:05:04.206038"	29	2.93883275
"S210128"	"Response_Selection"	"LEFT"	"LEFT"	275.348199999996	916.6666685	n/a	n/a	n/a	n/a	n/a	n/a	n/a	"2021-01-28 14:05:05.130742"	"2021-01-28 14:05:05.614905"	30	2.93883275
"S210128"	"Response_Selection"	"LEFT"	"LEFT"	263.089100000002	800.0000016	n/a	n/a	n/a	n/a	n/a	n/a	n/a	"2021-01-28 14:05:06.422920"	"2021-01-28 14:05:06.894164"	31	2.93883275
"S210128"	"Response_Selection"	"RIGHT"	"RIGHT"	277.674199999979	1250.0000025	n/a	n/a	n/a	n/a	n/a	n/a	n/a	"2021-01-28 14:05:08.152986"	"2021-01-28 14:05:08.638945"	32	2.93883275
"S210128"	"Response_Selection"	"LEFT"	"LEFT"	245.814600000017	1416.6666695	n/a	n/a	n/a	n/a	n/a	n/a	n/a	"2021-01-28 14:05:10.064675"	"2021-01-28 14:05:10.518903"	33	2.93883275
"S210128"	"Response_Selection"	"LEFT"	"LEFT"	335.055199999999	583.3333345	n/a	n/a	n/a	n/a	n/a	n/a	n/a	"2021-01-28 14:05:11.111319"	"2021-01-28 14:05:11.654768"	34	2.93883275
"S210128"	"Response_Selection"	"LEFT"	"LEFT"	282.994000000031	700.0000014	n/a	n/a	n/a	n/a	n/a	n/a	n/a	"2021-01-28 14:05:12.362993"	"2021-01-28 14:05:12.854677"	35	2.93883275
"S210128"	"Response_Selection"	"LEFT"	"LEFT"	270.357099999956	1216.6666691	n/a	n/a	n/a	n/a	n/a	n/a	n/a	"2021-01-28 14:05:14.080098"	"2021-01-28 14:05:14.558561"	36	2.93883275
"S210128"	"Response_Selection"	"LEFT"	"LEFT"	304.517699999963	1083.3333355	n/a	n/a	n/a	n/a	n/a	n/a	n/a	"2021-01-28 14:05:15.653760"	"2021-01-28 14:05:16.166758"	37	2.93883275
"S210128"	"Response_Selection"	"RIGHT"	"RIGHT"	277.217000000007	650.0000013	n/a	n/a	n/a	n/a	n/a	n/a	n/a	"2021-01-28 14:05:16.825056"	"2021-01-28 14:05:17.309881"	38	2.93883275
"S210128"	"Response_Selection"	"LEFT"	"LEFT"	264.48739999995	983.3333353	n/a	n/a	n/a	n/a	n/a	n/a	n/a	"2021-01-28 14:05:18.302299"	"2021-01-28 14:05:18.773989"	39	2.93883275
"S210128"	"Response_Selection"	"LEFT"	"LEFT"	265.260399999988	1166.666669	n/a	n/a	n/a	n/a	n/a	n/a	n/a	"2021-01-28 14:05:19.948874"	"2021-01-28 14:05:20.422605"	40	2.93883275
"S210128"	"Response_Selection"	"RIGHT"	"LEFT"	297.179699999958	750.0000015	n/a	n/a	n/a	n/a	n/a	n/a	n/a	"2021-01-28 14:05:21.181258"	"2021-01-28 14:05:21.686872"	41	2.93883275
"S210128"	"Response_Selection"	"LEFT"	"LEFT"	349.388200000021	833.333335	n/a	n/a	n/a	n/a	n/a	n/a	n/a	"2021-01-28 14:05:22.529259"	"2021-01-28 14:05:23.086616"	42	2.93883275
"S210128"	"Response_Selection"	"RIGHT"	"RIGHT"	257.614499999988	1350.0000027	n/a	n/a	n/a	n/a	n/a	n/a	n/a	"2021-01-28 14:05:24.444720"	"2021-01-28 14:05:24.911165"	43	2.93883275
"S210128"	"Response_Selection"	"RIGHT"	"RIGHT"	319.282699999974	783.3333349	n/a	n/a	n/a	n/a	n/a	n/a	n/a	"2021-01-28 14:05:25.702932"	"2021-01-28 14:05:26.230520"	44	2.93883275
"S210128"	"Response_Selection"	"LEFT"	"LEFT"	285.202499999968	1250.0000025	n/a	n/a	n/a	n/a	n/a	n/a	n/a	"2021-01-28 14:05:27.488666"	"2021-01-28 14:05:27.981333"	45	2.93883275
"S210128"	"Response_Selection"	"LEFT"	"LEFT"	316.95209999998	1066.6666688	n/a	n/a	n/a	n/a	n/a	n/a	n/a	"2021-01-28 14:05:29.057549"	"2021-01-28 14:05:29.581199"	46	2.93883275
"S210128"	"Response_Selection"	"RIGHT"	"RIGHT"	295.480400000031	600.0000012	n/a	n/a	n/a	n/a	n/a	n/a	n/a	"2021-01-28 14:05:30.190297"	"2021-01-28 14:05:30.694608"	47	2.93883275
"S210128"	"Response_Selection"	"RIGHT"	"RIGHT"	348.503499999993	866.6666684	n/a	n/a	n/a	n/a	n/a	n/a	n/a	"2021-01-28 14:05:31.569511"	"2021-01-28 14:05:32.126021"	48	2.93883275
"S210128"	"Response_Selection"	"LEFT"	"LEFT"	291.125899999997	1316.6666693	n/a	n/a	n/a	n/a	n/a	n/a	n/a	"2021-01-28 14:05:33.451118"	"2021-01-28 14:05:33.950503"	49	2.93883275
"S210128"	"Response_Selection"	"RIGHT"	"RIGHT"	244.289399999957	1450.0000029	n/a	n/a	n/a	n/a	n/a	n/a	n/a	"2021-01-28 14:05:35.410040"	"2021-01-28 14:05:35.862769"	50	2.93883275
"S210128"	"Response_Selection"	"RIGHT"	"RIGHT"	330.459499999961	1300.0000026	n/a	n/a	n/a	n/a	n/a	n/a	n/a	"2021-01-28 14:05:37.172210"	"2021-01-28 14:05:37.710766"	51	2.93883275
"S210128"	"Response_Selection"	"RIGHT"	"RIGHT"	316.183700000011	1466.6666696	n/a	n/a	n/a	n/a	n/a	n/a	n/a	"2021-01-28 14:05:39.186051"	"2021-01-28 14:05:39.710659"	52	2.93883275
"S210128"	"Response_Selection"	"RIGHT"	"RIGHT"	305.938000000026	933.3333352	n/a	n/a	n/a	n/a	n/a	n/a	n/a	"2021-01-28 14:05:40.652333"	"2021-01-28 14:05:41.167453"	53	2.93883275
"S210128"	"Response_Selection"	"LEFT"	"LEFT"	276.281200000028	866.6666684	n/a	n/a	n/a	n/a	n/a	n/a	n/a	"2021-01-28 14:05:42.042801"	"2021-01-28 14:05:42.526444"	54	2.93883275
"S210128"	"Response_Selection"	"RIGHT"	"RIGHT"	270.050999999967	1416.6666695	n/a	n/a	n/a	n/a	n/a	n/a	n/a	"2021-01-28 14:05:43.952359"	"2021-01-28 14:05:44.430288"	55	2.93883275
"S210128"	"Response_Selection"	"LEFT"	"LEFT"	350.172400000019	600.0000012	n/a	n/a	n/a	n/a	n/a	n/a	n/a	"2021-01-28 14:05:45.039767"	"2021-01-28 14:05:45.597744"	56	2.93883275
"S210128"	"Response_Selection"	"RIGHT"	"RIGHT"	281.559300000026	1366.6666694	n/a	n/a	n/a	n/a	n/a	n/a	n/a	"2021-01-28 14:05:46.972853"	"2021-01-28 14:05:47.462543"	57	2.93883275
"S210128"	"Response_Selection"	"LEFT"	"LEFT"	263.356499999986	1016.6666687	n/a	n/a	n/a	n/a	n/a	n/a	n/a	"2021-01-28 14:05:48.487495"	"2021-01-28 14:05:48.958272"	58	2.93883275
"S210128"	"Response_Selection"	"RIGHT"	"RIGHT"	228.642500000035	1066.6666688	n/a	n/a	n/a	n/a	n/a	n/a	n/a	"2021-01-28 14:05:50.033538"	"2021-01-28 14:05:50.470172"	59	2.93883275
"S210128"	"Response_Selection"	"RIGHT"	"RIGHT"	333.113900000001	1266.6666692	n/a	n/a	n/a	n/a	n/a	n/a	n/a	"2021-01-28 14:05:51.744910"	"2021-01-28 14:05:52.286461"	60	2.93883275
"S210128"	"Response_Selection"	"RIGHT"	"RIGHT"	279.188799999986	1400.0000028	n/a	n/a	n/a	n/a	n/a	n/a	n/a	"2021-01-28 14:05:53.695421"	"2021-01-28 14:05:54.182119"	61	2.93883275
"S210128"	"Response_Selection"	"RIGHT"	"RIGHT"	307.087200000012	916.6666685	n/a	n/a	n/a	n/a	n/a	n/a	n/a	"2021-01-28 14:05:55.106724"	"2021-01-28 14:05:55.621759"	62	2.93883275
"S210128"	"Response_Selection"	"RIGHT"	"RIGHT"	271.734600000002	1216.6666691	n/a	n/a	n/a	n/a	n/a	n/a	n/a	"2021-01-28 14:05:56.846726"	"2021-01-28 14:05:57.326315"	63	2.93883275
"S210128"	"Response_Selection"	"LEFT"	"LEFT"	374.32530000001	633.3333346	n/a	n/a	n/a	n/a	n/a	n/a	n/a	"2021-01-28 14:05:57.967681"	"2021-01-28 14:05:58.550035"	64	2.93883275
"S210128"	"Response_Selection"	"LEFT"	"LEFT"	368.97909999999	750.0000015	n/a	n/a	n/a	n/a	n/a	n/a	n/a	"2021-01-28 14:05:59.309174"	"2021-01-28 14:05:59.886741"	65	2.93883275
"S210128"	"Response_Selection"	"RIGHT"	"RIGHT"	282.363699999962	1316.6666693	n/a	n/a	n/a	n/a	n/a	n/a	n/a	"2021-01-28 14:06:01.212116"	"2021-01-28 14:06:01.702122"	66	2.93883275
"S210128"	"Response_Selection"	"RIGHT"	"RIGHT"	319.940700000018	1200.0000024	n/a	n/a	n/a	n/a	n/a	n/a	n/a	"2021-01-28 14:06:02.910189"	"2021-01-28 14:06:03.438892"	67	2.93883275
"S210128"	"Response_Selection"	"RIGHT"	"RIGHT"	339.234499999975	700.0000014	n/a	n/a	n/a	n/a	n/a	n/a	n/a	"2021-01-28 14:06:04.147292"	"2021-01-28 14:06:04.694671"	68	2.93883275
"S210128"	"Response_Selection"	"LEFT"	"LEFT"	345.779900000025	1133.3333356	n/a	n/a	n/a	n/a	n/a	n/a	n/a	"2021-01-28 14:06:05.836398"	"2021-01-28 14:06:06.390661"	69	2.93883275
"S210128"	"Response_Selection"	"LEFT"	"LEFT"	326.936900000021	1400.0000028	n/a	n/a	n/a	n/a	n/a	n/a	n/a	"2021-01-28 14:06:07.799670"	"2021-01-28 14:06:08.334772"	70	2.93883275
"S210128"	"Response_Selection"	"RIGHT"	"RIGHT"	295.793800000013	983.3333353	n/a	n/a	n/a	n/a	n/a	n/a	n/a	"2021-01-28 14:06:09.326639"	"2021-01-28 14:06:09.829022"	71	2.93883275
"S210128"	"Response_Selection"	"RIGHT"	"RIGHT"	470.983500000045	633.3333346	n/a	n/a	n/a	n/a	n/a	n/a	n/a	"2021-01-28 14:06:10.471356"	"2021-01-28 14:06:11.150603"	72	2.93883275
"S210128"	"Response_Selection"	"LEFT"	"LEFT"	292.584099999999	1266.6666692	n/a	n/a	n/a	n/a	n/a	n/a	n/a	"2021-01-28 14:06:12.426030"	"2021-01-28 14:06:12.926654"	73	2.93883275
"S210128"	"Response_Selection"	"RIGHT"	"RIGHT"	258.102000000008	733.3333348	n/a	n/a	n/a	n/a	n/a	n/a	n/a	"2021-01-28 14:06:13.668171"	"2021-01-28 14:06:14.134923"	74	2.93883275
"S210128"	"Response_Selection"	"RIGHT"	"RIGHT"	327.917000000014	966.6666686	n/a	n/a	n/a	n/a	n/a	n/a	n/a	"2021-01-28 14:06:15.110687"	"2021-01-28 14:06:15.645256"	75	2.93883275
"S210128"	"Response_Selection"	"LEFT"	"LEFT"	244.538799999987	1300.0000026	n/a	n/a	n/a	n/a	n/a	n/a	n/a	"2021-01-28 14:06:16.953323"	"2021-01-28 14:06:17.406172"	76	2.93883275
"S210128"	"Response_Selection"	"RIGHT"	"RIGHT"	266.45480000002	1133.3333356	n/a	n/a	n/a	n/a	n/a	n/a	n/a	"2021-01-28 14:06:18.547511"	"2021-01-28 14:06:19.021500"	77	2.93883275
"S210128"	"Response_Selection"	"LEFT"	"LEFT"	316.959700000041	683.3333347	n/a	n/a	n/a	n/a	n/a	n/a	n/a	"2021-01-28 14:06:19.712869"	"2021-01-28 14:06:20.238195"	78	2.93883275
"S210128"	"Response_Selection"	"RIGHT"	"RIGHT"	267.188800000042	1500.000003	n/a	n/a	n/a	n/a	n/a	n/a	n/a	"2021-01-28 14:06:21.746900"	"2021-01-28 14:06:22.222627"	79	2.93883275
"S210128"	"Response_Selection"	"RIGHT"	"RIGHT"	322.259300000042	1116.6666689	n/a	n/a	n/a	n/a	n/a	n/a	n/a	"2021-01-28 14:06:23.347716"	"2021-01-28 14:06:23.877763"	80	2.93883275
