"Participant"	"Task"	"Stimulus_Side"	"Response"	"RT"	"ITI"	"Previous_Response"	"Previous_RT"	"Stop_Signal"	"Stop_Signal_RT"	"Conflict"	"Cue_Response"	"Cue_Response_RT"	"Trial_Onset"	"Trial_End"	"Trial_Order"	"Duration"
"S210127"	"Conflict_Resolution"	"RIGHT"	"RIGHT"	684.056400000031	1000.000002	n/a	n/a	n/a	n/a	"True"	n/a	n/a	"2021-01-27 14:17:52.825119"	"2021-01-27 14:17:53.716978"	1	6.36610011666667
"S210127"	"Conflict_Resolution"	"RIGHT"	"RIGHT"	505.39219999996	700.0000014	n/a	n/a	n/a	n/a	"False"	n/a	n/a	"2021-01-27 14:17:54.436462"	"2021-01-27 14:17:55.149577"	2	6.36610011666667
"S210127"	"Conflict_Resolution"	"LEFT"	"LEFT"	393.16610000003	1500.000003	n/a	n/a	n/a	n/a	"False"	n/a	n/a	"2021-01-27 14:17:56.668140"	"2021-01-27 14:17:57.269904"	3	6.36610011666667
"S210127"	"Conflict_Resolution"	"LEFT"	"LEFT"	722.52519999995	633.3333346	n/a	n/a	n/a	n/a	"True"	n/a	n/a	"2021-01-27 14:17:57.923192"	"2021-01-27 14:17:58.853824"	4	6.36610011666667
"S210127"	"Conflict_Resolution"	"RIGHT"	"RIGHT"	527.186499999971	1133.3333356	n/a	n/a	n/a	n/a	"True"	n/a	n/a	"2021-01-27 14:18:00.006388"	"2021-01-27 14:18:00.741843"	5	6.36610011666667
"S210127"	"Conflict_Resolution"	"RIGHT"	"RIGHT"	491.044800000054	1050.0000021	n/a	n/a	n/a	n/a	"True"	n/a	n/a	"2021-01-27 14:18:01.811100"	"2021-01-27 14:18:02.509522"	6	6.36610011666667
"S210127"	"Conflict_Resolution"	"RIGHT"	"RIGHT"	400.063799999998	1133.3333356	n/a	n/a	n/a	n/a	"False"	n/a	n/a	"2021-01-27 14:18:03.661168"	"2021-01-27 14:18:04.269552"	7	6.36610011666667
"S210127"	"Conflict_Resolution"	"RIGHT"	"LEFT"	406.919600000037	1150.0000023	n/a	n/a	n/a	n/a	"True"	n/a	n/a	"2021-01-27 14:18:05.438731"	"2021-01-27 14:18:06.054076"	8	6.36610011666667
"S210127"	"Conflict_Resolution"	"LEFT"	"LEFT"	627.713900000003	616.6666679	n/a	n/a	n/a	n/a	"True"	n/a	n/a	"2021-01-27 14:18:06.689609"	"2021-01-27 14:18:07.524553"	9	6.36610011666667
"S210127"	"Conflict_Resolution"	"RIGHT"	"RIGHT"	422.764499999971	1183.3333357	n/a	n/a	n/a	n/a	"False"	n/a	n/a	"2021-01-27 14:18:08.727235"	"2021-01-27 14:18:09.358040"	10	6.36610011666667
"S210127"	"Conflict_Resolution"	"RIGHT"	"RIGHT"	538.577700000019	850.0000017	n/a	n/a	n/a	n/a	"True"	n/a	n/a	"2021-01-27 14:18:10.226757"	"2021-01-27 14:18:10.973107"	11	6.36610011666667
"S210127"	"Conflict_Resolution"	"RIGHT"	"RIGHT"	370.387800000003	1433.3333362	n/a	n/a	n/a	n/a	"False"	n/a	n/a	"2021-01-27 14:18:12.426938"	"2021-01-27 14:18:13.006799"	12	6.36610011666667
"S210127"	"Conflict_Resolution"	"RIGHT"	"RIGHT"	517.353899999989	733.3333348	n/a	n/a	n/a	n/a	"True"	n/a	n/a	"2021-01-27 14:18:13.760316"	"2021-01-27 14:18:14.485605"	13	6.36610011666667
"S210127"	"Conflict_Resolution"	"LEFT"	"LEFT"	604.99260000006	1316.6666693	n/a	n/a	n/a	n/a	"True"	n/a	n/a	"2021-01-27 14:18:15.824658"	"2021-01-27 14:18:16.638374"	14	6.36610011666667
"S210127"	"Conflict_Resolution"	"LEFT"	"LEFT"	523.32750000005	866.6666684	n/a	n/a	n/a	n/a	"True"	n/a	n/a	"2021-01-27 14:18:17.522011"	"2021-01-27 14:18:18.252571"	15	6.36610011666667
"S210127"	"Conflict_Resolution"	"LEFT"	"LEFT"	516.752500000052	1050.0000021	n/a	n/a	n/a	n/a	"False"	n/a	n/a	"2021-01-27 14:18:19.320488"	"2021-01-27 14:18:20.045351"	16	6.36610011666667
"S210127"	"Conflict_Resolution"	"RIGHT"	"RIGHT"	695.785199999932	933.3333352	n/a	n/a	n/a	n/a	"True"	n/a	n/a	"2021-01-27 14:18:20.998157"	"2021-01-27 14:18:21.900742"	17	6.36610011666667
"S210127"	"Conflict_Resolution"	"RIGHT"	"RIGHT"	465.84160000009	1366.6666694	n/a	n/a	n/a	n/a	"True"	n/a	n/a	"2021-01-27 14:18:23.284682"	"2021-01-27 14:18:23.958827"	18	6.36610011666667
"S210127"	"Conflict_Resolution"	"LEFT"	"LEFT"	523.163599999975	1016.6666687	n/a	n/a	n/a	n/a	"True"	n/a	n/a	"2021-01-27 14:18:24.994690"	"2021-01-27 14:18:25.724735"	19	6.36610011666667
"S210127"	"Conflict_Resolution"	"RIGHT"	"RIGHT"	531.510799999978	1433.3333362	n/a	n/a	n/a	n/a	"True"	n/a	n/a	"2021-01-27 14:18:27.178203"	"2021-01-27 14:18:27.916909"	20	6.36610011666667
"S210127"	"Conflict_Resolution"	"RIGHT"	"RIGHT"	590.543400000001	1383.3333361	n/a	n/a	n/a	n/a	"True"	n/a	n/a	"2021-01-27 14:18:29.319320"	"2021-01-27 14:18:30.118243"	21	6.36610011666667
"S210127"	"Conflict_Resolution"	"LEFT"	"LEFT"	536.434600000007	1300.0000026	n/a	n/a	n/a	n/a	"True"	n/a	n/a	"2021-01-27 14:18:31.437481"	"2021-01-27 14:18:32.181597"	22	6.36610011666667
"S210127"	"Conflict_Resolution"	"RIGHT"	"RIGHT"	435.888100000057	1233.3333358	n/a	n/a	n/a	n/a	"False"	n/a	n/a	"2021-01-27 14:18:33.433990"	"2021-01-27 14:18:34.077144"	23	6.36610011666667
"S210127"	"Conflict_Resolution"	"LEFT"	"LEFT"	357.284100000015	1200.0000024	n/a	n/a	n/a	n/a	"False"	n/a	n/a	"2021-01-27 14:18:35.295983"	"2021-01-27 14:18:35.861665"	24	6.36610011666667
"S210127"	"Conflict_Resolution"	"RIGHT"	"RIGHT"	441.717899999958	900.0000018	n/a	n/a	n/a	n/a	"True"	n/a	n/a	"2021-01-27 14:18:36.780184"	"2021-01-27 14:18:37.428802"	25	6.36610011666667
"S210127"	"Conflict_Resolution"	"RIGHT"	"RIGHT"	509.962299999984	500.000001	n/a	n/a	n/a	n/a	"True"	n/a	n/a	"2021-01-27 14:18:37.952014"	"2021-01-27 14:18:38.669481"	26	6.36610011666667
"S210127"	"Conflict_Resolution"	"RIGHT"	"RIGHT"	369.528700000046	733.3333348	n/a	n/a	n/a	n/a	"False"	n/a	n/a	"2021-01-27 14:18:39.419770"	"2021-01-27 14:18:39.998227"	27	6.36610011666667
"S210127"	"Conflict_Resolution"	"LEFT"	"LEFT"	412.076800000023	616.6666679	n/a	n/a	n/a	n/a	"False"	n/a	n/a	"2021-01-27 14:18:40.633531"	"2021-01-27 14:18:41.253312"	28	6.36610011666667
"S210127"	"Conflict_Resolution"	"RIGHT"	"RIGHT"	449.969199999941	1466.6666696	n/a	n/a	n/a	n/a	"False"	n/a	n/a	"2021-01-27 14:18:42.739174"	"2021-01-27 14:18:43.397932"	29	6.36610011666667
"S210127"	"Conflict_Resolution"	"LEFT"	"LEFT"	446.709999999939	583.3333345	n/a	n/a	n/a	n/a	"True"	n/a	n/a	"2021-01-27 14:18:43.998890"	"2021-01-27 14:18:44.652861"	30	6.36610011666667
"S210127"	"Conflict_Resolution"	"RIGHT"	"RIGHT"	299.721599999998	633.3333346	n/a	n/a	n/a	n/a	"False"	n/a	n/a	"2021-01-27 14:18:45.305910"	"2021-01-27 14:18:45.813795"	31	6.36610011666667
"S210127"	"Conflict_Resolution"	"RIGHT"	"RIGHT"	540.831000000026	583.3333345	n/a	n/a	n/a	n/a	"True"	n/a	n/a	"2021-01-27 14:18:46.417181"	"2021-01-27 14:18:47.166288"	32	6.36610011666667
"S210127"	"Conflict_Resolution"	"RIGHT"	"RIGHT"	351.845600000047	1316.6666693	n/a	n/a	n/a	n/a	"False"	n/a	n/a	"2021-01-27 14:18:48.501896"	"2021-01-27 14:18:49.061948"	33	6.36610011666667
"S210127"	"Conflict_Resolution"	"RIGHT"	"RIGHT"	355.392499999994	1416.6666695	n/a	n/a	n/a	n/a	"False"	n/a	n/a	"2021-01-27 14:18:50.497727"	"2021-01-27 14:18:51.061629"	34	6.36610011666667
"S210127"	"Conflict_Resolution"	"RIGHT"	"RIGHT"	315.062399999988	1050.0000021	n/a	n/a	n/a	n/a	"False"	n/a	n/a	"2021-01-27 14:18:52.130450"	"2021-01-27 14:18:52.654183"	35	6.36610011666667
"S210127"	"Conflict_Resolution"	"LEFT"	"LEFT"	385.025400000018	716.6666681	n/a	n/a	n/a	n/a	"False"	n/a	n/a	"2021-01-27 14:18:53.388374"	"2021-01-27 14:18:53.980741"	36	6.36610011666667
"S210127"	"Conflict_Resolution"	"RIGHT"	"RIGHT"	452.8818	600.0000012	n/a	n/a	n/a	n/a	"True"	n/a	n/a	"2021-01-27 14:18:54.600761"	"2021-01-27 14:18:55.260499"	37	6.36610011666667
"S210127"	"Conflict_Resolution"	"LEFT"	"LEFT"	323.301899999933	1066.6666688	n/a	n/a	n/a	n/a	"False"	n/a	n/a	"2021-01-27 14:18:56.346494"	"2021-01-27 14:18:56.876881"	38	6.36610011666667
"S210127"	"Conflict_Resolution"	"RIGHT"	"RIGHT"	452.061299999968	633.3333346	n/a	n/a	n/a	n/a	"True"	n/a	n/a	"2021-01-27 14:18:57.529151"	"2021-01-27 14:18:58.188587"	39	6.36610011666667
"S210127"	"Conflict_Resolution"	"RIGHT"	"RIGHT"	338.184699999942	900.0000018	n/a	n/a	n/a	n/a	"False"	n/a	n/a	"2021-01-27 14:18:59.107332"	"2021-01-27 14:18:59.654185"	40	6.36610011666667
"S210127"	"Conflict_Resolution"	"LEFT"	"LEFT"	483.623599999987	1216.6666691	n/a	n/a	n/a	n/a	"False"	n/a	n/a	"2021-01-27 14:19:00.889999"	"2021-01-27 14:19:01.582146"	41	6.36610011666667
"S210127"	"Conflict_Resolution"	"LEFT"	"LEFT"	366.196999999943	950.0000019	n/a	n/a	n/a	n/a	"False"	n/a	n/a	"2021-01-27 14:19:02.551846"	"2021-01-27 14:19:03.125530"	42	6.36610011666667
"S210127"	"Conflict_Resolution"	"LEFT"	"LEFT"	374.04319999996	1150.0000023	n/a	n/a	n/a	n/a	"False"	n/a	n/a	"2021-01-27 14:19:04.295568"	"2021-01-27 14:19:04.878004"	43	6.36610011666667
"S210127"	"Conflict_Resolution"	"LEFT"	"LEFT"	458.650499999976	1050.0000021	n/a	n/a	n/a	n/a	"True"	n/a	n/a	"2021-01-27 14:19:05.947265"	"2021-01-27 14:19:06.614109"	44	6.36610011666667
"S210127"	"Conflict_Resolution"	"LEFT"	"LEFT"	383.708600000091	1116.6666689	n/a	n/a	n/a	n/a	"False"	n/a	n/a	"2021-01-27 14:19:07.750223"	"2021-01-27 14:19:08.341232"	45	6.36610011666667
"S210127"	"Conflict_Resolution"	"RIGHT"	"LEFT"	337.614799999983	883.3333351	n/a	n/a	n/a	n/a	"False"	n/a	n/a	"2021-01-27 14:19:09.243402"	"2021-01-27 14:19:09.788414"	46	6.36610011666667
"S210127"	"Conflict_Resolution"	"LEFT"	"LEFT"	543.240200000014	1400.0000028	n/a	n/a	n/a	n/a	"True"	n/a	n/a	"2021-01-27 14:19:11.206514"	"2021-01-27 14:19:11.957625"	47	6.36610011666667
"S210127"	"Conflict_Resolution"	"LEFT"	"LEFT"	618.587299999945	666.666668	n/a	n/a	n/a	n/a	"True"	n/a	n/a	"2021-01-27 14:19:12.642805"	"2021-01-27 14:19:13.470103"	48	6.36610011666667
"S210127"	"Conflict_Resolution"	"LEFT"	"LEFT"	593.687799999998	1250.0000025	n/a	n/a	n/a	n/a	"True"	n/a	n/a	"2021-01-27 14:19:14.740358"	"2021-01-27 14:19:15.540722"	49	6.36610011666667
"S210127"	"Conflict_Resolution"	"LEFT"	"LEFT"	365.887499999985	1366.6666694	n/a	n/a	n/a	n/a	"False"	n/a	n/a	"2021-01-27 14:19:16.928183"	"2021-01-27 14:19:17.500652"	50	6.36610011666667
"S210127"	"Conflict_Resolution"	"RIGHT"	"RIGHT"	354.750400000057	1266.6666692	n/a	n/a	n/a	n/a	"False"	n/a	n/a	"2021-01-27 14:19:18.786973"	"2021-01-27 14:19:19.349774"	51	6.36610011666667
"S210127"	"Conflict_Resolution"	"RIGHT"	"RIGHT"	409.430400000019	883.3333351	n/a	n/a	n/a	n/a	"True"	n/a	n/a	"2021-01-27 14:19:20.251953"	"2021-01-27 14:19:20.870298"	52	6.36610011666667
"S210127"	"Conflict_Resolution"	"RIGHT"	"RIGHT"	370.479300000056	1233.3333358	n/a	n/a	n/a	n/a	"True"	n/a	n/a	"2021-01-27 14:19:22.123549"	"2021-01-27 14:19:22.702096"	53	6.36610011666667
"S210127"	"Conflict_Resolution"	"LEFT"	"LEFT"	529.238300000088	1266.6666692	n/a	n/a	n/a	n/a	"False"	n/a	n/a	"2021-01-27 14:19:23.988348"	"2021-01-27 14:19:24.725090"	54	6.36610011666667
"S210127"	"Conflict_Resolution"	"LEFT"	"LEFT"	480.725900000039	716.6666681	n/a	n/a	n/a	n/a	"True"	n/a	n/a	"2021-01-27 14:19:25.460666"	"2021-01-27 14:19:26.148878"	55	6.36610011666667
"S210127"	"Conflict_Resolution"	"LEFT"	"LEFT"	608.409199999983	1116.6666689	n/a	n/a	n/a	n/a	"True"	n/a	n/a	"2021-01-27 14:19:27.285541"	"2021-01-27 14:19:28.101993"	56	6.36610011666667
"S210127"	"Conflict_Resolution"	"RIGHT"	"RIGHT"	538.818300000003	1083.3333355	n/a	n/a	n/a	n/a	"False"	n/a	n/a	"2021-01-27 14:19:29.202767"	"2021-01-27 14:19:29.949788"	57	6.36610011666667
"S210127"	"Conflict_Resolution"	"LEFT"	"LEFT"	435.30039999996	666.666668	n/a	n/a	n/a	n/a	"False"	n/a	n/a	"2021-01-27 14:19:30.634011"	"2021-01-27 14:19:31.277898"	58	6.36610011666667
"S210127"	"Conflict_Resolution"	"RIGHT"	"RIGHT"	342.314100000067	750.0000015	n/a	n/a	n/a	n/a	"False"	n/a	n/a	"2021-01-27 14:19:32.047390"	"2021-01-27 14:19:32.597581"	59	6.36610011666667
"S210127"	"Conflict_Resolution"	"LEFT"	"LEFT"	455.248799999936	783.3333349	n/a	n/a	n/a	n/a	"True"	n/a	n/a	"2021-01-27 14:19:33.398563"	"2021-01-27 14:19:34.062749"	60	6.36610011666667
"S210127"	"Conflict_Resolution"	"RIGHT"	"RIGHT"	389.769200000046	783.3333349	n/a	n/a	n/a	n/a	"False"	n/a	n/a	"2021-01-27 14:19:34.863881"	"2021-01-27 14:19:35.460761"	61	6.36610011666667
"S210127"	"Conflict_Resolution"	"RIGHT"	"RIGHT"	487.492900000007	783.3333349	n/a	n/a	n/a	n/a	"True"	n/a	n/a	"2021-01-27 14:19:36.261619"	"2021-01-27 14:19:36.956721"	62	6.36610011666667
"S210127"	"Conflict_Resolution"	"RIGHT"	"LEFT"	375.652999999943	533.3333344	n/a	n/a	n/a	n/a	"True"	n/a	n/a	"2021-01-27 14:19:37.510242"	"2021-01-27 14:19:38.093732"	63	6.36610011666667
"S210127"	"Conflict_Resolution"	"LEFT"	"LEFT"	471.608800000013	766.6666682	n/a	n/a	n/a	n/a	"False"	n/a	n/a	"2021-01-27 14:19:38.877562"	"2021-01-27 14:19:39.556775"	64	6.36610011666667
"S210127"	"Conflict_Resolution"	"LEFT"	"LEFT"	350.601099999949	1016.6666687	n/a	n/a	n/a	n/a	"False"	n/a	n/a	"2021-01-27 14:19:40.591125"	"2021-01-27 14:19:41.149135"	65	6.36610011666667
"S210127"	"Conflict_Resolution"	"LEFT"	"LEFT"	360.140799999954	733.3333348	n/a	n/a	n/a	n/a	"False"	n/a	n/a	"2021-01-27 14:19:41.900956"	"2021-01-27 14:19:42.470003"	66	6.36610011666667
"S210127"	"Conflict_Resolution"	"LEFT"	"LEFT"	321.203399999945	900.0000018	n/a	n/a	n/a	n/a	"False"	n/a	n/a	"2021-01-27 14:19:43.388206"	"2021-01-27 14:19:43.916620"	67	6.36610011666667
"S210127"	"Conflict_Resolution"	"LEFT"	"LEFT"	528.012399999966	916.6666685	n/a	n/a	n/a	n/a	"True"	n/a	n/a	"2021-01-27 14:19:44.853820"	"2021-01-27 14:19:45.589875"	68	6.36610011666667
"S210127"	"Conflict_Resolution"	"LEFT"	"LEFT"	481.175599999915	900.0000018	n/a	n/a	n/a	n/a	"True"	n/a	n/a	"2021-01-27 14:19:46.508030"	"2021-01-27 14:19:47.197056"	69	6.36610011666667
"S210127"	"Conflict_Resolution"	"LEFT"	"LEFT"	475.559800000042	1450.0000029	n/a	n/a	n/a	n/a	"True"	n/a	n/a	"2021-01-27 14:19:48.666250"	"2021-01-27 14:19:49.349788"	70	6.36610011666667
"S210127"	"Conflict_Resolution"	"RIGHT"	"RIGHT"	468.751300000008	833.333335	n/a	n/a	n/a	n/a	"False"	n/a	n/a	"2021-01-27 14:19:50.200608"	"2021-01-27 14:19:50.877480"	71	6.36610011666667
"S210127"	"Conflict_Resolution"	"LEFT"	"RIGHT"	326.784500000031	1350.0000027	n/a	n/a	n/a	n/a	"True"	n/a	n/a	"2021-01-27 14:19:52.246573"	"2021-01-27 14:19:52.780636"	72	6.36610011666667
"S210127"	"Conflict_Resolution"	"LEFT"	"LEFT"	732.487099999958	1216.6666691	n/a	n/a	n/a	n/a	"True"	n/a	n/a	"2021-01-27 14:19:54.017202"	"2021-01-27 14:19:54.957835"	73	6.36610011666667
"S210127"	"Conflict_Resolution"	"LEFT"	"LEFT"	379.660899999976	1250.0000025	n/a	n/a	n/a	n/a	"False"	n/a	n/a	"2021-01-27 14:19:56.225241"	"2021-01-27 14:19:56.813667"	74	6.36610011666667
"S210127"	"Conflict_Resolution"	"RIGHT"	"RIGHT"	521.844200000032	1483.3333363	n/a	n/a	n/a	n/a	"False"	n/a	n/a	"2021-01-27 14:19:58.315303"	"2021-01-27 14:19:59.045115"	75	6.36610011666667
"S210127"	"Conflict_Resolution"	"RIGHT"	"RIGHT"	399.331800000027	500.000001	n/a	n/a	n/a	n/a	"False"	n/a	n/a	"2021-01-27 14:19:59.565862"	"2021-01-27 14:20:00.174149"	76	6.36610011666667
"S210127"	"Conflict_Resolution"	"LEFT"	"LEFT"	446.933599999966	733.3333348	n/a	n/a	n/a	n/a	"True"	n/a	n/a	"2021-01-27 14:20:00.926733"	"2021-01-27 14:20:01.581089"	77	6.36610011666667
"S210127"	"Conflict_Resolution"	"RIGHT"	"RIGHT"	502.910700000029	750.0000015	n/a	n/a	n/a	n/a	"True"	n/a	n/a	"2021-01-27 14:20:02.351081"	"2021-01-27 14:20:03.060416"	78	6.36610011666667
"S210127"	"Conflict_Resolution"	"RIGHT"	"RIGHT"	563.374599999975	1266.6666692	n/a	n/a	n/a	n/a	"True"	n/a	n/a	"2021-01-27 14:20:04.345957"	"2021-01-27 14:20:05.117977"	79	6.36610011666667
"S210127"	"Conflict_Resolution"	"RIGHT"	"RIGHT"	382.936300000097	983.3333353	n/a	n/a	n/a	n/a	"False"	n/a	n/a	"2021-01-27 14:20:06.118360"	"2021-01-27 14:20:06.709643"	80	6.36610011666667
"S210127"	"Conflict_Resolution"	"RIGHT"	"RIGHT"	383.282299999905	933.3333352	n/a	n/a	n/a	n/a	"False"	n/a	n/a	"2021-01-27 14:20:07.662271"	"2021-01-27 14:20:08.253525"	81	6.36610011666667
"S210127"	"Conflict_Resolution"	"LEFT"	"LEFT"	568.624699999987	1100.0000022	n/a	n/a	n/a	n/a	"False"	n/a	n/a	"2021-01-27 14:20:09.373402"	"2021-01-27 14:20:10.150365"	82	6.36610011666667
"S210127"	"Conflict_Resolution"	"RIGHT"	"RIGHT"	446.997300000021	533.3333344	n/a	n/a	n/a	n/a	"False"	n/a	n/a	"2021-01-27 14:20:10.702431"	"2021-01-27 14:20:11.357643"	83	6.36610011666667
"S210127"	"Conflict_Resolution"	"RIGHT"	"RIGHT"	407.455599999935	1333.333336	n/a	n/a	n/a	n/a	"False"	n/a	n/a	"2021-01-27 14:20:12.710308"	"2021-01-27 14:20:13.326353"	84	6.36610011666667
"S210127"	"Conflict_Resolution"	"RIGHT"	"RIGHT"	519.145600000002	1283.3333359	n/a	n/a	n/a	n/a	"True"	n/a	n/a	"2021-01-27 14:20:14.630327"	"2021-01-27 14:20:15.357045"	85	6.36610011666667
"S210127"	"Conflict_Resolution"	"RIGHT"	"RIGHT"	442.321099999958	1316.6666693	n/a	n/a	n/a	n/a	"True"	n/a	n/a	"2021-01-27 14:20:16.691009"	"2021-01-27 14:20:17.341467"	86	6.36610011666667
"S210127"	"Conflict_Resolution"	"RIGHT"	"RIGHT"	389.605899999992	983.3333353	n/a	n/a	n/a	n/a	"True"	n/a	n/a	"2021-01-27 14:20:18.344072"	"2021-01-27 14:20:18.940718"	87	6.36610011666667
"S210127"	"Conflict_Resolution"	"RIGHT"	"RIGHT"	343.343699999991	1366.6666694	n/a	n/a	n/a	n/a	"False"	n/a	n/a	"2021-01-27 14:20:20.325977"	"2021-01-27 14:20:20.876502"	88	6.36610011666667
"S210127"	"Conflict_Resolution"	"LEFT"	"LEFT"	618.654399999969	683.3333347	n/a	n/a	n/a	n/a	"True"	n/a	n/a	"2021-01-27 14:20:21.578637"	"2021-01-27 14:20:22.404535"	89	6.36610011666667
"S210127"	"Conflict_Resolution"	"RIGHT"	"RIGHT"	539.574799999855	1466.6666696	n/a	n/a	n/a	n/a	"True"	n/a	n/a	"2021-01-27 14:20:23.889818"	"2021-01-27 14:20:24.637442"	90	6.36610011666667
"S210127"	"Conflict_Resolution"	"LEFT"	"LEFT"	526.623799999925	766.6666682	n/a	n/a	n/a	n/a	"True"	n/a	n/a	"2021-01-27 14:20:25.422358"	"2021-01-27 14:20:26.156491"	91	6.36610011666667
"S210127"	"Conflict_Resolution"	"LEFT"	"LEFT"	436.340299999983	633.3333346	n/a	n/a	n/a	n/a	"False"	n/a	n/a	"2021-01-27 14:20:26.808797"	"2021-01-27 14:20:27.453917"	92	6.36610011666667
"S210127"	"Conflict_Resolution"	"LEFT"	"LEFT"	367.66149999994	916.6666685	n/a	n/a	n/a	n/a	"False"	n/a	n/a	"2021-01-27 14:20:28.389927"	"2021-01-27 14:20:28.964979"	93	6.36610011666667
"S210127"	"Conflict_Resolution"	"LEFT"	"LEFT"	419.201100000009	850.0000017	n/a	n/a	n/a	n/a	"False"	n/a	n/a	"2021-01-27 14:20:29.834134"	"2021-01-27 14:20:30.460456"	94	6.36610011666667
"S210127"	"Conflict_Resolution"	"LEFT"	"LEFT"	490.574599999945	533.3333344	n/a	n/a	n/a	n/a	"True"	n/a	n/a	"2021-01-27 14:20:31.010774"	"2021-01-27 14:20:31.709461"	95	6.36610011666667
"S210127"	"Conflict_Resolution"	"LEFT"	"LEFT"	494.090199999846	966.6666686	n/a	n/a	n/a	n/a	"True"	n/a	n/a	"2021-01-27 14:20:32.695787"	"2021-01-27 14:20:33.396532"	96	6.36610011666667
"S210127"	"Conflict_Resolution"	"LEFT"	"LEFT"	690.462199999956	1066.6666688	n/a	n/a	n/a	n/a	"True"	n/a	n/a	"2021-01-27 14:20:34.483585"	"2021-01-27 14:20:35.380808"	97	6.36610011666667
"S210127"	"Conflict_Resolution"	"RIGHT"	"RIGHT"	401.643900000181	850.0000017	n/a	n/a	n/a	n/a	"False"	n/a	n/a	"2021-01-27 14:20:36.252376"	"2021-01-27 14:20:36.862199"	98	6.36610011666667
"S210127"	"Conflict_Resolution"	"RIGHT"	"RIGHT"	479.465399999981	1083.3333355	n/a	n/a	n/a	n/a	"True"	n/a	n/a	"2021-01-27 14:20:37.966237"	"2021-01-27 14:20:38.654230"	99	6.36610011666667
"S210127"	"Conflict_Resolution"	"LEFT"	"LEFT"	565.686599999935	566.6666678	n/a	n/a	n/a	n/a	"True"	n/a	n/a	"2021-01-27 14:20:39.239700"	"2021-01-27 14:20:40.012634"	100	6.36610011666667
"S210127"	"Conflict_Resolution"	"RIGHT"	"RIGHT"	411.612999999988	650.0000013	n/a	n/a	n/a	n/a	"False"	n/a	n/a	"2021-01-27 14:20:40.681845"	"2021-01-27 14:20:41.301213"	101	6.36610011666667
"S210127"	"Conflict_Resolution"	"RIGHT"	"RIGHT"	471.021800000017	950.0000019	n/a	n/a	n/a	n/a	"True"	n/a	n/a	"2021-01-27 14:20:42.270786"	"2021-01-27 14:20:42.950021"	102	6.36610011666667
"S210127"	"Conflict_Resolution"	"RIGHT"	"RIGHT"	542.948799999976	1333.333336	n/a	n/a	n/a	n/a	"True"	n/a	n/a	"2021-01-27 14:20:44.302104"	"2021-01-27 14:20:45.053018"	103	6.36610011666667
"S210127"	"Conflict_Resolution"	"LEFT"	"LEFT"	407.686499999954	533.3333344	n/a	n/a	n/a	n/a	"False"	n/a	n/a	"2021-01-27 14:20:45.606078"	"2021-01-27 14:20:46.222163"	104	6.36610011666667
"S210127"	"Conflict_Resolution"	"LEFT"	"LEFT"	483.974500000159	1200.0000024	n/a	n/a	n/a	n/a	"True"	n/a	n/a	"2021-01-27 14:20:47.441442"	"2021-01-27 14:20:48.133044"	105	6.36610011666667
"S210127"	"Conflict_Resolution"	"RIGHT"	"RIGHT"	562.419200000022	1483.3333363	n/a	n/a	n/a	n/a	"True"	n/a	n/a	"2021-01-27 14:20:49.635569"	"2021-01-27 14:20:50.406386"	106	6.36610011666667
"S210127"	"Conflict_Resolution"	"LEFT"	"LEFT"	535.193799999888	1166.666669	n/a	n/a	n/a	n/a	"True"	n/a	n/a	"2021-01-27 14:20:51.590254"	"2021-01-27 14:20:52.334170"	107	6.36610011666667
"S210127"	"Conflict_Resolution"	"LEFT"	"LEFT"	572.088199999826	1000.000002	n/a	n/a	n/a	n/a	"True"	n/a	n/a	"2021-01-27 14:20:53.353097"	"2021-01-27 14:20:54.132521"	108	6.36610011666667
"S210127"	"Conflict_Resolution"	"RIGHT"	"RIGHT"	474.84489999988	683.3333347	n/a	n/a	n/a	n/a	"False"	n/a	n/a	"2021-01-27 14:20:54.834643"	"2021-01-27 14:20:55.518092"	109	6.36610011666667
"S210127"	"Conflict_Resolution"	"LEFT"	"LEFT"	546.262699999943	1100.0000022	n/a	n/a	n/a	n/a	"True"	n/a	n/a	"2021-01-27 14:20:56.635121"	"2021-01-27 14:20:57.388644"	110	6.36610011666667
"S210127"	"Conflict_Resolution"	"LEFT"	"LEFT"	472.809200000029	516.6666677	n/a	n/a	n/a	n/a	"False"	n/a	n/a	"2021-01-27 14:20:57.924240"	"2021-01-27 14:20:58.605847"	111	6.36610011666667
"S210127"	"Conflict_Resolution"	"RIGHT"	"RIGHT"	459.482999999864	1033.3333354	n/a	n/a	n/a	n/a	"False"	n/a	n/a	"2021-01-27 14:20:59.657421"	"2021-01-27 14:21:00.324758"	112	6.36610011666667
"S210127"	"Conflict_Resolution"	"LEFT"	"LEFT"	481.864099999939	1500.000003	n/a	n/a	n/a	n/a	"True"	n/a	n/a	"2021-01-27 14:21:01.843332"	"2021-01-27 14:21:02.532494"	113	6.36610011666667
"S210127"	"Conflict_Resolution"	"LEFT"	"LEFT"	387.574500000028	1266.6666692	n/a	n/a	n/a	n/a	"True"	n/a	n/a	"2021-01-27 14:21:03.817840"	"2021-01-27 14:21:04.413260"	114	6.36610011666667
"S210127"	"Conflict_Resolution"	"LEFT"	"LEFT"	402.644799999962	1466.6666696	n/a	n/a	n/a	n/a	"False"	n/a	n/a	"2021-01-27 14:21:05.898426"	"2021-01-27 14:21:06.510166"	115	6.36610011666667
"S210127"	"Conflict_Resolution"	"RIGHT"	"RIGHT"	424.047599999994	1100.0000022	n/a	n/a	n/a	n/a	"False"	n/a	n/a	"2021-01-27 14:21:07.629222"	"2021-01-27 14:21:08.260454"	116	6.36610011666667
"S210127"	"Conflict_Resolution"	"RIGHT"	"RIGHT"	320.330099999865	950.0000019	n/a	n/a	n/a	n/a	"False"	n/a	n/a	"2021-01-27 14:21:09.228638"	"2021-01-27 14:21:09.756556"	117	6.36610011666667
"S210127"	"Conflict_Resolution"	"LEFT"	"LEFT"	375.344799999993	1166.666669	n/a	n/a	n/a	n/a	"False"	n/a	n/a	"2021-01-27 14:21:10.941695"	"2021-01-27 14:21:11.525280"	118	6.36610011666667
"S210127"	"Conflict_Resolution"	"RIGHT"	"RIGHT"	413.691799999924	583.3333345	n/a	n/a	n/a	n/a	"False"	n/a	n/a	"2021-01-27 14:21:12.127423"	"2021-01-27 14:21:12.748608"	119	6.36610011666667
"S210127"	"Conflict_Resolution"	"RIGHT"	"RIGHT"	366.511700000046	600.0000012	n/a	n/a	n/a	n/a	"False"	n/a	n/a	"2021-01-27 14:21:13.366987"	"2021-01-27 14:21:13.941753"	120	6.36610011666667
"S210127"	"Conflict_Resolution"	"LEFT"	"LEFT"	452.30279999987	1400.0000028	n/a	n/a	n/a	n/a	"False"	n/a	n/a	"2021-01-27 14:21:15.361129"	"2021-01-27 14:21:16.021188"	121	6.36610011666667
"S210127"	"Conflict_Resolution"	"RIGHT"	"LEFT"	348.228600000084	833.333335	n/a	n/a	n/a	n/a	"True"	n/a	n/a	"2021-01-27 14:21:16.873663"	"2021-01-27 14:21:17.429021"	122	6.36610011666667
"S210127"	"Conflict_Resolution"	"LEFT"	"LEFT"	458.748199999945	1300.0000026	n/a	n/a	n/a	n/a	"False"	n/a	n/a	"2021-01-27 14:21:18.747014"	"2021-01-27 14:21:19.412530"	123	6.36610011666667
"S210127"	"Conflict_Resolution"	"LEFT"	"LEFT"	417.106599999897	1316.6666693	n/a	n/a	n/a	n/a	"False"	n/a	n/a	"2021-01-27 14:21:20.748565"	"2021-01-27 14:21:21.372508"	124	6.36610011666667
"S210127"	"Conflict_Resolution"	"LEFT"	"LEFT"	435.93820000001	850.0000017	n/a	n/a	n/a	n/a	"True"	n/a	n/a	"2021-01-27 14:21:22.241589"	"2021-01-27 14:21:22.885804"	125	6.36610011666667
"S210127"	"Conflict_Resolution"	"RIGHT"	"RIGHT"	615.811900000153	1283.3333359	n/a	n/a	n/a	n/a	"False"	n/a	n/a	"2021-01-27 14:21:24.189987"	"2021-01-27 14:21:25.013892"	126	6.36610011666667
"S210127"	"Conflict_Resolution"	"RIGHT"	"RIGHT"	411.249700000099	1383.3333361	n/a	n/a	n/a	n/a	"False"	n/a	n/a	"2021-01-27 14:21:26.418633"	"2021-01-27 14:21:27.036528"	127	6.36610011666667
"S210127"	"Conflict_Resolution"	"RIGHT"	"RIGHT"	501.222000000098	650.0000013	n/a	n/a	n/a	n/a	"True"	n/a	n/a	"2021-01-27 14:21:27.703823"	"2021-01-27 14:21:28.413057"	128	6.36610011666667
"S210127"	"Conflict_Resolution"	"LEFT"	"LEFT"	450.422899999921	1450.0000029	n/a	n/a	n/a	n/a	"False"	n/a	n/a	"2021-01-27 14:21:29.883132"	"2021-01-27 14:21:30.540430"	129	6.36610011666667
"S210127"	"Conflict_Resolution"	"RIGHT"	"RIGHT"	511.86759999996	550.0000011	n/a	n/a	n/a	n/a	"True"	n/a	n/a	"2021-01-27 14:21:31.110017"	"2021-01-27 14:21:31.828956"	130	6.36610011666667
"S210127"	"Conflict_Resolution"	"RIGHT"	"RIGHT"	407.363600000053	1150.0000023	n/a	n/a	n/a	n/a	"False"	n/a	n/a	"2021-01-27 14:21:32.998146"	"2021-01-27 14:21:33.612556"	131	6.36610011666667
"S210127"	"Conflict_Resolution"	"LEFT"	"LEFT"	454.136100000142	816.6666683	n/a	n/a	n/a	n/a	"False"	n/a	n/a	"2021-01-27 14:21:34.446909"	"2021-01-27 14:21:35.110135"	132	6.36610011666667
"S210127"	"Conflict_Resolution"	"RIGHT"	"RIGHT"	486.271600000009	1183.3333357	n/a	n/a	n/a	n/a	"True"	n/a	n/a	"2021-01-27 14:21:36.311200"	"2021-01-27 14:21:37.005912"	133	6.36610011666667
"S210127"	"Conflict_Resolution"	"RIGHT"	"RIGHT"	568.355099999962	1100.0000022	n/a	n/a	n/a	n/a	"True"	n/a	n/a	"2021-01-27 14:21:38.124842"	"2021-01-27 14:21:38.900765"	134	6.36610011666667
"S210127"	"Conflict_Resolution"	"LEFT"	"LEFT"	396.921499999962	1000.000002	n/a	n/a	n/a	n/a	"False"	n/a	n/a	"2021-01-27 14:21:39.920078"	"2021-01-27 14:21:40.524460"	135	6.36610011666667
"S210127"	"Conflict_Resolution"	"LEFT"	"LEFT"	525.525900000048	1416.6666695	n/a	n/a	n/a	n/a	"True"	n/a	n/a	"2021-01-27 14:21:41.960381"	"2021-01-27 14:21:42.693939"	136	6.36610011666667
"S210127"	"Conflict_Resolution"	"RIGHT"	"RIGHT"	520.324800000026	700.0000014	n/a	n/a	n/a	n/a	"True"	n/a	n/a	"2021-01-27 14:21:43.413333"	"2021-01-27 14:21:44.142174"	137	6.36610011666667
"S210127"	"Conflict_Resolution"	"LEFT"	"LEFT"	365.34759999995	966.6666686	n/a	n/a	n/a	n/a	"False"	n/a	n/a	"2021-01-27 14:21:45.127793"	"2021-01-27 14:21:45.701897"	138	6.36610011666667
"S210127"	"Conflict_Resolution"	"LEFT"	"RIGHT"	383.361200000081	1366.6666694	n/a	n/a	n/a	n/a	"True"	n/a	n/a	"2021-01-27 14:21:47.085895"	"2021-01-27 14:21:47.676854"	139	6.36610011666667
"S210127"	"Conflict_Resolution"	"LEFT"	"LEFT"	491.053899999997	1416.6666695	n/a	n/a	n/a	n/a	"False"	n/a	n/a	"2021-01-27 14:21:49.114472"	"2021-01-27 14:21:49.812602"	140	6.36610011666667
"S210127"	"Conflict_Resolution"	"LEFT"	"LEFT"	608.366499999875	950.0000019	n/a	n/a	n/a	n/a	"True"	n/a	n/a	"2021-01-27 14:21:50.781384"	"2021-01-27 14:21:51.597656"	141	6.36610011666667
"S210127"	"Conflict_Resolution"	"RIGHT"	"RIGHT"	548.291199999994	800.0000016	n/a	n/a	n/a	n/a	"False"	n/a	n/a	"2021-01-27 14:21:52.417501"	"2021-01-27 14:21:53.173166"	142	6.36610011666667
"S210127"	"Conflict_Resolution"	"LEFT"	"LEFT"	766.948100000036	566.6666678	n/a	n/a	n/a	n/a	"False"	n/a	n/a	"2021-01-27 14:21:53.758777"	"2021-01-27 14:21:54.732764"	143	6.36610011666667
"S210127"	"Conflict_Resolution"	"LEFT"	"LEFT"	466.891900000064	1466.6666696	n/a	n/a	n/a	n/a	"True"	n/a	n/a	"2021-01-27 14:21:56.218025"	"2021-01-27 14:21:56.895184"	144	6.36610011666667
"S210127"	"Conflict_Resolution"	"LEFT"	"LEFT"	383.661100000154	866.6666684	n/a	n/a	n/a	n/a	"False"	n/a	n/a	"2021-01-27 14:21:57.782049"	"2021-01-27 14:21:58.374110"	145	6.36610011666667
"S210127"	"Conflict_Resolution"	"LEFT"	"LEFT"	377.673899999991	683.3333347	n/a	n/a	n/a	n/a	"False"	n/a	n/a	"2021-01-27 14:21:59.076465"	"2021-01-27 14:21:59.662041"	146	6.36610011666667
"S210127"	"Conflict_Resolution"	"RIGHT"	"RIGHT"	364.587299999812	1000.000002	n/a	n/a	n/a	n/a	"False"	n/a	n/a	"2021-01-27 14:22:00.681435"	"2021-01-27 14:22:01.254900"	147	6.36610011666667
"S210127"	"Conflict_Resolution"	"LEFT"	"RIGHT"	365.339800000129	1150.0000023	n/a	n/a	n/a	n/a	"True"	n/a	n/a	"2021-01-27 14:22:02.423884"	"2021-01-27 14:22:02.997348"	148	6.36610011666667
"S210127"	"Conflict_Resolution"	"LEFT"	"LEFT"	568.525399999999	516.6666677	n/a	n/a	n/a	n/a	"True"	n/a	n/a	"2021-01-27 14:22:03.532435"	"2021-01-27 14:22:04.310114"	149	6.36610011666667
"S210127"	"Conflict_Resolution"	"RIGHT"	"RIGHT"	562.788200000114	1216.6666691	n/a	n/a	n/a	n/a	"True"	n/a	n/a	"2021-01-27 14:22:05.546306"	"2021-01-27 14:22:06.317670"	150	6.36610011666667
"S210127"	"Conflict_Resolution"	"RIGHT"	"RIGHT"	508.930899999996	800.0000016	n/a	n/a	n/a	n/a	"True"	n/a	n/a	"2021-01-27 14:22:07.137018"	"2021-01-27 14:22:07.853351"	151	6.36610011666667
"S210127"	"Conflict_Resolution"	"RIGHT"	"RIGHT"	426.720599999953	1033.3333354	n/a	n/a	n/a	n/a	"True"	n/a	n/a	"2021-01-27 14:22:08.906458"	"2021-01-27 14:22:09.540837"	152	6.36610011666667
"S210127"	"Conflict_Resolution"	"LEFT"	"LEFT"	540.90710000014	816.6666683	n/a	n/a	n/a	n/a	"True"	n/a	n/a	"2021-01-27 14:22:10.376324"	"2021-01-27 14:22:11.126288"	153	6.36610011666667
"S210127"	"Conflict_Resolution"	"RIGHT"	"RIGHT"	577.845200000183	683.3333347	n/a	n/a	n/a	n/a	"True"	n/a	n/a	"2021-01-27 14:22:11.827295"	"2021-01-27 14:22:12.613367"	154	6.36610011666667
"S210127"	"Conflict_Resolution"	"RIGHT"	"RIGHT"	550.458700000036	550.0000011	n/a	n/a	n/a	n/a	"False"	n/a	n/a	"2021-01-27 14:22:13.182876"	"2021-01-27 14:22:13.942012"	155	6.36610011666667
"S210127"	"Conflict_Resolution"	"RIGHT"	"RIGHT"	395.841399999881	1216.6666691	n/a	n/a	n/a	n/a	"False"	n/a	n/a	"2021-01-27 14:22:15.177851"	"2021-01-27 14:22:15.782151"	156	6.36610011666667
"S210127"	"Conflict_Resolution"	"LEFT"	"LEFT"	427.213299999949	583.3333345	n/a	n/a	n/a	n/a	"False"	n/a	n/a	"2021-01-27 14:22:16.385817"	"2021-01-27 14:22:17.022083"	157	6.36610011666667
"S210127"	"Conflict_Resolution"	"LEFT"	"LEFT"	358.629500000006	783.3333349	n/a	n/a	n/a	n/a	"False"	n/a	n/a	"2021-01-27 14:22:17.822530"	"2021-01-27 14:22:18.388520"	158	6.36610011666667
"S210127"	"Conflict_Resolution"	"RIGHT"	"LEFT"	405.132800000047	1416.6666695	n/a	n/a	n/a	n/a	"True"	n/a	n/a	"2021-01-27 14:22:19.823959"	"2021-01-27 14:22:20.438065"	159	6.36610011666667
"S210127"	"Conflict_Resolution"	"LEFT"	"LEFT"	390.527399999883	1350.0000027	n/a	n/a	n/a	n/a	"False"	n/a	n/a	"2021-01-27 14:22:21.806545"	"2021-01-27 14:22:22.405939"	160	6.36610011666667
"S210127"	"Processing_Speed"	"LEFT"	"DOWN"	441.77959999999	633.3333346	n/a	n/a	n/a	n/a	n/a	n/a	n/a	"2021-01-27 14:05:28.981198"	"2021-01-27 14:05:29.647506"	1	2.08210368333333
"S210127"	"Processing_Speed"	"LEFT"	"DOWN"	330.422099999993	500.000001	n/a	n/a	n/a	n/a	n/a	n/a	n/a	"2021-01-27 14:05:30.156394"	"2021-01-27 14:05:30.694036"	2	2.08210368333333
"S210127"	"Processing_Speed"	"LEFT"	"DOWN"	307.601500000004	1300.0000026	n/a	n/a	n/a	n/a	n/a	n/a	n/a	"2021-01-27 14:05:32.002933"	"2021-01-27 14:05:32.518595"	3	2.08210368333333
"S210127"	"Processing_Speed"	"LEFT"	"DOWN"	340.464999999995	666.666668	n/a	n/a	n/a	n/a	n/a	n/a	n/a	"2021-01-27 14:05:33.194462"	"2021-01-27 14:05:33.743876"	4	2.08210368333333
"S210127"	"Processing_Speed"	"LEFT"	"DOWN"	269.155899999987	600.0000012	n/a	n/a	n/a	n/a	n/a	n/a	n/a	"2021-01-27 14:05:34.353470"	"2021-01-27 14:05:34.831157"	5	2.08210368333333
"S210127"	"Processing_Speed"	"RIGHT"	"DOWN"	368.232399999982	566.6666678	n/a	n/a	n/a	n/a	n/a	n/a	n/a	"2021-01-27 14:05:35.406184"	"2021-01-27 14:05:35.981864"	6	2.08210368333333
"S210127"	"Processing_Speed"	"LEFT"	"DOWN"	267.735200000004	916.6666685	n/a	n/a	n/a	n/a	n/a	n/a	n/a	"2021-01-27 14:05:36.907211"	"2021-01-27 14:05:37.381480"	7	2.08210368333333
"S210127"	"Processing_Speed"	"RIGHT"	"DOWN"	273.238899999996	783.3333349	n/a	n/a	n/a	n/a	n/a	n/a	n/a	"2021-01-27 14:05:38.173160"	"2021-01-27 14:05:38.654871"	8	2.08210368333333
"S210127"	"Processing_Speed"	"RIGHT"	"DOWN"	347.447699999975	500.000001	n/a	n/a	n/a	n/a	n/a	n/a	n/a	"2021-01-27 14:05:39.163560"	"2021-01-27 14:05:39.717634"	9	2.08210368333333
"S210127"	"Processing_Speed"	"LEFT"	"DOWN"	319.419699999997	1433.3333362	n/a	n/a	n/a	n/a	n/a	n/a	n/a	"2021-01-27 14:05:41.159027"	"2021-01-27 14:05:41.689210"	10	2.08210368333333
"S210127"	"Processing_Speed"	"LEFT"	"DOWN"	264.893000000001	883.3333351	n/a	n/a	n/a	n/a	n/a	n/a	n/a	"2021-01-27 14:05:42.581915"	"2021-01-27 14:05:43.055382"	11	2.08210368333333
"S210127"	"Processing_Speed"	"LEFT"	"DOWN"	261.368499999975	1216.6666691	n/a	n/a	n/a	n/a	n/a	n/a	n/a	"2021-01-27 14:05:44.281648"	"2021-01-27 14:05:44.749653"	12	2.08210368333333
"S210127"	"Processing_Speed"	"RIGHT"	"DOWN"	309.854900000005	1266.6666692	n/a	n/a	n/a	n/a	n/a	n/a	n/a	"2021-01-27 14:05:46.024448"	"2021-01-27 14:05:46.541832"	13	2.08210368333333
"S210127"	"Processing_Speed"	"LEFT"	"DOWN"	291.350899999998	533.3333344	n/a	n/a	n/a	n/a	n/a	n/a	n/a	"2021-01-27 14:05:47.083516"	"2021-01-27 14:05:47.583131"	14	2.08210368333333
"S210127"	"Processing_Speed"	"LEFT"	"DOWN"	272.222900000003	950.0000019	n/a	n/a	n/a	n/a	n/a	n/a	n/a	"2021-01-27 14:05:48.542796"	"2021-01-27 14:05:49.023090"	15	2.08210368333333
"S210127"	"Processing_Speed"	"LEFT"	"DOWN"	262.780499999991	1400.0000028	n/a	n/a	n/a	n/a	n/a	n/a	n/a	"2021-01-27 14:05:50.431711"	"2021-01-27 14:05:50.901533"	16	2.08210368333333
"S210127"	"Processing_Speed"	"LEFT"	"DOWN"	436.260099999998	700.0000014	n/a	n/a	n/a	n/a	n/a	n/a	n/a	"2021-01-27 14:05:51.610361"	"2021-01-27 14:05:52.254529"	17	2.08210368333333
"S210127"	"Processing_Speed"	"LEFT"	"DOWN"	261.183700000004	1466.6666696	n/a	n/a	n/a	n/a	n/a	n/a	n/a	"2021-01-27 14:05:53.729691"	"2021-01-27 14:05:54.199248"	18	2.08210368333333
"S210127"	"Processing_Speed"	"RIGHT"	"DOWN"	320.047599999981	1216.6666691	n/a	n/a	n/a	n/a	n/a	n/a	n/a	"2021-01-27 14:05:55.424514"	"2021-01-27 14:05:55.952333"	19	2.08210368333333
"S210127"	"Processing_Speed"	"LEFT"	"DOWN"	382.253300000002	783.3333349	n/a	n/a	n/a	n/a	n/a	n/a	n/a	"2021-01-27 14:05:56.744239"	"2021-01-27 14:05:57.334902"	20	2.08210368333333
"S210127"	"Processing_Speed"	"RIGHT"	"DOWN"	254.532900000015	816.6666683	n/a	n/a	n/a	n/a	n/a	n/a	n/a	"2021-01-27 14:05:58.159746"	"2021-01-27 14:05:58.621939"	21	2.08210368333333
"S210127"	"Processing_Speed"	"LEFT"	"DOWN"	234.593999999987	1333.333336	n/a	n/a	n/a	n/a	n/a	n/a	n/a	"2021-01-27 14:05:59.963822"	"2021-01-27 14:06:00.406189"	22	2.08210368333333
"S210127"	"Processing_Speed"	"RIGHT"	"DOWN"	287.937499999998	1400.0000028	n/a	n/a	n/a	n/a	n/a	n/a	n/a	"2021-01-27 14:06:01.814181"	"2021-01-27 14:06:02.310945"	23	2.08210368333333
"S210127"	"Processing_Speed"	"RIGHT"	"DOWN"	537.040300000001	950.0000019	n/a	n/a	n/a	n/a	n/a	n/a	n/a	"2021-01-27 14:06:03.269694"	"2021-01-27 14:06:04.014051"	24	2.08210368333333
"S210127"	"Processing_Speed"	"LEFT"	"DOWN"	305.314100000004	566.6666678	n/a	n/a	n/a	n/a	n/a	n/a	n/a	"2021-01-27 14:06:04.589360"	"2021-01-27 14:06:05.101573"	25	2.08210368333333
"S210127"	"Processing_Speed"	"RIGHT"	"DOWN"	271.390599999989	633.3333346	n/a	n/a	n/a	n/a	n/a	n/a	n/a	"2021-01-27 14:06:05.742939"	"2021-01-27 14:06:06.221924"	26	2.08210368333333
"S210127"	"Processing_Speed"	"RIGHT"	"DOWN"	336.11160000001	600.0000012	n/a	n/a	n/a	n/a	n/a	n/a	n/a	"2021-01-27 14:06:06.830638"	"2021-01-27 14:06:07.374922"	27	2.08210368333333
"S210127"	"Processing_Speed"	"RIGHT"	"DOWN"	249.290099999996	733.3333348	n/a	n/a	n/a	n/a	n/a	n/a	n/a	"2021-01-27 14:06:08.117083"	"2021-01-27 14:06:08.575294"	28	2.08210368333333
"S210127"	"Processing_Speed"	"RIGHT"	"DOWN"	245.285999999993	1433.3333362	n/a	n/a	n/a	n/a	n/a	n/a	n/a	"2021-01-27 14:06:10.016782"	"2021-01-27 14:06:10.470863"	29	2.08210368333333
"S210127"	"Processing_Speed"	"LEFT"	"DOWN"	255.432899999988	1183.3333357	n/a	n/a	n/a	n/a	n/a	n/a	n/a	"2021-01-27 14:06:11.662457"	"2021-01-27 14:06:12.126216"	30	2.08210368333333
"S210127"	"Processing_Speed"	"RIGHT"	"DOWN"	257.715999999988	1500.000003	n/a	n/a	n/a	n/a	n/a	n/a	n/a	"2021-01-27 14:06:13.636934"	"2021-01-27 14:06:14.101656"	31	2.08210368333333
"S210127"	"Processing_Speed"	"LEFT"	"DOWN"	266.034100000013	1150.0000023	n/a	n/a	n/a	n/a	n/a	n/a	n/a	"2021-01-27 14:06:15.260706"	"2021-01-27 14:06:15.733404"	32	2.08210368333333
"S210127"	"Processing_Speed"	"LEFT"	"DOWN"	257.907700000004	1366.6666694	n/a	n/a	n/a	n/a	n/a	n/a	n/a	"2021-01-27 14:06:17.108443"	"2021-01-27 14:06:17.574583"	33	2.08210368333333
"S210127"	"Processing_Speed"	"RIGHT"	"DOWN"	241.123299999998	1150.0000023	n/a	n/a	n/a	n/a	n/a	n/a	n/a	"2021-01-27 14:06:18.733129"	"2021-01-27 14:06:19.182925"	34	2.08210368333333
"S210127"	"Processing_Speed"	"LEFT"	"DOWN"	241.655899999984	733.3333348	n/a	n/a	n/a	n/a	n/a	n/a	n/a	"2021-01-27 14:06:19.925137"	"2021-01-27 14:06:20.375153"	35	2.08210368333333
"S210127"	"Processing_Speed"	"RIGHT"	"DOWN"	234.260700000021	1116.6666689	n/a	n/a	n/a	n/a	n/a	n/a	n/a	"2021-01-27 14:06:21.500282"	"2021-01-27 14:06:21.942275"	36	2.08210368333333
"S210127"	"Processing_Speed"	"RIGHT"	"DOWN"	234.871100000021	916.6666685	n/a	n/a	n/a	n/a	n/a	n/a	n/a	"2021-01-27 14:06:22.867875"	"2021-01-27 14:06:23.309691"	37	2.08210368333333
"S210127"	"Processing_Speed"	"LEFT"	"DOWN"	260.295200000002	1500.000003	n/a	n/a	n/a	n/a	n/a	n/a	n/a	"2021-01-27 14:06:24.817766"	"2021-01-27 14:06:25.285941"	38	2.08210368333333
"S210127"	"Processing_Speed"	"LEFT"	"DOWN"	256.498700000009	1016.6666687	n/a	n/a	n/a	n/a	n/a	n/a	n/a	"2021-01-27 14:06:26.310393"	"2021-01-27 14:06:26.774289"	39	2.08210368333333
"S210127"	"Processing_Speed"	"LEFT"	"DOWN"	253.005899999977	1266.6666692	n/a	n/a	n/a	n/a	n/a	n/a	n/a	"2021-01-27 14:06:28.049952"	"2021-01-27 14:06:28.509708"	40	2.08210368333333
"S210127"	"Processing_Speed"	"RIGHT"	"DOWN"	315.829400000013	700.0000014	n/a	n/a	n/a	n/a	n/a	n/a	n/a	"2021-01-27 14:06:29.218376"	"2021-01-27 14:06:29.742972"	41	2.08210368333333
"S210127"	"Processing_Speed"	"RIGHT"	"DOWN"	239.262100000019	1366.6666694	n/a	n/a	n/a	n/a	n/a	n/a	n/a	"2021-01-27 14:06:31.119193"	"2021-01-27 14:06:31.566960"	42	2.08210368333333
"S210127"	"Processing_Speed"	"LEFT"	"DOWN"	253.338599999978	850.0000017	n/a	n/a	n/a	n/a	n/a	n/a	n/a	"2021-01-27 14:06:32.425428"	"2021-01-27 14:06:32.886140"	43	2.08210368333333
"S210127"	"Processing_Speed"	"LEFT"	"DOWN"	288.377199999985	983.3333353	n/a	n/a	n/a	n/a	n/a	n/a	n/a	"2021-01-27 14:06:33.878533"	"2021-01-27 14:06:34.375656"	44	2.08210368333333
"S210127"	"Processing_Speed"	"LEFT"	"DOWN"	235.198799999978	1083.3333355	n/a	n/a	n/a	n/a	n/a	n/a	n/a	"2021-01-27 14:06:35.467414"	"2021-01-27 14:06:35.909898"	45	2.08210368333333
"S210127"	"Processing_Speed"	"RIGHT"	"DOWN"	238.050600000008	1050.0000021	n/a	n/a	n/a	n/a	n/a	n/a	n/a	"2021-01-27 14:06:36.968732"	"2021-01-27 14:06:37.413801"	46	2.08210368333333
"S210127"	"Processing_Speed"	"RIGHT"	"DOWN"	266.755499999988	1333.333336	n/a	n/a	n/a	n/a	n/a	n/a	n/a	"2021-01-27 14:06:38.755991"	"2021-01-27 14:06:39.229724"	47	2.08210368333333
"S210127"	"Processing_Speed"	"RIGHT"	"DOWN"	297.417700000011	533.3333344	n/a	n/a	n/a	n/a	n/a	n/a	n/a	"2021-01-27 14:06:39.772409"	"2021-01-27 14:06:40.277743"	48	2.08210368333333
"S210127"	"Processing_Speed"	"RIGHT"	"DOWN"	255.754400000001	1183.3333357	n/a	n/a	n/a	n/a	n/a	n/a	n/a	"2021-01-27 14:06:41.470853"	"2021-01-27 14:06:41.933500"	49	2.08210368333333
"S210127"	"Processing_Speed"	"RIGHT"	"DOWN"	228.88020000002	1466.6666696	n/a	n/a	n/a	n/a	n/a	n/a	n/a	"2021-01-27 14:06:43.409796"	"2021-01-27 14:06:43.845639"	50	2.08210368333333
"S210127"	"Processing_Speed"	"LEFT"	"DOWN"	242.933900000025	1116.6666689	n/a	n/a	n/a	n/a	n/a	n/a	n/a	"2021-01-27 14:06:44.971828"	"2021-01-27 14:06:45.422114"	51	2.08210368333333
"S210127"	"Processing_Speed"	"RIGHT"	"DOWN"	256.117599999982	983.3333353	n/a	n/a	n/a	n/a	n/a	n/a	n/a	"2021-01-27 14:06:46.414802"	"2021-01-27 14:06:46.878571"	52	2.08210368333333
"S210127"	"Processing_Speed"	"RIGHT"	"DOWN"	230.957899999993	1016.6666687	n/a	n/a	n/a	n/a	n/a	n/a	n/a	"2021-01-27 14:06:47.903015"	"2021-01-27 14:06:48.342780"	53	2.08210368333333
"S210127"	"Processing_Speed"	"RIGHT"	"DOWN"	316.249499999998	666.666668	n/a	n/a	n/a	n/a	n/a	n/a	n/a	"2021-01-27 14:06:49.018121"	"2021-01-27 14:06:49.541939"	54	2.08210368333333
"S210127"	"Processing_Speed"	"RIGHT"	"DOWN"	284.739599999995	850.0000017	n/a	n/a	n/a	n/a	n/a	n/a	n/a	"2021-01-27 14:06:50.401724"	"2021-01-27 14:06:50.895040"	55	2.08210368333333
"S210127"	"Processing_Speed"	"RIGHT"	"DOWN"	226.876799999985	1300.0000026	n/a	n/a	n/a	n/a	n/a	n/a	n/a	"2021-01-27 14:06:52.203252"	"2021-01-27 14:06:52.639313"	56	2.08210368333333
"S210127"	"Processing_Speed"	"RIGHT"	"DOWN"	242.313800000005	1083.3333355	n/a	n/a	n/a	n/a	n/a	n/a	n/a	"2021-01-27 14:06:53.732582"	"2021-01-27 14:06:54.182993"	57	2.08210368333333
"S210127"	"Processing_Speed"	"LEFT"	"DOWN"	270.247799999993	816.6666683	n/a	n/a	n/a	n/a	n/a	n/a	n/a	"2021-01-27 14:06:55.008512"	"2021-01-27 14:06:55.486388"	58	2.08210368333333
"S210127"	"Processing_Speed"	"LEFT"	"DOWN"	349.585200000007	1050.0000021	n/a	n/a	n/a	n/a	n/a	n/a	n/a	"2021-01-27 14:06:56.544613"	"2021-01-27 14:06:57.101839"	59	2.08210368333333
"S210127"	"Processing_Speed"	"RIGHT"	"DOWN"	252.897200000007	883.3333351	n/a	n/a	n/a	n/a	n/a	n/a	n/a	"2021-01-27 14:06:57.993541"	"2021-01-27 14:06:58.454270"	60	2.08210368333333
"S210127"	"Response_Inhibition"	"LEFT"	"LEFT"	475.552100600004	850.0000017	""	n/a	n/a	n/a	n/a	n/a	n/a	"2021-01-27 14:10:41.430853"	"2021-01-27 14:10:42.118260"	1	6.0600403
"S210127"	"Response_Inhibition"	"RIGHT"	"RIGHT"	1165.35549999998	633.3333346	""	n/a	n/a	n/a	n/a	n/a	n/a	"2021-01-27 14:10:42.760693"	"2021-01-27 14:10:44.135178"	2	6.0600403
"S210127"	"Response_Inhibition"	"LEFT"	"LEFT"	373.420699999997	600.0000012	""	n/a	n/a	n/a	n/a	n/a	n/a	"2021-01-27 14:10:44.744618"	"2021-01-27 14:10:45.326114"	3	6.0600403
"S210127"	"Response_Inhibition"	"LEFT"	"LEFT"	371.764799999994	500.000001	""	n/a	n/a	n/a	n/a	n/a	n/a	"2021-01-27 14:10:45.834798"	"2021-01-27 14:10:46.414260"	4	6.0600403
"S210127"	"Response_Inhibition"	"RIGHT"	"RIGHT"	338.743500000021	1316.6666693	""	n/a	n/a	n/a	n/a	n/a	n/a	"2021-01-27 14:10:47.739275"	"2021-01-27 14:10:48.285816"	5	6.0600403
"S210127"	"Response_Inhibition"	"RIGHT"	"RIGHT"	381.277333799995	1383.3333361	""	n/a	n/a	n/a	n/a	n/a	n/a	"2021-01-27 14:10:49.678088"	"2021-01-27 14:10:50.269858"	6	6.0600403
"S210127"	"Response_Inhibition"	"RIGHT"	"RIGHT"	554.715399999964	533.3333344	""	n/a	n/a	n/a	n/a	n/a	n/a	"2021-01-27 14:10:50.811603"	"2021-01-27 14:10:51.574105"	7	6.0600403
"S210127"	"Response_Inhibition"	"LEFT"	"LEFT"	367.516999999964	1000.000002	""	n/a	n/a	n/a	n/a	n/a	n/a	"2021-01-27 14:10:52.582402"	"2021-01-27 14:10:53.158870"	8	6.0600403
"S210127"	"Response_Inhibition"	"LEFT"	"LEFT"	400.901599999997	550.0000011	""	n/a	n/a	n/a	n/a	n/a	n/a	"2021-01-27 14:10:53.716949"	"2021-01-27 14:10:54.326291"	9	6.0600403
"S210127"	"Response_Inhibition"	"LEFT"	"LEFT"	707.065999999998	1500.000003	""	n/a	n/a	n/a	n/a	n/a	n/a	"2021-01-27 14:10:55.835180"	"2021-01-27 14:10:56.750000"	10	6.0600403
"S210127"	"Response_Inhibition"	"RIGHT"	"RIGHT"	325.292300000001	1466.6666696	""	n/a	n/a	n/a	n/a	n/a	n/a	"2021-01-27 14:10:58.225260"	"2021-01-27 14:10:58.758646"	11	6.0600403
"S210127"	"Response_Inhibition"	"LEFT"	"LEFT"	448.217599999964	766.6666682	""	n/a	n/a	n/a	n/a	n/a	n/a	"2021-01-27 14:10:59.534217"	"2021-01-27 14:11:00.189731"	12	6.0600403
"S210127"	"Response_Inhibition"	"RIGHT"	"RIGHT"	378.283699999997	733.3333348	""	n/a	n/a	n/a	n/a	n/a	n/a	"2021-01-27 14:11:00.932046"	"2021-01-27 14:11:01.517530"	13	6.0600403
"S210127"	"Response_Inhibition"	"LEFT"	"LEFT"	370.134333500025	1266.6666692	""	n/a	n/a	n/a	n/a	n/a	n/a	"2021-01-27 14:11:02.793053"	"2021-01-27 14:11:03.374036"	14	6.0600403
"S210127"	"Response_Inhibition"	"RIGHT"	"Time_Max_Exceeded"	1500.11113340005	500.000001	""	n/a	n/a	n/a	n/a	n/a	n/a	"2021-01-27 14:11:03.883721"	"2021-01-27 14:11:05.386800"	15	6.0600403
"S210127"	"Response_Inhibition"	"LEFT"	"LEFT"	410.390800000016	583.3333345	""	n/a	n/a	n/a	n/a	n/a	n/a	"2021-01-27 14:11:05.979463"	"2021-01-27 14:11:06.599197"	16	6.0600403
"S210127"	"Response_Inhibition"	"RIGHT"	"RIGHT"	333.810900000003	1016.6666687	""	n/a	n/a	n/a	n/a	n/a	n/a	"2021-01-27 14:11:07.624643"	"2021-01-27 14:11:08.166087"	17	6.0600403
"S210127"	"Response_Inhibition"	"LEFT"	"LEFT"	361.512000000005	933.3333352	""	n/a	n/a	n/a	n/a	n/a	n/a	"2021-01-27 14:11:09.108710"	"2021-01-27 14:11:09.678176"	18	6.0600403
"S210127"	"Response_Inhibition"	"RIGHT"	"RIGHT"	314.654133799958	1233.3333358	""	n/a	n/a	n/a	n/a	n/a	n/a	"2021-01-27 14:11:10.919990"	"2021-01-27 14:11:11.446124"	19	6.0600403
"S210127"	"Response_Inhibition"	"LEFT"	"Time_Max_Exceeded"	1500.05546679999	1000.000002	""	n/a	n/a	n/a	n/a	n/a	n/a	"2021-01-27 14:11:12.454516"	"2021-01-27 14:11:13.957934"	20	6.0600403
"S210127"	"Response_Inhibition"	"LEFT"	"LEFT"	407.0006336	900.0000018	""	n/a	n/a	n/a	n/a	n/a	n/a	"2021-01-27 14:11:14.867536"	"2021-01-27 14:11:15.486322"	21	6.0600403
"S210127"	"Response_Inhibition"	"LEFT"	"LEFT"	614.691499999992	1200.0000024	""	n/a	n/a	n/a	n/a	n/a	n/a	"2021-01-27 14:11:16.695502"	"2021-01-27 14:11:17.518157"	22	6.0600403
"S210127"	"Response_Inhibition"	"RIGHT"	"RIGHT"	712.994299999991	733.3333348	""	n/a	n/a	n/a	n/a	n/a	n/a	"2021-01-27 14:11:18.260968"	"2021-01-27 14:11:19.182044"	23	6.0600403
"S210127"	"Response_Inhibition"	"RIGHT"	"Time_Max_Exceeded"	1500.05210049995	583.3333345	""	n/a	n/a	n/a	n/a	n/a	n/a	"2021-01-27 14:11:19.774082"	"2021-01-27 14:11:21.276873"	24	6.0600403
"S210127"	"Response_Inhibition"	"LEFT"	"Time_Max_Exceeded"	1500.04846720002	750.0000015	""	n/a	n/a	n/a	n/a	n/a	n/a	"2021-01-27 14:11:22.035936"	"2021-01-27 14:11:23.539203"	25	6.0600403
"S210127"	"Response_Inhibition"	"LEFT"	"LEFT"	526.604399999997	866.6666684	""	n/a	n/a	n/a	n/a	n/a	n/a	"2021-01-27 14:11:24.415586"	"2021-01-27 14:11:25.149901"	26	6.0600403
"S210127"	"Response_Inhibition"	"LEFT"	"Time_Max_Exceeded"	1500.0561335	1066.6666688	""	n/a	n/a	n/a	n/a	n/a	n/a	"2021-01-27 14:11:26.225251"	"2021-01-27 14:11:27.728620"	27	6.0600403
"S210127"	"Response_Inhibition"	"RIGHT"	"RIGHT"	909.296900000015	1183.3333357	""	n/a	n/a	n/a	n/a	n/a	n/a	"2021-01-27 14:11:28.921012"	"2021-01-27 14:11:30.039140"	28	6.0600403
"S210127"	"Response_Inhibition"	"LEFT"	"LEFT"	796.426900000029	650.0000013	""	n/a	n/a	n/a	n/a	n/a	n/a	"2021-01-27 14:11:30.697525"	"2021-01-27 14:11:31.702830"	29	6.0600403
"S210127"	"Response_Inhibition"	"LEFT"	"LEFT"	620.899000000009	1250.0000025	""	n/a	n/a	n/a	n/a	n/a	n/a	"2021-01-27 14:11:32.961217"	"2021-01-27 14:11:33.790034"	30	6.0600403
"S210127"	"Response_Inhibition"	"LEFT"	"Time_Max_Exceeded"	1500.04916729999	883.3333351	""	n/a	n/a	n/a	n/a	n/a	n/a	"2021-01-27 14:11:34.681674"	"2021-01-27 14:11:36.185468"	31	6.0600403
"S210127"	"Response_Inhibition"	"RIGHT"	"RIGHT"	779.985699999997	583.3333345	""	n/a	n/a	n/a	n/a	n/a	n/a	"2021-01-27 14:11:36.778400"	"2021-01-27 14:11:37.766073"	32	6.0600403
"S210127"	"Response_Inhibition"	"RIGHT"	"RIGHT"	730.762300000038	1316.6666693	""	n/a	n/a	n/a	n/a	n/a	n/a	"2021-01-27 14:11:39.091658"	"2021-01-27 14:11:40.029856"	33	6.0600403
"S210127"	"Response_Inhibition"	"RIGHT"	"Time_Max_Exceeded"	1500.07093370001	716.6666681	""	n/a	n/a	n/a	n/a	n/a	n/a	"2021-01-27 14:11:40.755468"	"2021-01-27 14:11:42.258904"	34	6.0600403
"S210127"	"Response_Inhibition"	"RIGHT"	"RIGHT"	913.530200000025	1400.0000028	""	n/a	n/a	n/a	n/a	n/a	n/a	"2021-01-27 14:11:43.668310"	"2021-01-27 14:11:44.790204"	35	6.0600403
"S210127"	"Response_Inhibition"	"LEFT"	"Time_Max_Exceeded"	1500.05916690001	566.6666678	""	n/a	n/a	n/a	n/a	n/a	n/a	"2021-01-27 14:11:45.365481"	"2021-01-27 14:11:46.868648"	36	6.0600403
"S210127"	"Response_Inhibition"	"LEFT"	"LEFT"	714.041599999973	1350.0000027	""	n/a	n/a	n/a	n/a	n/a	n/a	"2021-01-27 14:11:48.228198"	"2021-01-27 14:11:49.149552"	37	6.0600403
"S210127"	"Response_Inhibition"	"RIGHT"	"RIGHT"	841.371600000002	566.6666678	""	n/a	n/a	n/a	n/a	n/a	n/a	"2021-01-27 14:11:49.724425"	"2021-01-27 14:11:50.774825"	38	6.0600403
"S210127"	"Response_Inhibition"	"LEFT"	"LEFT"	612.743799999976	850.0000017	""	n/a	n/a	n/a	n/a	n/a	n/a	"2021-01-27 14:11:51.633665"	"2021-01-27 14:11:52.454979"	39	6.0600403
"S210127"	"Response_Inhibition"	"LEFT"	"LEFT"	996.475700000019	1050.0000021	""	n/a	n/a	n/a	n/a	n/a	n/a	"2021-01-27 14:11:53.513731"	"2021-01-27 14:11:54.717644"	40	6.0600403
"S210127"	"Response_Inhibition"	"LEFT"	"LEFT"	701.589800000079	666.666668	""	n/a	n/a	n/a	n/a	n/a	n/a	"2021-01-27 14:11:55.392448"	"2021-01-27 14:11:56.302343"	41	6.0600403
"S210127"	"Response_Inhibition"	"RIGHT"	"RIGHT"	879.88960000007	783.3333349	""	n/a	n/a	n/a	n/a	n/a	n/a	"2021-01-27 14:11:57.093844"	"2021-01-27 14:11:58.181716"	42	6.0600403
"S210127"	"Response_Inhibition"	"RIGHT"	"RIGHT"	879.05150000006	816.6666683	""	n/a	n/a	n/a	n/a	n/a	n/a	"2021-01-27 14:11:59.006823"	"2021-01-27 14:12:00.093479"	43	6.0600403
"S210127"	"Response_Inhibition"	"LEFT"	"LEFT"	710.248399999955	833.333335	""	n/a	n/a	n/a	n/a	n/a	n/a	"2021-01-27 14:12:00.935186"	"2021-01-27 14:12:01.853761"	44	6.0600403
"S210127"	"Response_Inhibition"	"RIGHT"	"Time_Max_Exceeded"	1500.05883360003	950.0000019	""	n/a	n/a	n/a	n/a	n/a	n/a	"2021-01-27 14:12:02.812273"	"2021-01-27 14:12:04.315426"	45	6.0600403
"S210127"	"Response_Inhibition"	"RIGHT"	"RIGHT"	723.27359999997	1150.0000023	""	n/a	n/a	n/a	n/a	n/a	n/a	"2021-01-27 14:12:05.474406"	"2021-01-27 14:12:06.406240"	46	6.0600403
"S210127"	"Response_Inhibition"	"LEFT"	"LEFT"	673.990099999969	1333.333336	""	n/a	n/a	n/a	n/a	n/a	n/a	"2021-01-27 14:12:07.748219"	"2021-01-27 14:12:08.629869"	47	6.0600403
"S210127"	"Response_Inhibition"	"LEFT"	"LEFT"	563.646100000028	1300.0000026	""	n/a	n/a	n/a	n/a	n/a	n/a	"2021-01-27 14:12:09.938032"	"2021-01-27 14:12:10.711766"	48	6.0600403
"S210127"	"Response_Inhibition"	"LEFT"	"Time_Max_Exceeded"	1500.05383339995	1416.6666695	""	n/a	n/a	n/a	n/a	n/a	n/a	"2021-01-27 14:12:12.138268"	"2021-01-27 14:12:13.641747"	49	6.0600403
"S210127"	"Response_Inhibition"	"RIGHT"	"RIGHT"	387.920399999985	1000.000002	""	n/a	n/a	n/a	n/a	n/a	n/a	"2021-01-27 14:12:14.650554"	"2021-01-27 14:12:15.246994"	50	6.0600403
"S210127"	"Response_Inhibition"	"LEFT"	"LEFT"	558.287199999995	1383.3333361	""	n/a	n/a	n/a	n/a	n/a	n/a	"2021-01-27 14:12:16.639544"	"2021-01-27 14:12:17.405812"	51	6.0600403
"S210127"	"Response_Inhibition"	"LEFT"	"LEFT"	591.05790000001	1416.6666695	""	n/a	n/a	n/a	n/a	n/a	n/a	"2021-01-27 14:12:18.831189"	"2021-01-27 14:12:19.630309"	52	6.0600403
"S210127"	"Response_Inhibition"	"RIGHT"	"RIGHT"	594.283799999971	700.0000014	""	n/a	n/a	n/a	n/a	n/a	n/a	"2021-01-27 14:12:20.340232"	"2021-01-27 14:12:21.141679"	53	6.0600403
"S210127"	"Response_Inhibition"	"RIGHT"	"Time_Max_Exceeded"	1500.0491337	1500.000003	""	n/a	n/a	n/a	n/a	n/a	n/a	"2021-01-27 14:12:22.650882"	"2021-01-27 14:12:24.153794"	54	6.0600403
"S210127"	"Response_Inhibition"	"RIGHT"	"Time_Max_Exceeded"	1500.05720019999	1050.0000021	""	n/a	n/a	n/a	n/a	n/a	n/a	"2021-01-27 14:12:25.213526"	"2021-01-27 14:12:26.716562"	55	6.0600403
"S210127"	"Response_Inhibition"	"RIGHT"	"RIGHT"	561.393400000043	1366.6666694	""	n/a	n/a	n/a	n/a	n/a	n/a	"2021-01-27 14:12:28.093009"	"2021-01-27 14:12:28.862349"	56	6.0600403
"S210127"	"Response_Inhibition"	"LEFT"	"Time_Max_Exceeded"	1500.05640050006	633.3333346	""	n/a	n/a	n/a	n/a	n/a	n/a	"2021-01-27 14:12:29.504362"	"2021-01-27 14:12:31.006990"	57	6.0600403
"S210127"	"Response_Inhibition"	"RIGHT"	"Time_Max_Exceeded"	1500.0609002999	1200.0000024	""	n/a	n/a	n/a	n/a	n/a	n/a	"2021-01-27 14:12:32.217119"	"2021-01-27 14:12:33.720381"	58	6.0600403
"S210127"	"Response_Inhibition"	"LEFT"	"LEFT"	533.876400000054	783.3333349	""	n/a	n/a	n/a	n/a	n/a	n/a	"2021-01-27 14:12:34.512108"	"2021-01-27 14:12:35.254162"	59	6.0600403
"S210127"	"Response_Inhibition"	"RIGHT"	"Time_Max_Exceeded"	1500.05750000003	1266.6666692	""	n/a	n/a	n/a	n/a	n/a	n/a	"2021-01-27 14:12:36.530667"	"2021-01-27 14:12:38.030546"	60	6.0600403
"S210127"	"Response_Inhibition"	"RIGHT"	"Time_Max_Exceeded"	1500.05213369999	1416.6666695	""	n/a	n/a	n/a	n/a	n/a	n/a	"2021-01-27 14:12:39.458386"	"2021-01-27 14:12:40.961277"	61	6.0600403
"S210127"	"Response_Inhibition"	"LEFT"	"Time_Max_Exceeded"	1500.05526699992	1150.0000023	""	n/a	n/a	n/a	n/a	n/a	n/a	"2021-01-27 14:12:42.120291"	"2021-01-27 14:12:43.623471"	62	6.0600403
"S210127"	"Response_Inhibition"	"LEFT"	"LEFT"	627.701000000002	1033.3333354	""	n/a	n/a	n/a	n/a	n/a	n/a	"2021-01-27 14:12:44.666611"	"2021-01-27 14:12:45.502351"	63	6.0600403
"S210127"	"Response_Inhibition"	"LEFT"	"Time_Max_Exceeded"	1500.06060010003	966.6666686	""	n/a	n/a	n/a	n/a	n/a	n/a	"2021-01-27 14:12:46.477475"	"2021-01-27 14:12:47.981336"	64	6.0600403
"S210127"	"Response_Inhibition"	"RIGHT"	"Time_Max_Exceeded"	1500.05066700002	750.0000015	""	n/a	n/a	n/a	n/a	n/a	n/a	"2021-01-27 14:12:48.740699"	"2021-01-27 14:12:50.243757"	65	6.0600403
"S210127"	"Response_Inhibition"	"RIGHT"	"RIGHT"	590.080000000057	1266.6666692	""	n/a	n/a	n/a	n/a	n/a	n/a	"2021-01-27 14:12:51.520361"	"2021-01-27 14:12:52.318550"	66	6.0600403
"S210127"	"Response_Inhibition"	"LEFT"	"LEFT"	570.059900000047	1316.6666693	""	n/a	n/a	n/a	n/a	n/a	n/a	"2021-01-27 14:12:53.644286"	"2021-01-27 14:12:54.421777"	67	6.0600403
"S210127"	"Response_Inhibition"	"RIGHT"	"RIGHT"	430.942500000015	1216.6666691	""	n/a	n/a	n/a	n/a	n/a	n/a	"2021-01-27 14:12:55.646887"	"2021-01-27 14:12:56.286176"	68	6.0600403
"S210127"	"Response_Inhibition"	"LEFT"	"LEFT"	502.555900000061	816.6666683	""	n/a	n/a	n/a	n/a	n/a	n/a	"2021-01-27 14:12:57.111106"	"2021-01-27 14:12:57.824290"	69	6.0600403
"S210127"	"Response_Inhibition"	"RIGHT"	"RIGHT"	452.168499999971	1350.0000027	""	n/a	n/a	n/a	n/a	n/a	n/a	"2021-01-27 14:12:59.185798"	"2021-01-27 14:12:59.848022"	70	6.0600403
"S210127"	"Response_Inhibition"	"LEFT"	"LEFT"	373.364467200006	1316.6666693	""	n/a	n/a	n/a	n/a	n/a	n/a	"2021-01-27 14:13:01.173745"	"2021-01-27 14:13:01.758369"	71	6.0600403
"S210127"	"Response_Inhibition"	"RIGHT"	"RIGHT"	787.762999999927	666.666668	""	n/a	n/a	n/a	n/a	n/a	n/a	"2021-01-27 14:13:02.434528"	"2021-01-27 14:13:03.428825"	72	6.0600403
"S210127"	"Response_Inhibition"	"RIGHT"	"RIGHT"	528.396600000065	1416.6666695	""	n/a	n/a	n/a	n/a	n/a	n/a	"2021-01-27 14:13:04.853562"	"2021-01-27 14:13:05.590133"	73	6.0600403
"S210127"	"Response_Inhibition"	"RIGHT"	"RIGHT"	925.8466	600.0000012	""	n/a	n/a	n/a	n/a	n/a	n/a	"2021-01-27 14:13:06.200245"	"2021-01-27 14:13:07.332801"	74	6.0600403
"S210127"	"Response_Inhibition"	"RIGHT"	"RIGHT"	401.689499999975	1133.3333356	""	n/a	n/a	n/a	n/a	n/a	n/a	"2021-01-27 14:13:08.475914"	"2021-01-27 14:13:09.086314"	75	6.0600403
"S210127"	"Response_Inhibition"	"LEFT"	"Time_Max_Exceeded"	1500.05546679999	616.6666679	""	n/a	n/a	n/a	n/a	n/a	n/a	"2021-01-27 14:13:09.711721"	"2021-01-27 14:13:11.214952"	76	6.0600403
"S210127"	"Response_Inhibition"	"RIGHT"	"RIGHT"	473.728500599925	1000.000002	""	n/a	n/a	n/a	n/a	n/a	n/a	"2021-01-27 14:13:12.224905"	"2021-01-27 14:13:12.911183"	77	6.0600403
"S210127"	"Response_Inhibition"	"RIGHT"	"RIGHT"	897.514000000001	1283.3333359	""	n/a	n/a	n/a	n/a	n/a	n/a	"2021-01-27 14:13:14.204366"	"2021-01-27 14:13:15.311325"	78	6.0600403
"S210127"	"Response_Inhibition"	"LEFT"	"LEFT"	720.630400000005	733.3333348	""	n/a	n/a	n/a	n/a	n/a	n/a	"2021-01-27 14:13:16.053869"	"2021-01-27 14:13:16.982105"	79	6.0600403
"S210127"	"Response_Inhibition"	"LEFT"	"Time_Max_Exceeded"	1500.05716700006	950.0000019	""	n/a	n/a	n/a	n/a	n/a	n/a	"2021-01-27 14:13:17.940589"	"2021-01-27 14:13:19.443901"	80	6.0600403
"S210127"	"Response_Inhibition"	"RIGHT"	"Time_Max_Exceeded"	1500.05146710002	1116.6666689	""	n/a	n/a	n/a	n/a	n/a	n/a	"2021-01-27 14:13:20.569987"	"2021-01-27 14:13:22.072708"	81	6.0600403
"S210127"	"Response_Inhibition"	"RIGHT"	"Time_Max_Exceeded"	1500.05666680003	1083.3333355	""	n/a	n/a	n/a	n/a	n/a	n/a	"2021-01-27 14:13:23.165991"	"2021-01-27 14:13:24.668536"	82	6.0600403
"S210127"	"Response_Inhibition"	"LEFT"	"LEFT"	592.690699999935	583.3333345	""	n/a	n/a	n/a	n/a	n/a	n/a	"2021-01-27 14:13:25.260982"	"2021-01-27 14:13:26.062382"	83	6.0600403
"S210127"	"Response_Inhibition"	"LEFT"	"LEFT"	726.971599999956	1400.0000028	""	n/a	n/a	n/a	n/a	n/a	n/a	"2021-01-27 14:13:27.470913"	"2021-01-27 14:13:28.406059"	84	6.0600403
"S210127"	"Response_Inhibition"	"RIGHT"	"Time_Max_Exceeded"	1500.07603380001	800.0000016	""	n/a	n/a	n/a	n/a	n/a	n/a	"2021-01-27 14:13:29.214495"	"2021-01-27 14:13:30.717704"	85	6.0600403
"S210127"	"Response_Inhibition"	"LEFT"	"LEFT"	706.620199999975	1100.0000022	""	n/a	n/a	n/a	n/a	n/a	n/a	"2021-01-27 14:13:31.827158"	"2021-01-27 14:13:32.741439"	86	6.0600403
"S210127"	"Response_Inhibition"	"RIGHT"	"RIGHT"	911.015800000087	983.3333353	""	n/a	n/a	n/a	n/a	n/a	n/a	"2021-01-27 14:13:33.735065"	"2021-01-27 14:13:34.854291"	87	6.0600403
"S210127"	"Response_Inhibition"	"LEFT"	"LEFT"	825.755500000014	733.3333348	""	n/a	n/a	n/a	n/a	n/a	n/a	"2021-01-27 14:13:35.596450"	"2021-01-27 14:13:36.629463"	88	6.0600403
"S210127"	"Response_Inhibition"	"LEFT"	"LEFT"	594.867300000033	533.3333344	""	n/a	n/a	n/a	n/a	n/a	n/a	"2021-01-27 14:13:37.171425"	"2021-01-27 14:13:37.973878"	89	6.0600403
"S210127"	"Response_Inhibition"	"RIGHT"	"Time_Max_Exceeded"	1500.06426669999	1300.0000026	""	n/a	n/a	n/a	n/a	n/a	n/a	"2021-01-27 14:13:39.283925"	"2021-01-27 14:13:40.786945"	90	6.0600403
"S210127"	"Response_Inhibition"	"LEFT"	"LEFT"	522.199699999987	983.3333353	""	n/a	n/a	n/a	n/a	n/a	n/a	"2021-01-27 14:13:41.779668"	"2021-01-27 14:13:42.509649"	91	6.0600403
"S210127"	"Response_Inhibition"	"RIGHT"	"RIGHT"	564.021999999909	900.0000018	""	n/a	n/a	n/a	n/a	n/a	n/a	"2021-01-27 14:13:43.418374"	"2021-01-27 14:13:44.190597"	92	6.0600403
"S210127"	"Response_Inhibition"	"RIGHT"	"RIGHT"	611.929099999998	1066.6666688	""	n/a	n/a	n/a	n/a	n/a	n/a	"2021-01-27 14:13:45.265461"	"2021-01-27 14:13:46.085584"	93	6.0600403
"S210127"	"Response_Inhibition"	"RIGHT"	"RIGHT"	630.62309999998	1033.3333354	""	n/a	n/a	n/a	n/a	n/a	n/a	"2021-01-27 14:13:47.127338"	"2021-01-27 14:13:47.964811"	94	6.0600403
"S210127"	"Response_Inhibition"	"RIGHT"	"RIGHT"	590.95769999999	1250.0000025	""	n/a	n/a	n/a	n/a	n/a	n/a	"2021-01-27 14:13:49.223208"	"2021-01-27 14:13:50.022384"	95	6.0600403
"S210127"	"Response_Inhibition"	"LEFT"	"LEFT"	638.231800000085	633.3333346	""	n/a	n/a	n/a	n/a	n/a	n/a	"2021-01-27 14:13:50.664805"	"2021-01-27 14:13:51.510772"	96	6.0600403
"S210127"	"Response_Inhibition"	"RIGHT"	"Time_Max_Exceeded"	1500.06046690002	783.3333349	""	n/a	n/a	n/a	n/a	n/a	n/a	"2021-01-27 14:13:52.302719"	"2021-01-27 14:13:53.805810"	97	6.0600403
"S210127"	"Response_Inhibition"	"LEFT"	"Time_Max_Exceeded"	1500.06030040004	1216.6666691	""	n/a	n/a	n/a	n/a	n/a	n/a	"2021-01-27 14:13:55.032135"	"2021-01-27 14:13:56.535092"	98	6.0600403
"S210127"	"Response_Inhibition"	"RIGHT"	"RIGHT"	839.608899999917	950.0000019	""	n/a	n/a	n/a	n/a	n/a	n/a	"2021-01-27 14:13:57.494498"	"2021-01-27 14:13:58.542079"	99	6.0600403
"S210127"	"Response_Inhibition"	"LEFT"	"Time_Max_Exceeded"	1500.07826670007	783.3333349	""	n/a	n/a	n/a	n/a	n/a	n/a	"2021-01-27 14:13:59.333031"	"2021-01-27 14:14:00.836879"	100	6.0600403
"S210127"	"Response_Inhibition"	"RIGHT"	"RIGHT"	591.66110000001	766.6666682	""	n/a	n/a	n/a	n/a	n/a	n/a	"2021-01-27 14:14:01.614380"	"2021-01-27 14:14:02.413775"	101	6.0600403
"S210127"	"Response_Inhibition"	"RIGHT"	"RIGHT"	748.651999999993	1483.3333363	""	n/a	n/a	n/a	n/a	n/a	n/a	"2021-01-27 14:14:03.905288"	"2021-01-27 14:14:04.861463"	102	6.0600403
"S210127"	"Response_Inhibition"	"LEFT"	"LEFT"	403.646900500012	1433.3333362	""	n/a	n/a	n/a	n/a	n/a	n/a	"2021-01-27 14:14:06.303031"	"2021-01-27 14:14:06.917812"	103	6.0600403
"S210127"	"Response_Inhibition"	"RIGHT"	"RIGHT"	588.453399999935	683.3333347	"LEFT"	-543.064	n/a	n/a	n/a	n/a	n/a	"2021-01-27 14:14:07.609288"	"2021-01-27 14:14:08.405804"	104	6.0600403
"S210127"	"Response_Inhibition"	"RIGHT"	"Time_Max_Exceeded"	1500.05166730004	933.3333352	""	n/a	n/a	n/a	n/a	n/a	n/a	"2021-01-27 14:14:09.347792"	"2021-01-27 14:14:10.851270"	105	6.0600403
"S210127"	"Response_Inhibition"	"RIGHT"	"RIGHT"	695.898299999953	1450.0000029	""	n/a	n/a	n/a	n/a	n/a	n/a	"2021-01-27 14:14:12.309607"	"2021-01-27 14:14:13.214197"	106	6.0600403
"S210127"	"Response_Inhibition"	"RIGHT"	"Time_Max_Exceeded"	1500.05226720002	1166.666669	""	n/a	n/a	n/a	n/a	n/a	n/a	"2021-01-27 14:14:14.389736"	"2021-01-27 14:14:15.892873"	107	6.0600403
"S210127"	"Response_Inhibition"	"LEFT"	"Time_Max_Exceeded"	1500.07180060005	1483.3333363	""	n/a	n/a	n/a	n/a	n/a	n/a	"2021-01-27 14:14:17.384465"	"2021-01-27 14:14:18.888732"	108	6.0600403
"S210127"	"Response_Inhibition"	"LEFT"	"LEFT"	566.390200000001	1150.0000023	""	n/a	n/a	n/a	n/a	n/a	n/a	"2021-01-27 14:14:20.047730"	"2021-01-27 14:14:20.821473"	109	6.0600403
"S210127"	"Response_Inhibition"	"LEFT"	"Time_Max_Exceeded"	1500.05720030004	683.3333347	""	n/a	n/a	n/a	n/a	n/a	n/a	"2021-01-27 14:14:21.513094"	"2021-01-27 14:14:23.016422"	110	6.0600403
"S210127"	"Response_Inhibition"	"LEFT"	"LEFT"	605.688500000042	516.6666677	""	n/a	n/a	n/a	n/a	n/a	n/a	"2021-01-27 14:14:23.544518"	"2021-01-27 14:14:24.358050"	111	6.0600403
"S210127"	"Response_Inhibition"	"RIGHT"	"RIGHT"	646.400299999982	1433.3333362	""	n/a	n/a	n/a	n/a	n/a	n/a	"2021-01-27 14:14:25.799859"	"2021-01-27 14:14:26.654324"	112	6.0600403
"S210127"	"Response_Inhibition"	"RIGHT"	"Time_Max_Exceeded"	1500.06020000001	1333.333336	""	n/a	n/a	n/a	n/a	n/a	n/a	"2021-01-27 14:14:27.996381"	"2021-01-27 14:14:29.495924"	113	6.0600403
"S210127"	"Response_Inhibition"	"RIGHT"	"Time_Max_Exceeded"	1500.05176689994	616.6666679	""	n/a	n/a	n/a	n/a	n/a	n/a	"2021-01-27 14:14:30.122361"	"2021-01-27 14:14:31.626016"	114	6.0600403
"S210127"	"Response_Inhibition"	"RIGHT"	"RIGHT"	612.738299999933	966.6666686	""	n/a	n/a	n/a	n/a	n/a	n/a	"2021-01-27 14:14:32.601081"	"2021-01-27 14:14:33.421467"	115	6.0600403
"S210127"	"Response_Inhibition"	"LEFT"	"Time_Max_Exceeded"	1500.07050019997	1133.3333356	""	n/a	n/a	n/a	n/a	n/a	n/a	"2021-01-27 14:14:34.563552"	"2021-01-27 14:14:36.066232"	116	6.0600403
"S210127"	"Response_Inhibition"	"LEFT"	"LEFT"	660.548899999981	916.6666685	""	n/a	n/a	n/a	n/a	n/a	n/a	"2021-01-27 14:14:36.993395"	"2021-01-27 14:14:37.861624"	117	6.0600403
"S210127"	"Response_Inhibition"	"RIGHT"	"Time_Max_Exceeded"	1500.04796670002	550.0000011	""	n/a	n/a	n/a	n/a	n/a	n/a	"2021-01-27 14:14:38.420392"	"2021-01-27 14:14:39.923648"	118	6.0600403
"S210127"	"Response_Inhibition"	"RIGHT"	"RIGHT"	478.377399999999	833.333335	""	n/a	n/a	n/a	n/a	n/a	n/a	"2021-01-27 14:14:40.766842"	"2021-01-27 14:14:41.453409"	119	6.0600403
"S210127"	"Response_Inhibition"	"LEFT"	"LEFT"	422.251999999958	1050.0000021	""	n/a	n/a	n/a	n/a	n/a	n/a	"2021-01-27 14:14:42.511864"	"2021-01-27 14:14:43.141637"	120	6.0600403
"S210127"	"Response_Inhibition"	"LEFT"	"LEFT"	434.369100000026	1116.6666689	""	n/a	n/a	n/a	n/a	n/a	n/a	"2021-01-27 14:14:44.267320"	"2021-01-27 14:14:44.910080"	121	6.0600403
"S210127"	"Response_Inhibition"	"RIGHT"	"RIGHT"	548.823200000015	866.6666684	""	n/a	n/a	n/a	n/a	n/a	n/a	"2021-01-27 14:14:45.785351"	"2021-01-27 14:14:46.541935"	122	6.0600403
"S210127"	"Response_Inhibition"	"LEFT"	"Time_Max_Exceeded"	1500.05743350001	1366.6666694	""	n/a	n/a	n/a	n/a	n/a	n/a	"2021-01-27 14:14:47.917373"	"2021-01-27 14:14:49.420300"	123	6.0600403
"S210127"	"Response_Inhibition"	"LEFT"	"Time_Max_Exceeded"	1500.05480009998	533.3333344	""	n/a	n/a	n/a	n/a	n/a	n/a	"2021-01-27 14:14:49.963480"	"2021-01-27 14:14:51.466345"	124	6.0600403
"S210127"	"Response_Inhibition"	"LEFT"	"LEFT"	484.735899999919	1466.6666696	""	n/a	n/a	n/a	n/a	n/a	n/a	"2021-01-27 14:14:52.945293"	"2021-01-27 14:14:53.638039"	125	6.0600403
"S210127"	"Response_Inhibition"	"LEFT"	"LEFT"	398.869999999988	1216.6666691	""	n/a	n/a	n/a	n/a	n/a	n/a	"2021-01-27 14:14:54.863340"	"2021-01-27 14:14:55.470031"	126	6.0600403
"S210127"	"Response_Inhibition"	"LEFT"	"LEFT"	503.329300000019	800.0000016	""	n/a	n/a	n/a	n/a	n/a	n/a	"2021-01-27 14:14:56.278964"	"2021-01-27 14:14:56.990060"	127	6.0600403
"S210127"	"Response_Inhibition"	"LEFT"	"LEFT"	494.344700000056	1016.6666687	""	n/a	n/a	n/a	n/a	n/a	n/a	"2021-01-27 14:14:58.015201"	"2021-01-27 14:14:58.716828"	128	6.0600403
"S210127"	"Response_Inhibition"	"LEFT"	"LEFT"	317.256400000019	1083.3333355	""	n/a	n/a	n/a	n/a	n/a	n/a	"2021-01-27 14:14:59.809082"	"2021-01-27 14:15:00.333707"	129	6.0600403
"S210127"	"Response_Inhibition"	"RIGHT"	"Time_Max_Exceeded"	1500.05230040006	883.3333351	""	n/a	n/a	n/a	n/a	n/a	n/a	"2021-01-27 14:15:01.225993"	"2021-01-27 14:15:02.729542"	130	6.0600403
"S210127"	"Response_Inhibition"	"LEFT"	"LEFT"	361.263299999905	1466.6666696	""	n/a	n/a	n/a	n/a	n/a	n/a	"2021-01-27 14:15:04.205066"	"2021-01-27 14:15:04.774372"	131	6.0600403
"S210127"	"Response_Inhibition"	"RIGHT"	"RIGHT"	681.053399999996	533.3333344	""	n/a	n/a	n/a	n/a	n/a	n/a	"2021-01-27 14:15:05.317160"	"2021-01-27 14:15:06.205054"	132	6.0600403
"S210127"	"Response_Inhibition"	"RIGHT"	"RIGHT"	561.702299999979	1366.6666694	""	n/a	n/a	n/a	n/a	n/a	n/a	"2021-01-27 14:15:07.580155"	"2021-01-27 14:15:08.350200"	133	6.0600403
"S210127"	"Response_Inhibition"	"RIGHT"	"RIGHT"	659.126799999967	1100.0000022	""	n/a	n/a	n/a	n/a	n/a	n/a	"2021-01-27 14:15:09.458800"	"2021-01-27 14:15:10.326327"	134	6.0600403
"S210127"	"Response_Inhibition"	"LEFT"	"LEFT"	442.300299999943	716.6666681	""	n/a	n/a	n/a	n/a	n/a	n/a	"2021-01-27 14:15:11.051902"	"2021-01-27 14:15:11.702298"	135	6.0600403
"S210127"	"Response_Inhibition"	"LEFT"	"LEFT"	636.245400000007	1266.6666692	""	n/a	n/a	n/a	n/a	n/a	n/a	"2021-01-27 14:15:12.977967"	"2021-01-27 14:15:13.825290"	136	6.0600403
"S210127"	"Response_Inhibition"	"LEFT"	"LEFT"	474.206600000002	1450.0000029	""	n/a	n/a	n/a	n/a	n/a	n/a	"2021-01-27 14:15:15.283526"	"2021-01-27 14:15:15.966208"	137	6.0600403
"S210127"	"Response_Inhibition"	"RIGHT"	"RIGHT"	437.256600000069	633.3333346	""	n/a	n/a	n/a	n/a	n/a	n/a	"2021-01-27 14:15:16.608566"	"2021-01-27 14:15:17.253415"	138	6.0600403
"S210127"	"Response_Inhibition"	"LEFT"	"LEFT"	380.433100000005	683.3333347	""	n/a	n/a	n/a	n/a	n/a	n/a	"2021-01-27 14:15:17.945643"	"2021-01-27 14:15:18.533784"	139	6.0600403
"S210127"	"Response_Inhibition"	"RIGHT"	"RIGHT"	526.374900000064	1216.6666691	""	n/a	n/a	n/a	n/a	n/a	n/a	"2021-01-27 14:15:19.759302"	"2021-01-27 14:15:20.493624"	140	6.0600403
"S210127"	"Response_Inhibition"	"RIGHT"	"RIGHT"	426.856733900049	850.0000017	""	n/a	n/a	n/a	n/a	n/a	n/a	"2021-01-27 14:15:21.351667"	"2021-01-27 14:15:21.989773"	141	6.0600403
"S210127"	"Response_Inhibition"	"LEFT"	"Time_Max_Exceeded"	1500.05913360004	700.0000014	""	n/a	n/a	n/a	n/a	n/a	n/a	"2021-01-27 14:15:22.698715"	"2021-01-27 14:15:24.201061"	142	6.0600403
"S210127"	"Response_Inhibition"	"LEFT"	"LEFT"	651.993199999993	1183.3333357	""	n/a	n/a	n/a	n/a	n/a	n/a	"2021-01-27 14:15:25.393610"	"2021-01-27 14:15:26.253181"	143	6.0600403
"S210127"	"Response_Inhibition"	"RIGHT"	"RIGHT"	558.176900000035	1050.0000021	""	n/a	n/a	n/a	n/a	n/a	n/a	"2021-01-27 14:15:27.311152"	"2021-01-27 14:15:28.078068"	144	6.0600403
"S210127"	"Response_Inhibition"	"LEFT"	"LEFT"	625.457299999994	950.0000019	""	n/a	n/a	n/a	n/a	n/a	n/a	"2021-01-27 14:15:29.036539"	"2021-01-27 14:15:29.870627"	145	6.0600403
"S210127"	"Response_Inhibition"	"RIGHT"	"Time_Max_Exceeded"	1500.04740040004	1466.6666696	""	n/a	n/a	n/a	n/a	n/a	n/a	"2021-01-27 14:15:31.346486"	"2021-01-27 14:15:32.850072"	146	6.0600403
"S210127"	"Response_Inhibition"	"LEFT"	"LEFT"	550.921399999993	900.0000018	""	n/a	n/a	n/a	n/a	n/a	n/a	"2021-01-27 14:15:33.759184"	"2021-01-27 14:15:34.517576"	147	6.0600403
"S210127"	"Response_Inhibition"	"LEFT"	"LEFT"	520.928300000037	1166.666669	""	n/a	n/a	n/a	n/a	n/a	n/a	"2021-01-27 14:15:35.692997"	"2021-01-27 14:15:36.422058"	148	6.0600403
"S210127"	"Response_Inhibition"	"RIGHT"	"RIGHT"	554.662699999994	916.6666685	""	n/a	n/a	n/a	n/a	n/a	n/a	"2021-01-27 14:15:37.347560"	"2021-01-27 14:15:38.109577"	149	6.0600403
"S210127"	"Response_Inhibition"	"RIGHT"	"RIGHT"	706.120800000008	1150.0000023	""	n/a	n/a	n/a	n/a	n/a	n/a	"2021-01-27 14:15:39.267822"	"2021-01-27 14:15:40.181501"	150	6.0600403
"S210127"	"Response_Inhibition"	"RIGHT"	"Time_Max_Exceeded"	1500.04813389998	650.0000013	""	n/a	n/a	n/a	n/a	n/a	n/a	"2021-01-27 14:15:40.841198"	"2021-01-27 14:15:42.343923"	151	6.0600403
"S210127"	"Response_Inhibition"	"LEFT"	"Time_Max_Exceeded"	1500.06310009997	1283.3333359	""	n/a	n/a	n/a	n/a	n/a	n/a	"2021-01-27 14:15:43.636620"	"2021-01-27 14:15:45.140903"	152	6.0600403
"S210127"	"Response_Inhibition"	"LEFT"	"Time_Max_Exceeded"	1500.05196710008	1100.0000022	""	n/a	n/a	n/a	n/a	n/a	n/a	"2021-01-27 14:15:46.250343"	"2021-01-27 14:15:47.754210"	153	6.0600403
"S210127"	"Response_Inhibition"	"RIGHT"	"RIGHT"	622.401599999989	1100.0000022	""	n/a	n/a	n/a	n/a	n/a	n/a	"2021-01-27 14:15:48.863395"	"2021-01-27 14:15:49.693783"	154	6.0600403
"S210127"	"Response_Inhibition"	"LEFT"	"LEFT"	592.792799999984	1366.6666694	""	n/a	n/a	n/a	n/a	n/a	n/a	"2021-01-27 14:15:51.069657"	"2021-01-27 14:15:51.869778"	155	6.0600403
"S210127"	"Response_Inhibition"	"RIGHT"	"RIGHT"	682.481300000063	683.3333347	""	n/a	n/a	n/a	n/a	n/a	n/a	"2021-01-27 14:15:52.563039"	"2021-01-27 14:15:53.453656"	156	6.0600403
"S210127"	"Response_Inhibition"	"RIGHT"	"RIGHT"	613.369400000011	850.0000017	""	n/a	n/a	n/a	n/a	n/a	n/a	"2021-01-27 14:15:54.311891"	"2021-01-27 14:15:55.132417"	157	6.0600403
"S210127"	"Response_Inhibition"	"RIGHT"	"RIGHT"	907.396399999925	516.6666677	""	n/a	n/a	n/a	n/a	n/a	n/a	"2021-01-27 14:15:55.658847"	"2021-01-27 14:15:56.774215"	158	6.0600403
"S210127"	"Response_Inhibition"	"RIGHT"	"RIGHT"	587.480600000049	900.0000018	""	n/a	n/a	n/a	n/a	n/a	n/a	"2021-01-27 14:15:57.682358"	"2021-01-27 14:15:58.477760"	159	6.0600403
"S210127"	"Response_Inhibition"	"LEFT"	"LEFT"	430.458799999997	1233.3333358	""	n/a	n/a	n/a	n/a	n/a	n/a	"2021-01-27 14:15:59.719315"	"2021-01-27 14:16:00.358109"	160	6.0600403
"S210127"	"Response_Selection"	"RIGHT"	"RIGHT"	288.189399999965	1350.0000027	n/a	n/a	n/a	n/a	n/a	n/a	n/a	"2021-01-27 14:07:53.886524"	"2021-01-27 14:07:54.382497"	1	2.93897385
"S210127"	"Response_Selection"	"RIGHT"	"RIGHT"	224.716699999988	1166.666669	n/a	n/a	n/a	n/a	n/a	n/a	n/a	"2021-01-27 14:07:55.557516"	"2021-01-27 14:07:55.989793"	2	2.93897385
"S210127"	"Response_Selection"	"LEFT"	"LEFT"	336.897700000009	583.3333345	n/a	n/a	n/a	n/a	n/a	n/a	n/a	"2021-01-27 14:07:56.581263"	"2021-01-27 14:07:57.125930"	3	2.93897385
"S210127"	"Response_Selection"	"LEFT"	"LEFT"	283.192199999974	1316.6666693	n/a	n/a	n/a	n/a	n/a	n/a	n/a	"2021-01-27 14:07:58.451347"	"2021-01-27 14:07:58.945234"	4	2.93897385
"S210127"	"Response_Selection"	"RIGHT"	"RIGHT"	241.020999999989	1466.6666696	n/a	n/a	n/a	n/a	n/a	n/a	n/a	"2021-01-27 14:08:00.421087"	"2021-01-27 14:08:00.870883"	5	2.93897385
"S210127"	"Response_Selection"	"LEFT"	"LEFT"	298.275700000033	866.6666684	n/a	n/a	n/a	n/a	n/a	n/a	n/a	"2021-01-27 14:08:01.747704"	"2021-01-27 14:08:02.253672"	6	2.93897385
"S210127"	"Response_Selection"	"RIGHT"	"RIGHT"	286.148300000036	600.0000012	n/a	n/a	n/a	n/a	n/a	n/a	n/a	"2021-01-27 14:08:02.864591"	"2021-01-27 14:08:03.358060"	7	2.93897385
"S210127"	"Response_Selection"	"LEFT"	"LEFT"	229.050099999995	1033.3333354	n/a	n/a	n/a	n/a	n/a	n/a	n/a	"2021-01-27 14:08:04.401055"	"2021-01-27 14:08:04.838876"	8	2.93897385
"S210127"	"Response_Selection"	"LEFT"	"LEFT"	317.134399999986	1450.0000029	n/a	n/a	n/a	n/a	n/a	n/a	n/a	"2021-01-27 14:08:06.297163"	"2021-01-27 14:08:06.822038"	9	2.93897385
"S210127"	"Response_Selection"	"LEFT"	"LEFT"	378.822899999989	533.3333344	n/a	n/a	n/a	n/a	n/a	n/a	n/a	"2021-01-27 14:08:07.362974"	"2021-01-27 14:08:07.951870"	10	2.93897385
"S210127"	"Response_Selection"	"RIGHT"	"RIGHT"	243.508399999996	1066.6666688	n/a	n/a	n/a	n/a	n/a	n/a	n/a	"2021-01-27 14:08:09.026816"	"2021-01-27 14:08:09.477632"	11	2.93897385
"S210127"	"Response_Selection"	"RIGHT"	"RIGHT"	377.990999999952	550.0000011	n/a	n/a	n/a	n/a	n/a	n/a	n/a	"2021-01-27 14:08:10.036149"	"2021-01-27 14:08:10.622579"	12	2.93897385
"S210127"	"Response_Selection"	"RIGHT"	"RIGHT"	307.026199999996	700.0000014	n/a	n/a	n/a	n/a	n/a	n/a	n/a	"2021-01-27 14:08:11.331468"	"2021-01-27 14:08:11.847183"	13	2.93897385
"S210127"	"Response_Selection"	"LEFT"	"LEFT"	314.732399999968	500.000001	n/a	n/a	n/a	n/a	n/a	n/a	n/a	"2021-01-27 14:08:12.355306"	"2021-01-27 14:08:12.879984"	14	2.93897385
"S210127"	"Response_Selection"	"LEFT"	"LEFT"	313.327700000002	883.3333351	n/a	n/a	n/a	n/a	n/a	n/a	n/a	"2021-01-27 14:08:13.772743"	"2021-01-27 14:08:14.295390"	15	2.93897385
"S210127"	"Response_Selection"	"LEFT"	"LEFT"	261.209199999996	633.3333346	n/a	n/a	n/a	n/a	n/a	n/a	n/a	"2021-01-27 14:08:14.937054"	"2021-01-27 14:08:15.405507"	16	2.93897385
"S210127"	"Response_Selection"	"LEFT"	"LEFT"	308.005799999989	1500.000003	n/a	n/a	n/a	n/a	n/a	n/a	n/a	"2021-01-27 14:08:16.914800"	"2021-01-27 14:08:17.430110"	17	2.93897385
"S210127"	"Response_Selection"	"RIGHT"	"LEFT"	338.014299999998	583.3333345	n/a	n/a	n/a	n/a	n/a	n/a	n/a	"2021-01-27 14:08:18.021798"	"2021-01-27 14:08:18.568149"	18	2.93897385
"S210127"	"Response_Selection"	"LEFT"	"LEFT"	461.115100000029	1016.6666687	n/a	n/a	n/a	n/a	n/a	n/a	n/a	"2021-01-27 14:08:19.592958"	"2021-01-27 14:08:20.261802"	19	2.93897385
"S210127"	"Response_Selection"	"LEFT"	"LEFT"	375.174399999992	1416.6666695	n/a	n/a	n/a	n/a	n/a	n/a	n/a	"2021-01-27 14:08:21.686616"	"2021-01-27 14:08:22.270172"	20	2.93897385
"S210127"	"Response_Selection"	"LEFT"	"LEFT"	345.363300000031	1366.6666694	n/a	n/a	n/a	n/a	n/a	n/a	n/a	"2021-01-27 14:08:23.645204"	"2021-01-27 14:08:24.197790"	21	2.93897385
"S210127"	"Response_Selection"	"RIGHT"	"RIGHT"	316.553399999975	883.3333351	n/a	n/a	n/a	n/a	n/a	n/a	n/a	"2021-01-27 14:08:25.089528"	"2021-01-27 14:08:25.613785"	22	2.93897385
"S210127"	"Response_Selection"	"LEFT"	"LEFT"	278.023700000006	1250.0000025	n/a	n/a	n/a	n/a	n/a	n/a	n/a	"2021-01-27 14:08:26.872109"	"2021-01-27 14:08:27.358338"	23	2.93897385
"S210127"	"Response_Selection"	"LEFT"	"LEFT"	322.984600000041	1116.6666689	n/a	n/a	n/a	n/a	n/a	n/a	n/a	"2021-01-27 14:08:28.483088"	"2021-01-27 14:08:29.013643"	24	2.93897385
"S210127"	"Response_Selection"	"LEFT"	"LEFT"	343.972300000019	600.0000012	n/a	n/a	n/a	n/a	n/a	n/a	n/a	"2021-01-27 14:08:29.622562"	"2021-01-27 14:08:30.174086"	25	2.93897385
"S210127"	"Response_Selection"	"RIGHT"	"RIGHT"	265.3368	733.3333348	n/a	n/a	n/a	n/a	n/a	n/a	n/a	"2021-01-27 14:08:30.917101"	"2021-01-27 14:08:31.389999"	26	2.93897385
"S210127"	"Response_Selection"	"RIGHT"	"RIGHT"	366.34220000002	1033.3333354	n/a	n/a	n/a	n/a	n/a	n/a	n/a	"2021-01-27 14:08:32.431754"	"2021-01-27 14:08:33.006913"	27	2.93897385
"S210127"	"Response_Selection"	"LEFT"	"LEFT"	291.663400000004	1083.3333355	n/a	n/a	n/a	n/a	n/a	n/a	n/a	"2021-01-27 14:08:34.098720"	"2021-01-27 14:08:34.597673"	28	2.93897385
"S210127"	"Response_Selection"	"RIGHT"	"RIGHT"	295.464199999969	1016.6666687	n/a	n/a	n/a	n/a	n/a	n/a	n/a	"2021-01-27 14:08:35.622360"	"2021-01-27 14:08:36.125517"	29	2.93897385
"S210127"	"Response_Selection"	"RIGHT"	"RIGHT"	300.601300000039	1500.000003	n/a	n/a	n/a	n/a	n/a	n/a	n/a	"2021-01-27 14:08:37.634073"	"2021-01-27 14:08:38.142018"	30	2.93897385
"S210127"	"Response_Selection"	"LEFT"	"LEFT"	258.656199999962	933.3333352	n/a	n/a	n/a	n/a	n/a	n/a	n/a	"2021-01-27 14:08:39.084032"	"2021-01-27 14:08:39.550125"	31	2.93897385
"S210127"	"Response_Selection"	"RIGHT"	"RIGHT"	261.186000000009	1266.6666692	n/a	n/a	n/a	n/a	n/a	n/a	n/a	"2021-01-27 14:08:40.825474"	"2021-01-27 14:08:41.294231"	32	2.93897385
"S210127"	"Response_Selection"	"RIGHT"	"RIGHT"	296.469699999989	983.3333353	n/a	n/a	n/a	n/a	n/a	n/a	n/a	"2021-01-27 14:08:42.285741"	"2021-01-27 14:08:42.789705"	33	2.93897385
"S210127"	"Response_Selection"	"RIGHT"	"RIGHT"	298.010599999998	750.0000015	n/a	n/a	n/a	n/a	n/a	n/a	n/a	"2021-01-27 14:08:43.548252"	"2021-01-27 14:08:44.054142"	34	2.93897385
"S210127"	"Response_Selection"	"LEFT"	"RIGHT"	288.961099999995	966.6666686	n/a	n/a	n/a	n/a	n/a	n/a	n/a	"2021-01-27 14:08:45.029415"	"2021-01-27 14:08:45.525989"	35	2.93897385
"S210127"	"Response_Selection"	"LEFT"	"LEFT"	451.297899999986	700.0000014	n/a	n/a	n/a	n/a	n/a	n/a	n/a	"2021-01-27 14:08:46.235393"	"2021-01-27 14:08:46.894641"	36	2.93897385
"S210127"	"Response_Selection"	"RIGHT"	"RIGHT"	313.366500000029	933.3333352	n/a	n/a	n/a	n/a	n/a	n/a	n/a	"2021-01-27 14:08:47.837318"	"2021-01-27 14:08:48.358888"	37	2.93897385
"S210127"	"Response_Selection"	"RIGHT"	"RIGHT"	297.331200000031	1116.6666689	n/a	n/a	n/a	n/a	n/a	n/a	n/a	"2021-01-27 14:08:49.485149"	"2021-01-27 14:08:49.989413"	38	2.93897385
"S210127"	"Response_Selection"	"LEFT"	"LEFT"	339.273699999978	733.3333348	n/a	n/a	n/a	n/a	n/a	n/a	n/a	"2021-01-27 14:08:50.730934"	"2021-01-27 14:08:51.278337"	39	2.93897385
"S210127"	"Response_Selection"	"LEFT"	"LEFT"	367.355799999984	1400.0000028	n/a	n/a	n/a	n/a	n/a	n/a	n/a	"2021-01-27 14:08:52.687255"	"2021-01-27 14:08:53.261751"	40	2.93897385
"S210127"	"Response_Selection"	"LEFT"	"LEFT"	285.198600000001	1466.6666696	n/a	n/a	n/a	n/a	n/a	n/a	n/a	"2021-01-27 14:08:54.736889"	"2021-01-27 14:08:55.229578"	41	2.93897385
"S210127"	"Response_Selection"	"RIGHT"	"RIGHT"	270.111099999951	1083.3333355	n/a	n/a	n/a	n/a	n/a	n/a	n/a	"2021-01-27 14:08:56.321576"	"2021-01-27 14:08:56.799580"	42	2.93897385
"S210127"	"Response_Selection"	"LEFT"	"LEFT"	278.918000000033	983.3333353	n/a	n/a	n/a	n/a	n/a	n/a	n/a	"2021-01-27 14:08:57.791018"	"2021-01-27 14:08:58.277413"	43	2.93897385
"S210127"	"Response_Selection"	"LEFT"	"LEFT"	329.843699999969	783.3333349	n/a	n/a	n/a	n/a	n/a	n/a	n/a	"2021-01-27 14:08:59.068349"	"2021-01-27 14:08:59.605429"	44	2.93897385
"S210127"	"Response_Selection"	"RIGHT"	"RIGHT"	307.391999999993	1316.6666693	n/a	n/a	n/a	n/a	n/a	n/a	n/a	"2021-01-27 14:09:00.931151"	"2021-01-27 14:09:01.445611"	45	2.93897385
"S210127"	"Response_Selection"	"RIGHT"	"RIGHT"	335.001099999999	833.333335	n/a	n/a	n/a	n/a	n/a	n/a	n/a	"2021-01-27 14:09:02.287500"	"2021-01-27 14:09:02.831367"	46	2.93897385
"S210127"	"Response_Selection"	"LEFT"	"LEFT"	248.161200000027	1133.3333356	n/a	n/a	n/a	n/a	n/a	n/a	n/a	"2021-01-27 14:09:03.974357"	"2021-01-27 14:09:04.430882"	47	2.93897385
"S210127"	"Response_Selection"	"RIGHT"	"RIGHT"	449.316099999976	533.3333344	n/a	n/a	n/a	n/a	n/a	n/a	n/a	"2021-01-27 14:09:04.973465"	"2021-01-27 14:09:05.630198"	48	2.93897385
"S210127"	"Response_Selection"	"RIGHT"	"RIGHT"	366.568500000028	633.3333346	n/a	n/a	n/a	n/a	n/a	n/a	n/a	"2021-01-27 14:09:06.272163"	"2021-01-27 14:09:06.845628"	49	2.93897385
"S210127"	"Response_Selection"	"RIGHT"	"RIGHT"	293.425200000001	866.6666684	n/a	n/a	n/a	n/a	n/a	n/a	n/a	"2021-01-27 14:09:07.721153"	"2021-01-27 14:09:08.221554"	50	2.93897385
"S210127"	"Response_Selection"	"RIGHT"	"RIGHT"	312.156899999991	800.0000016	n/a	n/a	n/a	n/a	n/a	n/a	n/a	"2021-01-27 14:09:09.030508"	"2021-01-27 14:09:09.550355"	51	2.93897385
"S210127"	"Response_Selection"	"RIGHT"	"RIGHT"	319.384999999954	1416.6666695	n/a	n/a	n/a	n/a	n/a	n/a	n/a	"2021-01-27 14:09:10.975205"	"2021-01-27 14:09:11.501651"	52	2.93897385
"S210127"	"Response_Selection"	"RIGHT"	"RIGHT"	341.211999999985	1450.0000029	n/a	n/a	n/a	n/a	n/a	n/a	n/a	"2021-01-27 14:09:12.960674"	"2021-01-27 14:09:13.509944"	53	2.93897385
"S210127"	"Response_Selection"	"RIGHT"	"RIGHT"	337.423599999966	1133.3333356	n/a	n/a	n/a	n/a	n/a	n/a	n/a	"2021-01-27 14:09:14.652925"	"2021-01-27 14:09:15.198209"	54	2.93897385
"S210127"	"Response_Selection"	"LEFT"	"LEFT"	340.68689999998	650.0000013	n/a	n/a	n/a	n/a	n/a	n/a	n/a	"2021-01-27 14:09:15.857983"	"2021-01-27 14:09:16.405472"	55	2.93897385
"S210127"	"Response_Selection"	"RIGHT"	"RIGHT"	300.818800000002	683.3333347	n/a	n/a	n/a	n/a	n/a	n/a	n/a	"2021-01-27 14:09:17.097773"	"2021-01-27 14:09:17.607375"	56	2.93897385
"S210127"	"Response_Selection"	"LEFT"	"LEFT"	288.541699999996	1350.0000027	n/a	n/a	n/a	n/a	n/a	n/a	n/a	"2021-01-27 14:09:18.965892"	"2021-01-27 14:09:19.461566"	57	2.93897385
"S210127"	"Response_Selection"	"LEFT"	"LEFT"	277.281100000039	1066.6666688	n/a	n/a	n/a	n/a	n/a	n/a	n/a	"2021-01-27 14:09:20.536670"	"2021-01-27 14:09:21.022371"	58	2.93897385
"S210127"	"Response_Selection"	"RIGHT"	"RIGHT"	431.837999999971	783.3333349	n/a	n/a	n/a	n/a	n/a	n/a	n/a	"2021-01-27 14:09:21.814324"	"2021-01-27 14:09:22.453771"	59	2.93897385
"S210127"	"Response_Selection"	"LEFT"	"LEFT"	241.201900000021	1166.666669	n/a	n/a	n/a	n/a	n/a	n/a	n/a	"2021-01-27 14:09:23.629299"	"2021-01-27 14:09:24.079042"	60	2.93897385
"S210127"	"Response_Selection"	"LEFT"	"RIGHT"	304.882000000021	750.0000015	n/a	n/a	n/a	n/a	n/a	n/a	n/a	"2021-01-27 14:09:24.837633"	"2021-01-27 14:09:25.350262"	61	2.93897385
"S210127"	"Response_Selection"	"RIGHT"	"RIGHT"	606.938000000014	1400.0000028	n/a	n/a	n/a	n/a	n/a	n/a	n/a	"2021-01-27 14:09:26.759119"	"2021-01-27 14:09:27.574845"	62	2.93897385
"S210127"	"Response_Selection"	"LEFT"	"LEFT"	454.994599999964	1200.0000024	n/a	n/a	n/a	n/a	n/a	n/a	n/a	"2021-01-27 14:09:28.783340"	"2021-01-27 14:09:29.445613"	63	2.93897385
"S210127"	"Response_Selection"	"RIGHT"	"RIGHT"	366.25829999997	650.0000013	n/a	n/a	n/a	n/a	n/a	n/a	n/a	"2021-01-27 14:09:30.103949"	"2021-01-27 14:09:30.679202"	64	2.93897385
"S210127"	"Response_Selection"	"LEFT"	"LEFT"	325.512899999978	1216.6666691	n/a	n/a	n/a	n/a	n/a	n/a	n/a	"2021-01-27 14:09:31.904732"	"2021-01-27 14:09:32.439310"	65	2.93897385
"S210127"	"Response_Selection"	"LEFT"	"LEFT"	403.199599999994	683.3333347	n/a	n/a	n/a	n/a	n/a	n/a	n/a	"2021-01-27 14:09:33.131458"	"2021-01-27 14:09:33.741592"	66	2.93897385
"S210127"	"Response_Selection"	"LEFT"	"LEFT"	355.472300000031	916.6666685	n/a	n/a	n/a	n/a	n/a	n/a	n/a	"2021-01-27 14:09:34.666818"	"2021-01-27 14:09:35.230216"	67	2.93897385
"S210127"	"Response_Selection"	"RIGHT"	"RIGHT"	322.564599999964	500.000001	n/a	n/a	n/a	n/a	n/a	n/a	n/a	"2021-01-27 14:09:35.739430"	"2021-01-27 14:09:36.270395"	68	2.93897385
"S210127"	"Response_Selection"	"LEFT"	"LEFT"	475.188499999945	1300.0000026	n/a	n/a	n/a	n/a	n/a	n/a	n/a	"2021-01-27 14:09:37.579402"	"2021-01-27 14:09:38.261679"	69	2.93897385
"S210127"	"Response_Selection"	"RIGHT"	"RIGHT"	305.58179999997	1366.6666694	n/a	n/a	n/a	n/a	n/a	n/a	n/a	"2021-01-27 14:09:39.636431"	"2021-01-27 14:09:40.150570"	70	2.93897385
"S210127"	"Response_Selection"	"RIGHT"	"RIGHT"	346.337500000004	916.6666685	n/a	n/a	n/a	n/a	n/a	n/a	n/a	"2021-01-27 14:09:41.075756"	"2021-01-27 14:09:41.630725"	71	2.93897385
"S210127"	"Response_Selection"	"RIGHT"	"RIGHT"	535.725899999989	966.6666686	n/a	n/a	n/a	n/a	n/a	n/a	n/a	"2021-01-27 14:09:42.606257"	"2021-01-27 14:09:43.350748"	72	2.93897385
"S210127"	"Response_Selection"	"LEFT"	"LEFT"	672.958800000004	550.0000011	n/a	n/a	n/a	n/a	n/a	n/a	n/a	"2021-01-27 14:09:43.909436"	"2021-01-27 14:09:44.789759"	73	2.93897385
"S210127"	"Response_Selection"	"RIGHT"	"RIGHT"	316.153700000029	1300.0000026	n/a	n/a	n/a	n/a	n/a	n/a	n/a	"2021-01-27 14:09:46.098030"	"2021-01-27 14:09:46.622443"	74	2.93897385
"S210127"	"Response_Selection"	"RIGHT"	"RIGHT"	397.564399999965	1250.0000025	n/a	n/a	n/a	n/a	n/a	n/a	n/a	"2021-01-27 14:09:47.880674"	"2021-01-27 14:09:48.485592"	75	2.93897385
"S210127"	"Response_Selection"	"RIGHT"	"RIGHT"	335.431500000027	1216.6666691	n/a	n/a	n/a	n/a	n/a	n/a	n/a	"2021-01-27 14:09:49.710899"	"2021-01-27 14:09:50.254510"	76	2.93897385
"S210127"	"Response_Selection"	"LEFT"	"LEFT"	429.485299999953	833.333335	n/a	n/a	n/a	n/a	n/a	n/a	n/a	"2021-01-27 14:09:51.096775"	"2021-01-27 14:09:51.733580"	77	2.93897385
"S210127"	"Response_Selection"	"RIGHT"	"RIGHT"	280.692999999985	1200.0000024	n/a	n/a	n/a	n/a	n/a	n/a	n/a	"2021-01-27 14:09:52.941778"	"2021-01-27 14:09:53.430519"	78	2.93897385
"S210127"	"Response_Selection"	"LEFT"	"LEFT"	399.532399999998	800.0000016	n/a	n/a	n/a	n/a	n/a	n/a	n/a	"2021-01-27 14:09:54.238515"	"2021-01-27 14:09:54.846931"	79	2.93897385
"S210127"	"Response_Selection"	"LEFT"	"LEFT"	356.340499999988	1266.6666692	n/a	n/a	n/a	n/a	n/a	n/a	n/a	"2021-01-27 14:09:56.122320"	"2021-01-27 14:09:56.685620"	80	2.93897385
