index	Trial_Type	Participant_ID	Trial_Probability	Question_Position_Prediction_Correct	Question_Position_Prediction_Agent	Question_Position_Comparison_Self	Question_Position_Comparison_Irrelevant	Trial_Stake	Trial_Stake_Jitter	Trial_Type_Jitter	Trial_Result_Jitter	Balance_Update_Jitter	Question_Comparison_Condition	Question_Comparison_Type	Question_Comparison_Question	Question_Comparison_Label	Question_Comparison_Item	Question_Comparison_Proportion_Yes	Question_Factual_Condition	Question_Factual_Item	Question_Factual_Question	Question_Factual_Label	Question_Factual_Proportion_DontKnow	Question_Factual_Type	Answer_Prediction_Correct	Answer_Prediction_Correct_RT	Answer_Prediction_Agent	Answer_Prediction_Agent_RT	Answer_Self	Answer_Self_RT	Answer_Irrelevant	Answer_Irrelevant_RT	Trial_Balance	Trial_Balance_Effect	Trial_Condition	Trial_ProbableSide	Prediction_Choice	Prediction_Result	Prediction_RT	Trial_Order	Trial_Datetime
64	Self	S210127	0.6666666666666666	1	2	1	2	0.1	1283.3333359	1350.0000027	2500.000005	2350.0000047	Minor	Good_deeds	38	You have engaged in arson	C1_3	0.15	Hard	I2_5	43	Red is a color	0.611111111111111	No	LEFT	724.1014000001087	RIGHT	1087.4165000000175	LEFT	956.11729999996	RIGHT	743.7285000000884	9.9	0.1	Probable_Lie	LEFT	LEFT	5	556.9662999998855	0	2021-01-27 14:40:35.313510
24	Self	S210127	0.6666666666666666	2	1	1	2	0.7	1216.6666691	1216.6666691	1650.0000033	1783.3333369	Minor	Wrong_doings	13	You have extorted money from anyone	C1_45	0.55	Easy	I1_50	58	The Seine river is 50 feet above sea level	0.944444444444444	Yes	RIGHT	528.8015000000996	RIGHT	551.4995999999428	LEFT	692.2739999999976	RIGHT	1262.6763000000665	10.6	0.7	Probable_Truth	RIGHT	RIGHT	4	502.1286999999575	1	2021-01-27 14:40:57.289790
62	Self	S210127	0.5	2	1	2	1	0.5	1150.0000023	1066.6666688	1500.000003	2216.6666711000003	Minor	Good_deeds	19	You have held the elevator doors for others	C2_19	0.55	Easy	I2_34	58	Acoustic Kitty refers to cat with implants	0.833333333333333	Yes	LEFT	704.1890999998941	RIGHT	1284.9862000000485	RIGHT	1279.5799000000443	LEFT	2017.2272999998315	10.1	0.5	Probable_Lie	RIGHT	LEFT	5	996.910799999796	2	2021-01-27 14:41:22.082423
61	Self	S210127	0.5	2	1	2	1	0.4	1350.0000027	1216.6666691	2216.6666711000003	1650.0000033	Minor	Wrong_doings	6	You have cursed at others	C2_35	0.2	Hard	I1_26	56	Marijuana is legal in Singapore	0.0	Yes	RIGHT	312.57000000005064	RIGHT	441.2075999998706	LEFT	711.6203000000496	LEFT	894.839999999931	10.5	0.4	Probable_Truth	LEFT	RIGHT	6	738.0215999999109	3	2021-01-27 14:41:44.186586
86	Self	S210127	0.8333333333333334	1	2	2	1	0.1	1150.0000023	1216.6666691	1500.000003	2500.000005	Minor	Wrong_doings	24	You have bribed a police officer	C2_17	0.95	Hard	I1_10	47	There are 6000 spoken languages in the World	0.0	No	LEFT	1428.676600000017	RIGHT	633.830099999841	LEFT	703.4808999999314	RIGHT	902.6366000000507	10.4	0.1	Probable_Lie	RIGHT	RIGHT	1	794.3801999999778	4	2021-01-27 14:42:07.586427
115	Computer	S210127	0.6666666666666666	1	2	1	2	0.8	1216.6666691	1066.6666688	2350.0000047	1500.000003	Major	Wrong_doings	29	You have organized a violent protest	C2_57	0.0	Hard	I2_36	42	Cernan was the second last man to walk on the Moon	0.611111111111111	Yes	RIGHT	778.6493999999493	RIGHT	240.8910999999989	LEFT	1071.8747000000803	LEFT	1407.4213999999756	11.2	0.8	Probable_Truth	RIGHT	RIGHT	5	667.0397353600827	5	2021-01-27 14:42:30.458077
92	Self	S210127	0.8333333333333334	2	1	2	1	0.4	1350.0000027	1000.000002	1650.0000033	1650.0000033	Minor	Good_deeds	35	You have been physically hurt to protect others	C2_40	0.45	Hard	I2_45	54	Brazil is in South America	0.764705882352941	No	RIGHT	256.9710000000214	RIGHT	400.12000000001535	RIGHT	1367.9334000000836	RIGHT	777.8183999998873	11.6	0.4	Probable_Truth	LEFT	LEFT	1	564.0723999999864	6	2021-01-27 14:42:52.043365
89	Self	S210127	0.8333333333333334	2	1	1	2	0.3	1066.6666688	1150.0000023	2500.000005	2500.000005	Major	Wrong_doings	24	You have started an NGO using your savings	C1_35	0.0	Easy	I1_17	24	Feijoa is a type of grape	0.777777777777778	No	LEFT	328.062300000056	RIGHT	989.5748000001277	LEFT	1645.126399999981	RIGHT	1584.0064999999868	11.3	0.3	Probable_Lie	RIGHT	RIGHT	1	783.737100000053	7	2021-01-27 14:43:17.162488
141	Computer	S210127	0.8333333333333334	2	1	2	1	0.3	1283.3333359	1066.6666688	2350.0000047	1933.3333372	Minor	Good_deeds	3	You have been convicted in court	C1_40	0.05	Easy	I1_31	1	The Earth is round	0.0	No	RIGHT	288.0916999999954	LEFT	905.5045999998584	LEFT	888.6955000000398	RIGHT	800.5131999998412	11.3	0.3	Probable_Truth	LEFT	LEFT	1	951.1401234925512	8	2021-01-27 14:43:40.193751
136	Computer	S210127	0.8333333333333334	2	1	1	2	0.5	1150.0000023	1150.0000023	2500.000005	1783.3333369	Minor	Good_deeds	31	You have said thank you when you have received help	C1_31	1.0	Easy	I2_1	33	Today is Sunday	0.888888888888889	No	RIGHT	319.95849999998427	RIGHT	862.069799999972	RIGHT	978.5577000000104	LEFT	1046.2623000000804	11.8	0.5	Probable_Lie	LEFT	LEFT	2	549.3932291003782	9	2021-01-27 14:44:03.107184
134	Computer	S210127	0.8333333333333334	1	2	2	1	0.7	1066.6666688	1350.0000027	1783.3333369	1500.000003	Major	Wrong_doings	29	You have been donating all your excess food to a food bank	C2_50	0.2	Hard	I1_2	2	A caterpillar has more muscle than a human	0.0	No	LEFT	1187.4169000000163	LEFT	752.3048000000472	RIGHT	1430.788800000073	LEFT	1428.6956999999347	11.8	0.7	Probable_Lie	RIGHT	RIGHT	1	619.3238473377734	10	2021-01-27 14:44:26.793579
76	Self	S210127	0.6666666666666666	2	1	2	1	0.1	1150.0000023	1000.000002	2216.6666711000003	2500.000005	Minor	Wrong_doings	48	You have illegally stayed in a country	C1_9	0.5	Easy	I2_39	40	Bears have the biggest eyes among mammals	0.0	No	LEFT	512.924699999985	RIGHT	879.7872000000098	LEFT	1095.6681000000117	LEFT	1116.1137999999935	11.7	0.1	Probable_Lie	RIGHT	RIGHT	2	507.0020999999088	11	2021-01-27 14:44:50.346412
117	Computer	S210127	0.6666666666666666	1	2	2	1	0.3	1433.3333362	1150.0000023	1650.0000033	1783.3333369	Minor	Good_deeds	43	You have given directions to a lost tourist	C1_29	0.65	Hard	I2_25	11	The human's inner ear is larger than a pencil eraser	0.888888888888889	Yes	LEFT	379.122499999994	LEFT	455.3422999999839	RIGHT	965.1739000000816	LEFT	1818.3603999998468	11.7	0.3	Probable_Lie	RIGHT	LEFT	6	752.705054544454	12	2021-01-27 14:45:13.305188
59	Self	S210127	0.5	2	1	1	2	0.1	1066.6666688	1500.000003	2500.000005	1500.000003	Minor	Good_deeds	59	You have attended all lectures as a student	C1_49	0.95	Easy	I2_22	34	Some owl species hunt fish	0.722222222222222	Yes	RIGHT	287.88250000002336	RIGHT	347.37780000000384	RIGHT	1047.32469999999	RIGHT	1246.4732999999342	11.8	0.1	Probable_Truth	RIGHT	RIGHT	4	823.1958999999733	13	2021-01-27 14:45:36.202419
94	Self	S210127	0.8333333333333334	2	1	2	1	0.8	1150.0000023	1433.3333362	2066.6666708	2066.6666708	Minor	Wrong_doings	8	You have offered a listening ear to a friend	C2_20	0.05	Hard	I2_44	39	Mageirocophobia is a fear of deathly disease	0.944444444444444	No	RIGHT	88.70909999996002	RIGHT	356.99209999984305	RIGHT	1014.9049999999988	LEFT	1335.3382999998755	12.6	0.8	Probable_Lie	RIGHT	RIGHT	1	446.2942999998632	14	2021-01-27 14:45:58.738468
85	Self	S210127	0.8333333333333334	1	2	2	1	0.7	1000.000002	1350.0000027	2066.6666708	1783.3333369	Major	Good_deeds	33	You have kidnapped someone	C1_33	0.95	Hard	I1_47	41	Most plants emit oxygen in the day	0.611111111111111	Yes	RIGHT	486.44259999991846	RIGHT	384.7728000000643	LEFT	1288.3161999998265	RIGHT	1034.7537000000102	13.3	0.7	Probable_Truth	RIGHT	RIGHT	6	362.7473999999893	15	2021-01-27 14:46:21.066411
15	Self	S210127	0.5	2	1	2	1	0.8	1216.6666691	1433.3333362	2350.0000047	1783.3333369	Minor	Wrong_doings	31	You have returned your trays in food courts	C2_7	0.65	Hard	I2_13	13	A square has 3 corners	0.0555555555555556	Yes	RIGHT	255.9976000000006	RIGHT	401.176200000009	RIGHT	1159.5996000000923	LEFT	1091.801900000064	14.1	0.8	Probable_Truth	LEFT	LEFT	3	806.8218999999317	16	2021-01-27 14:46:44.137880
109	Computer	S210127	0.5	2	1	2	1	0.5	1433.3333362	1283.3333359	1783.3333369	1650.0000033	Minor	Wrong_doings	37	You have thrown your trash into the bin	C2_31	0.0	Hard	I1_35	41	The Moon orbits around the Earth	0.777777777777778	Yes	LEFT	224.2616000000908	LEFT	585.141799999974	RIGHT	783.0708000001323	RIGHT	1529.3257000000722	14.1	0.5	Probable_Lie	LEFT	RIGHT	1	543.1790098454414	17	2021-01-27 14:47:06.529542
48	Self	S210127	0.5	1	2	1	2	0.4	1350.0000027	1283.3333359	1500.000003	2500.000005	Minor	Wrong_doings	34	You have given up your seat in the MRT	C2_27	0.05	Hard	I1_12	40	There are 9 rings in the Olympic flag	0.944444444444444	No	RIGHT	357.9142999999476	RIGHT	1063.5738000000856	RIGHT	901.1387000000468	LEFT	1447.0484000000852	14.500000000000002	0.4	Probable_Lie	RIGHT	RIGHT	3	831.9845000000896	18	2021-01-27 14:47:30.338370
106	Computer	S210127	0.5	2	1	1	2	0.3	1000.000002	1066.6666688	2500.000005	1933.3333372	Major	Wrong_doings	11	You have donated blood every 6 months for many years	C1_37	0.0	Easy	I2_41	51	Polish is 20th most spoken language in the World	0.0	No	LEFT	384.78859999986526	LEFT	439.6391999998741	RIGHT	1333.1278000000566	LEFT	1542.9108000000724	14.500000000000002	0.3	Probable_Lie	LEFT	RIGHT	2	650.102083754218	19	2021-01-27 14:47:53.754194
127	Computer	S210127	0.6666666666666666	2	1	2	1	0.8	1150.0000023	1500.000003	2500.000005	2216.6666711000003	Minor	Good_deeds	58	You have bought cocaine	C2_9	0.9	Hard	I2_18	24	Malay is one of the races in Singapore	0.666666666666667	No	LEFT	247.1517000001313	LEFT	373.3388000000559	LEFT	1200.108799999953	RIGHT	1145.6863999999314	14.500000000000002	0.8	Probable_Lie	RIGHT	LEFT	5	571.2464159880419	20	2021-01-27 14:48:17.225468
87	Self	S210127	0.8333333333333334	1	2	2	1	0.6	1500.000003	1500.000003	1783.3333369	1650.0000033	Major	Good_deeds	12	You have held the door open for a stranger	C1_57	0.0	Hard	I2_31	4	A triangle has three sides	0.833333333333333	No	RIGHT	296.0751000000528	RIGHT	249.1147999999157	RIGHT	647.6723999999194	RIGHT	1199.3503000001056	15.1	0.6	Probable_Truth	LEFT	LEFT	1	486.6316000000097	21	2021-01-27 14:48:39.114441
57	Self	S210127	0.5	2	1	1	2	0.7	1433.3333362	1000.000002	1933.3333372	1783.3333369	Major	Wrong_doings	47	You have taken part in violent demonstration	C1_14	0.0	Easy	I2_6	54	The current century is 21st	0.0	No	LEFT	239.9738999999954	RIGHT	507.2072999998909	LEFT	1426.3076999998248	RIGHT	840.5941999999413	14.400000000000002	0.7	Probable_Lie	RIGHT	RIGHT	2	838.5324999999284	22	2021-01-27 14:49:01.689534
22	Self	S210127	0.6666666666666666	1	2	2	1	0.8	1216.6666691	1216.6666691	1650.0000033	1650.0000033	Minor	Good_deeds	57	You have made someone cry	C1_1	1.0	Hard	I1_42	8	Beef comes from cows	0.666666666666667	Yes	RIGHT	415.3273000001718	RIGHT	327.8806000000713	LEFT	895.7368999999744	RIGHT	1394.1985999999815	15.200000000000005	0.8	Probable_Truth	RIGHT	RIGHT	4	654.3101999998271	23	2021-01-27 14:49:23.680678
138	Computer	S210127	0.8333333333333334	2	1	1	2	0.4	1066.6666688	1283.3333359	2216.6666711000003	2350.0000047	Major	Wrong_doings	33	You have lied to your parents	C2_53	0.65	Hard	I2_60	3	Astatine is the rarest element in the Earth's crust	0.888888888888889	No	LEFT	184.39340000009	LEFT	360.6451999999081	RIGHT	1126.2876000000688	RIGHT	1715.9143000001222	15.200000000000005	0.4	Probable_Truth	LEFT	LEFT	1	856.2771244386497	24	2021-01-27 14:49:47.409692
88	Self	S210127	0.8333333333333334	2	1	1	2	0.1	1433.3333362	1066.6666688	1783.3333369	1500.000003	Major	Wrong_doings	46	You have coveted things that belong to others	C2_45	0.0	Hard	I1_24	17	There are 20 bones in the human skull	0.0555555555555556	Yes	RIGHT	152.1485999999186	RIGHT	307.25920000008955	RIGHT	1773.8544999999704	RIGHT	1920.090699999946	15.300000000000002	0.1	Probable_Truth	LEFT	LEFT	1	555.2918999999292	25	2021-01-27 14:50:10.472696
91	Self	S210127	0.8333333333333334	2	1	1	2	0.6	1283.3333359	1216.6666691	2350.0000047	2216.6666711000003	Minor	Good_deeds	40	You have bought cigarettes for a minor	C1_27	1.0	Easy	I1_45	44	Singapore is a poor country	0.944444444444444	Yes	RIGHT	183.8511999999355	RIGHT	403.3306999999695	LEFT	984.1259999998329	LEFT	1201.011200000039	15.900000000000002	0.6	Probable_Truth	LEFT	LEFT	1	676.823000000013	26	2021-01-27 14:50:33.561080
4	Self	S210127	0.5	1	2	2	1	0.5	1350.0000027	1500.000003	2500.000005	2500.000005	Minor	Wrong_doings	25	You have blackmailed others for money	C2_34	0.05	Hard	I1_25	2	Vegetarians can eat vegetable products	0.0555555555555556	No	RIGHT	276.06269999978394	RIGHT	472.0632000000933	LEFT	1024.9406999998882	RIGHT	1303.2736000000114	16.400000000000002	0.5	Probable_Lie	RIGHT	LEFT	6	874.984300000051	27	2021-01-27 14:50:57.938212
133	Computer	S210127	0.8333333333333334	1	2	2	1	0.3	1150.0000023	1433.3333362	2350.0000047	2216.6666711000003	Minor	Good_deeds	54	You have sold illegal drugs	C2_54	0.8	Hard	I1_32	32	Slavery was abolished in Cuba in 1886	0.888888888888889	No	LEFT	914.9141999998848	LEFT	223.9196999998967	LEFT	705.2899000000252	RIGHT	1454.4138999999632	16.400000000000002	0.3	Probable_Lie	RIGHT	LEFT	2	586.951509359051	28	2021-01-27 14:51:21.536570
63	Self	S210127	0.5	2	1	2	1	0.6	1500.000003	1150.0000023	2350.0000047	1933.3333372	Major	Good_deeds	15	You have drunk alcohol when you were underage	C2_6	0.0	Easy	I1_13	6	February has 30 days	0.666666666666667	Yes	LEFT	343.5151000001042	RIGHT	689.7317999998904	LEFT	1495.2762999998868	LEFT	1227.8235999999652	15.800000000000002	0.6	Probable_Lie	RIGHT	RIGHT	3	536.6652000000158	29	2021-01-27 14:51:45.337560
67	Self	S210127	0.6666666666666666	1	2	1	2	0.2	1433.3333362	1000.000002	1500.000003	1933.3333372	Major	Good_deeds	16	You have violated a traffic law	C1_38	0.0	Easy	I1_6	26	The sun rises at night	0.0	No	RIGHT	284.4188999999915	RIGHT	545.2301000000261	LEFT	956.0019999998984	LEFT	981.203399999913	16.000000000000004	0.2	Probable_Truth	RIGHT	RIGHT	5	371.7553999999837	30	2021-01-27 14:52:06.921631
81	Self	S210127	0.8333333333333334	1	2	1	2	0.3	1283.3333359	1150.0000023	2216.6666711000003	1500.000003	Major	Wrong_doings	57	You have let a homeless man into your house	C2_42	0.0	Easy	I2_4	19	Fibers in oranges can be used to make fabric	0.0555555555555556	Yes	RIGHT	287.1080999998412	RIGHT	120.81719999991948	LEFT	1068.537699999979	RIGHT	1903.7581000000048	16.300000000000004	0.3	Probable_Lie	LEFT	LEFT	2	655.226999999968	31	2021-01-27 14:52:29.681131
14	Self	S210127	0.5	2	1	2	1	0.1	1000.000002	1000.000002	1783.3333369	2350.0000047	Minor	Good_deeds	5	You have been sued	C2_11	1.0	Hard	I1_29	46	Christmas Day is in March	0.944444444444444	Yes	LEFT	593.4727000001203	RIGHT	354.447700000037	LEFT	1174.987099999953	LEFT	1395.4834999999548	16.200000000000003	0.1	Probable_Lie	RIGHT	RIGHT	1	558.1615000000966	32	2021-01-27 14:52:52.465042
121	Computer	S210127	0.6666666666666666	2	1	1	2	0.4	1066.6666688	1000.000002	1933.3333372	2350.0000047	Minor	Wrong_doings	46	You have done something against your values	C2_58	0.05	Easy	I1_3	50	Cleopatra was born in Greece	0.0	No	LEFT	240.8960999998726	LEFT	565.5503000000408	LEFT	2141.0991000000195	LEFT	1776.729500000101	16.200000000000003	0.4	Probable_Lie	RIGHT	RIGHT	2	788.9367819273152	33	2021-01-27 14:53:16.890513
54	Self	S210127	0.5	1	2	2	1	0.6	1216.6666691	1500.000003	2500.000005	2350.0000047	Major	Wrong_doings	27	You have risked your life to save another person's life	C2_26	0.05	Hard	I1_5	12	Septicemia is a lung infection condition	0.944444444444444	Yes	RIGHT	268.8892000001033	RIGHT	327.80509999997776	LEFT	1200.7452999998804	LEFT	1433.0062000001362	16.800000000000004	0.6	Probable_Lie	LEFT	RIGHT	2	1035.684799999899	34	2021-01-27 14:53:41.297319
46	Self	S210127	0.8333333333333334	2	1	2	1	0.6	1066.6666688	1000.000002	2066.6666708	2500.000005	Major	Good_deeds	53	You have helped a friend in need	C1_22	0.2	Easy	I1_33	60	Mozambique is the world's poorest country	0.0	No	RIGHT	273.46639999996114	RIGHT	278.59780000017054	RIGHT	743.52789999989	RIGHT	1003.3230999999888	17.400000000000006	0.6	Probable_Lie	LEFT	LEFT	3	475.4441999998562	35	2021-01-27 14:54:03.281745
132	Computer	S210127	0.8333333333333334	1	2	2	1	0.6	1350.0000027	1000.000002	1933.3333372	2350.0000047	Minor	Good_deeds	16	You have cursed at your loved ones	C2_29	0.7	Easy	I2_42	23	Kangaroos live in Africa	0.0	Yes	RIGHT	447.27110000008	LEFT	281.0064999998758	LEFT	1287.712400000146	LEFT	1090.3940000000605	17.400000000000006	0.6	Probable_Truth	LEFT	LEFT	1	798.4050870479327	36	2021-01-27 14:54:26.392588
10	Self	S210127	0.5	2	1	1	2	0.6	1150.0000023	1500.000003	2216.6666711000003	1650.0000033	Major	Wrong_doings	11	You have donated blood every 6 months for many years	C1_37	0.0	Easy	I2_41	51	Polish is 20th most spoken language in the World	0.0	No	LEFT	256.07739999986734	RIGHT	800.1917999999932	RIGHT	1761.0874999998032	LEFT	1159.4527999998263	16.800000000000004	0.6	Probable_Lie	RIGHT	RIGHT	2	1065.789999999879	37	2021-01-27 14:54:50.520785
26	Self	S210127	0.6666666666666666	2	1	1	2	0.1	1350.0000027	1283.3333359	2350.0000047	2500.000005	Major	Good_deeds	50	You have stopped using products tested on animals	C1_50	0.05	Easy	I2_24	3	South East Asia is currently free from polio	0.0	Yes	RIGHT	137.30579999992187	RIGHT	427.2277000000031	LEFT	2077.093399999967	RIGHT	1502.763400000049	16.900000000000006	0.1	Probable_Truth	LEFT	LEFT	2	566.9326000002002	38	2021-01-27 14:55:15.290343
11	Self	S210127	0.5	2	1	1	2	0.7	1433.3333362	1150.0000023	2066.6666708	1933.3333372	Minor	Good_deeds	39	You have been arrested	C2_59	1.0	Easy	I1_11	29	Arabi is the oldest surviving breed of horse	0.0	No	RIGHT	384.64239999984784	RIGHT	301.98909999990065	LEFT	923.5838000001876	LEFT	2104.3706999998903	17.600000000000005	0.7	Probable_Truth	LEFT	RIGHT	5	655.8334999999715	39	2021-01-27 14:55:38.818397
66	Self	S210127	0.6666666666666666	1	2	1	2	0.8	1500.000003	1500.000003	2350.0000047	2500.000005	Minor	Wrong_doings	56	You have faked an illness	C2_39	0.9	Easy	I2_52	9	Singapore has four seasons	0.0	No	RIGHT	289.6140000000287	RIGHT	16.732100000126593	LEFT	982.2229999999764	RIGHT	784.4872999999097	18.40000000000001	0.8	Probable_Truth	RIGHT	RIGHT	5	444.7671000000355	40	2021-01-27 14:56:01.760950
51	Self	S210127	0.5	1	2	1	2	0.5	1150.0000023	1066.6666688	2350.0000047	2216.6666711000003	Minor	Good_deeds	44	You have said sorry when you were rude	C1_28	0.95	Hard	I1_40	5	Animals are living things	0.0	Yes	RIGHT	1282.8852000000095	RIGHT	144.11199999995006	RIGHT	949.6398999999656	RIGHT	776.2333000000581	18.90000000000001	0.5	Probable_Lie	RIGHT	LEFT	6	734.0228000000479	41	2021-01-27 14:56:25.008551
108	Computer	S210127	0.5	2	1	2	1	0.6	1216.6666691	1433.3333362	1933.3333372	2500.000005	Major	Good_deeds	59	You have cheated on a test	C1_5	0.1	Easy	I2_28	28	The Earth turns the closest to the sun in May	0.888888888888889	Yes	LEFT	424.3527000000995	RIGHT	438.7911000001168	RIGHT	1263.7205000000904	RIGHT	3405.311299999994	18.300000000000004	0.6	Probable_Truth	LEFT	LEFT	2	970.9070881289276	42	2021-01-27 14:56:51.161026
7	Self	S210127	0.5	1	2	2	1	0.3	1066.6666688	1000.000002	1933.3333372	1500.000003	Minor	Wrong_doings	47	You have helped your parents when asked to	C1_30	0.85	Easy	I2_33	25	Singapore is in Africa	1.0	Yes	RIGHT	1289.415299999746	RIGHT	416.467499999726	RIGHT	1672.6263000000472	LEFT	1016.193899999962	18.600000000000005	0.3	Probable_Lie	LEFT	RIGHT	1	670.1554000001124	43	2021-01-27 14:57:14.298200
52	Self	S210127	0.5	1	2	2	1	0.1	1283.3333359	1000.000002	2066.6666708	2066.6666708	Major	Good_deeds	28	You have engaged in drink-driving	C1_34	0.95	Easy	I2_59	12	Nomophobia is the fear of being without a phone or computer	0.0555555555555556	No	RIGHT	301.5304999998989	RIGHT	88.74209999976301	LEFT	1572.4373000002745	LEFT	1527.5931999999557	18.700000000000006	0.1	Probable_Truth	RIGHT	LEFT	1	510.2951999997458	44	2021-01-27 14:57:37.289000
6	Self	S210127	0.5	1	2	2	1	0.4	1283.3333359	1066.6666688	1500.000003	1933.3333372	Minor	Wrong_doings	60	You have rescued others from a catastrophe	C2_60	1.0	Easy	I1_44	57	The Amazon forest covers an area of 1 billion acres	0.0	Yes	RIGHT	349.0563000000293	RIGHT	256.29909999997835	LEFT	1991.8198000000305	RIGHT	1156.2580999998318	19.100000000000005	0.4	Probable_Truth	RIGHT	RIGHT	6	651.3084999996863	45	2021-01-27 14:58:00.049826
72	Self	S210127	0.6666666666666666	2	1	1	2	0.4	1433.3333362	1216.6666691	1650.0000033	1783.3333369	Minor	Good_deeds	36	You have complimented others for good work	C2_28	0.05	Hard	I2_16	46	There are 10 continents in the World	0.833333333333333	Yes	RIGHT	248.4934999997677	RIGHT	319.2377999998825	RIGHT	1098.1791000003795	LEFT	1176.3128999996295	19.500000000000004	0.4	Probable_Truth	LEFT	LEFT	1	533.081200000197	46	2021-01-27 14:58:22.081477
95	Self	S210127	0.8333333333333334	2	1	2	1	0.5	1216.6666691	1350.0000027	1500.000003	1933.3333372	Major	Wrong_doings	27	You have confessed to your mistake	C1_24	0.7	Easy	I2_54	45	Summer is hotter than winter	0.0555555555555556	Yes	RIGHT	177.36520000016753	RIGHT	245.63889999990351	RIGHT	1064.203599999928	RIGHT	1244.787899999665	20.000000000000004	0.5	Probable_Truth	RIGHT	RIGHT	3	619.3417999998019	47	2021-01-27 14:58:44.000587
12	Self	S210127	0.5	2	1	2	1	0.2	1066.6666688	1216.6666691	2500.000005	2500.000005	Major	Good_deeds	59	You have cheated on a test	C1_5	0.1	Easy	I2_28	28	The Earth turns the closest to the sun in May	0.888888888888889	Yes	LEFT	120.85549999983414	RIGHT	484.632899999724	LEFT	993.2114999996884	RIGHT	1470.34530000019	19.800000000000004	0.2	Probable_Lie	RIGHT	RIGHT	3	713.4045000002516	48	2021-01-27 15:00:58.200787
120	Computer	S210127	0.6666666666666666	2	1	1	2	0.1	1216.6666691	1150.0000023	2350.0000047	2066.6666708	Minor	Wrong_doings	13	You have extorted money from anyone	C1_45	0.55	Easy	I1_50	58	The Seine river is 50 feet above sea level	0.944444444444444	Yes	RIGHT	240.3573999999935	LEFT	578.453300000092	LEFT	909.80669999999	RIGHT	1455.898800000341	19.800000000000004	0.1	Probable_Truth	RIGHT	RIGHT	5	859.4550226512133	49	2021-01-27 15:01:21.608134
68	Self	S210127	0.6666666666666666	1	2	2	1	0.7	1350.0000027	1216.6666691	1783.3333369	2066.6666708	Minor	Wrong_doings	60	You have sheltered others from disasters	C2_14	0.9	Hard	I2_30	60	The hyoid bone is the only jointless bone	0.0	No	RIGHT	530.843200000163	RIGHT	247.84219999992277	LEFT	1230.853500000194	LEFT	1637.695700000222	20.500000000000004	0.7	Probable_Lie	LEFT	LEFT	4	484.27730000003066	50	2021-01-27 15:01:44.728504
32	Self	S210127	0.8333333333333334	1	2	1	2	0.4	1500.000003	1350.0000027	1933.3333372	1933.3333372	Minor	Wrong_doings	42	You have bribed someone to improve a grade	C2_16	1.0	Easy	I2_27	38	It is night time now	0.833333333333333	No	RIGHT	243.400500000007	RIGHT	104.25499999973908	LEFT	999.1095000000314	LEFT	1208.6059999996903	20.9	0.4	Probable_Truth	LEFT	LEFT	1	593.3790999997655	51	2021-01-27 15:02:07.161168
25	Self	S210127	0.6666666666666666	2	1	1	2	0.6	1500.000003	1350.0000027	2066.6666708	2216.6666711000003	Minor	Wrong_doings	46	You have done something against your values	C2_58	0.05	Easy	I1_3	50	Cleopatra was born in Greece	0.0	No	RIGHT	239.0925999998217	RIGHT	358.519499999602	LEFT	1383.3302000002732	LEFT	1023.6946999998509	21.500000000000004	0.6	Probable_Truth	RIGHT	RIGHT	6	753.8064999998824	52	2021-01-27 15:02:30.632928
128	Computer	S210127	0.8333333333333334	1	2	1	2	0.2	1216.6666691	1066.6666688	1500.000003	1783.3333369	Minor	Wrong_doings	42	You have bribed someone to improve a grade	C2_16	1.0	Easy	I2_27	38	It is night time now	0.833333333333333	No	LEFT	741.8305999999575	LEFT	256.8308999998408	LEFT	724.5035000000826	LEFT	663.5467999999491	21.500000000000004	0.2	Probable_Lie	RIGHT	LEFT	3	577.1521817097082	53	2021-01-27 15:02:51.736962
113	Computer	S210127	0.6666666666666666	1	2	1	2	0.5	1283.3333359	1350.0000027	2066.6666708	1933.3333372	Minor	Good_deeds	10	You have helped with household chores	C2_23	0.95	Easy	I2_55	25	Obama is the USA president now	0.0	Yes	LEFT	339.444100000037	LEFT	103.69390000005296	RIGHT	934.8767000001316	LEFT	1328.0352000001585	21.500000000000004	0.5	Probable_Lie	LEFT	RIGHT	2	973.8991227646324	54	2021-01-27 15:03:14.609115
99	Computer	S210127	0.5	1	2	1	2	0.6	1150.0000023	1216.6666691	1650.0000033	1933.3333372	Major	Good_deeds	34	You have eaten something in the MRT train	C2_18	0.0	Easy	I1_4	33	It takes 112 years to build the Pisa Tower	1.0	No	LEFT	1227.8722999999443	LEFT	336.61679999977423	LEFT	1278.3204999996087	RIGHT	1409.0304999999717	21.500000000000004	0.6	Probable_Lie	RIGHT	LEFT	4	842.7470087253278	55	2021-01-27 15:03:38.225114
75	Self	S210127	0.6666666666666666	2	1	1	2	0.3	1283.3333359	1500.000003	2350.0000047	1650.0000033	Minor	Good_deeds	52	You have fabricated facts about yourself	C2_30	0.85	Hard	I1_21	48	It takes 500 days to travel from Earth to Mars	0.0	No	RIGHT	217.0256999997946	RIGHT	258.54049999998097	LEFT	1105.4994999999508	RIGHT	1710.955000000013	21.800000000000004	0.3	Probable_Truth	RIGHT	RIGHT	5	683.5371000001942	56	2021-01-27 15:04:01.560494
35	Self	S210127	0.8333333333333334	1	2	1	2	0.2	1216.6666691	1150.0000023	2216.6666711000003	2500.000005	Major	Wrong_doings	17	You have borrowed things and never returned	C1_53	0.0	Easy	I2_49	42	There is typically 0.6 grams of mercury in glass thermometer	1.0	Yes	LEFT	791.2760999997772	LEFT	408.2902000000104	LEFT	1782.3856999998495	RIGHT	1335.106900000028	21.800000000000004	0.2	Probable_Lie	RIGHT	RIGHT	1	398.5121999999137	57	2021-01-27 15:04:25.936595
129	Computer	S210127	0.8333333333333334	1	2	1	2	0.8	1000.000002	1283.3333359	1650.0000033	1933.3333372	Minor	Wrong_doings	53	You have intentionally let others cut in line	C1_17	0.0	Hard	I1_23	27	The Franco-Prussian War occurred in the 19th century	0.0	No	RIGHT	268.21849999987535	RIGHT	502.7381999998397	RIGHT	2277.253700000074	LEFT	2269.302599999719	22.600000000000005	0.8	Probable_Truth	RIGHT	RIGHT	2	816.4154502700733	58	2021-01-27 15:04:50.512415
84	Self	S210127	0.8333333333333334	1	2	2	1	0.5	1216.6666691	1066.6666688	2500.000005	1933.3333372	Minor	Wrong_doings	37	You have pretended to be busy to avoid a social situation	C1_12	0.25	Easy	I1_19	48	Teddy Roosevelt was the youngest US President	1.0	Yes	RIGHT	324.9177000002419	RIGHT	104.53939999979411	RIGHT	1703.790300000037	LEFT	1747.2763000000668	23.100000000000005	0.5	Probable_Truth	RIGHT	RIGHT	4	497.7690000000621	59	2021-01-27 15:05:14.184845
16	Self	S210127	0.6666666666666666	1	2	1	2	0.5	1000.000002	1500.000003	2216.6666711000003	1783.3333369	Minor	Wrong_doings	51	You have started a hotline for victims of bully	C1_58	0.05	Easy	I1_14	14	There are 6 million animal species on Earth	0.0	No	RIGHT	422.2156000000723	RIGHT	319.78289999960907	LEFT	1612.2308000003611	RIGHT	1336.6047999998043	23.600000000000005	0.5	Probable_Truth	RIGHT	RIGHT	5	586.529199999859	60	2021-01-27 15:05:37.536714
126	Computer	S210127	0.6666666666666666	2	1	2	1	0.7	1500.000003	1433.3333362	1783.3333369	1650.0000033	Major	Wrong_doings	8	You have gossiped about your best friend	C2_2	0.1	Hard	I1_37	18	It is snowing outside now	0.777777777777778	Yes	LEFT	791.626499999893	LEFT	1357.4917000000823	LEFT	904.6583999997893	LEFT	921.316299999944	23.600000000000005	0.7	Probable_Lie	LEFT	RIGHT	2	635.5819466410373	61	2021-01-27 15:06:01.080203
60	Self	S210127	0.5	2	1	2	1	0.3	1216.6666691	1283.3333359	1783.3333369	2066.6666708	Major	Good_deeds	14	You have stopped using plastics completely	C2_47	0.0	Hard	I1_58	13	Statute of Liberty is in New York	0.0	No	RIGHT	119.7864999999183	RIGHT	282.3653000000377	LEFT	1222.5486000002093	RIGHT	1001.1452999997346	23.90000000000001	0.3	Probable_Truth	RIGHT	LEFT	1	925.1157999997304	62	2021-01-27 15:06:23.552279
100	Computer	S210127	0.5	1	2	2	1	0.5	1216.6666691	1350.0000027	2350.0000047	2500.000005	Minor	Wrong_doings	25	You have blackmailed others for money	C2_34	0.05	Hard	I1_25	2	Vegetarians can eat vegetable products	0.0555555555555556	No	LEFT	534.863200000018	LEFT	232.0051999995485	LEFT	704.3241000001217	RIGHT	966.442200000074	23.90000000000001	0.5	Probable_Lie	LEFT	RIGHT	3	841.911274642604	63	2021-01-27 15:06:46.808791
101	Computer	S210127	0.5	1	2	2	1	0.1	1500.000003	1500.000003	2500.000005	1650.0000033	Major	Wrong_doings	30	You have downloaded pirated movies	C2_25	0.7	Easy	I2_35	23	Mexico's National Day is September 16	0.0	Yes	RIGHT	668.1968000002598	LEFT	487.5867999999173	LEFT	1264.582700000119	LEFT	1689.2425000000912	23.90000000000001	0.1	Probable_Truth	LEFT	LEFT	3	877.0559477238007	64	2021-01-27 15:07:11.520272
74	Self	S210127	0.6666666666666666	2	1	1	2	0.8	1000.000002	1433.3333362	1933.3333372	2216.6666711000003	Minor	Wrong_doings	28	You have sorted your trash into recycling bin	C2_38	0.0	Easy	I1_27	38	Chickens lay eggs	0.0555555555555556	No	RIGHT	224.7783000002528	RIGHT	365.4277999999067	RIGHT	1258.499000000029	RIGHT	752.6739999998426	24.700000000000006	0.8	Probable_Truth	LEFT	LEFT	1	455.336299999999	65	2021-01-27 15:07:33.728948
21	Self	S210127	0.6666666666666666	1	2	2	1	0.7	1283.3333359	1150.0000023	2066.6666708	2066.6666708	Minor	Good_deeds	43	You have given directions to a lost tourist	C1_29	0.65	Hard	I2_25	11	The human's inner ear is larger than a pencil eraser	0.888888888888889	Yes	RIGHT	323.13680000015665	RIGHT	279.8009000002821	RIGHT	726.8684000000576	LEFT	1207.1022000000085	25.40000000000001	0.7	Probable_Truth	RIGHT	RIGHT	4	463.357100000394	66	2021-01-27 15:07:55.872554
44	Self	S210127	0.8333333333333334	2	1	2	1	0.8	1216.6666691	1150.0000023	1783.3333369	2066.6666708	Minor	Wrong_doings	4	You have adopted a zero-waste lifestyle	C1_4	1.0	Hard	I2_3	1	"Statue of Liberty is 151 feet tall"	0.0	Yes	RIGHT	200.0606999999945	RIGHT	305.0109999999222	LEFT	1720.3090999996675	RIGHT	1231.086900000264	26.200000000000006	0.8	Probable_Truth	LEFT	LEFT	1	469.6782999999414	67	2021-01-27 15:08:18.592976
30	Self	S210127	0.6666666666666666	2	1	2	1	0.2	1283.3333359	1500.000003	1783.3333369	1500.000003	Major	Wrong_doings	8	You have gossiped about your best friend	C2_2	0.1	Hard	I1_37	18	It is snowing outside now	0.777777777777778	Yes	LEFT	337.2143999999935	RIGHT	408.84750000032	LEFT	663.3711999998013	LEFT	795.7827000000179	26.000000000000007	0.2	Probable_Lie	RIGHT	RIGHT	1	713.4178000001157	68	2021-01-27 15:08:40.152269
0	Self	S210127	0.5	1	2	1	2	0.1	1216.6666691	1150.0000023	2216.6666711000003	2350.0000047	Minor	Good_deeds	43	You have sign up to sponsor a needy child	C1_47	0.05	Hard	I1_57	44	A dog has four legs	0.0	Yes	LEFT	360.76039999989007	LEFT	151.35259999988193	LEFT	1348.6723999999413	RIGHT	680.257999999867	26.000000000000007	0.1	Probable_Lie	LEFT	LEFT	6	737.0521999996527	69	2021-01-27 15:09:02.937481
83	Self	S210127	0.8333333333333334	1	2	1	2	0.8	1433.3333362	1000.000002	2350.0000047	2216.6666711000003	Major	Good_deeds	17	You have claimed doing things that you never did	C2_24	0.0	Hard	I2_43	10	R. Amundsen discovered the South Pole	0.0	No	RIGHT	322.7399000002152	RIGHT	408.20979999989504	LEFT	2649.0168000000267	RIGHT	1759.6996000002036	26.800000000000008	0.8	Probable_Truth	LEFT	LEFT	1	455.5617999999413	70	2021-01-27 15:09:28.104281
140	Computer	S210127	0.8333333333333334	2	1	2	1	0.2	1350.0000027	1500.000003	1500.000003	1650.0000033	Minor	Wrong_doings	4	You have adopted a zero-waste lifestyle	C1_4	1.0	Hard	I2_3	1	"Statue of Liberty is 151 feet tall"	0.0	Yes	RIGHT	345.017199999802	LEFT	675.3631999999925	LEFT	1470.8058999999594	RIGHT	1370.0352000000748	26.800000000000008	0.2	Probable_Truth	LEFT	LEFT	1	861.0818278152046	71	2021-01-27 15:09:51.400046
111	Computer	S210127	0.5	2	1	2	1	0.8	1283.3333359	1150.0000023	2216.6666711000003	2216.6666711000003	Minor	Wrong_doings	31	You have returned your trays in food courts	C2_7	0.65	Hard	I2_13	13	A square has 3 corners	0.0555555555555556	Yes	LEFT	167.09260000016002	LEFT	382.1023000000423	RIGHT	974.6891999998296	LEFT	1000.9743999999046	26.800000000000008	0.8	Probable_Lie	RIGHT	RIGHT	1	703.2339626165896	72	2021-01-27 15:10:14.065424
45	Self	S210127	0.8333333333333334	2	1	2	1	0.4	1000.000002	1283.3333359	2350.0000047	1933.3333372	Minor	Good_deeds	3	You have been convicted in court	C1_40	0.05	Easy	I1_31	1	The Earth is round	0.0	No	RIGHT	247.2635999997692	RIGHT	259.9318000002313	LEFT	656.0537000000295	RIGHT	899.8345999998492	27.200000000000006	0.4	Probable_Truth	LEFT	LEFT	1	548.0693999998039	73	2021-01-27 15:10:35.815763
1	Self	S210127	0.5	1	2	1	2	0.7	1433.3333362	1216.6666691	1650.0000033	1650.0000033	Major	Good_deeds	7	You have cheated on a national exam	C1_43	1.0	Hard	I2_2	4	Lehman Brothers went bankrupt on 20th September	0.777777777777778	No	RIGHT	471.6412000002492	RIGHT	320.8329999997659	LEFT	711.2015999996402	LEFT	1847.3871999999571	27.90000000000001	0.7	Probable_Truth	RIGHT	RIGHT	5	798.5437000002094	74	2021-01-27 15:10:58.489130
137	Computer	S210127	0.8333333333333334	2	1	1	2	0.1	1216.6666691	1000.000002	1933.3333372	2500.000005	Major	Wrong_doings	40	You have donated a pay cheque to charity	C2_1	0.0	Hard	I1_28	31	The first Olympic Games was held in the 5th century B.C	0.888888888888889	Yes	RIGHT	433.0304000000069	LEFT	445.5971000002137	RIGHT	1942.38759999962	LEFT	1647.601599999689	27.90000000000001	0.1	Probable_Truth	LEFT	LEFT	1	858.8194772515747	75	2021-01-27 15:11:23.024407
82	Self	S210127	0.8333333333333334	1	2	1	2	0.4	1350.0000027	1433.3333362	1933.3333372	2350.0000047	Minor	Good_deeds	42	You have given way to the handicapped	C2_37	0.55	Easy	I2_48	31	French is Singapore's official language	0.888888888888889	No	RIGHT	340.45570000034786	RIGHT	248.60939999962284	RIGHT	978.8987000001724	LEFT	1005.9529999998632	28.300000000000004	0.4	Probable_Truth	LEFT	LEFT	1	576.081300000169	76	2021-01-27 15:11:45.816340
118	Computer	S210127	0.6666666666666666	1	2	2	1	0.2	1150.0000023	1216.6666691	1500.000003	2350.0000047	Minor	Good_deeds	57	You have made someone cry	C1_1	1.0	Hard	I1_42	8	Beef comes from cows	0.666666666666667	Yes	LEFT	297.52289999987624	LEFT	103.1863000002886	RIGHT	1552.162099999805	RIGHT	795.7308000000012	28.300000000000004	0.2	Probable_Lie	LEFT	LEFT	5	997.6779990049458	77	2021-01-27 15:12:08.353045
3	Self	S210127	0.5	1	2	1	2	0.8	1150.0000023	1433.3333362	2066.6666708	1783.3333369	Major	Good_deeds	34	You have eaten something in the MRT train	C2_18	0.0	Easy	I1_4	33	It takes 112 years to build the Pisa Tower	1.0	No	RIGHT	230.40489999993952	RIGHT	201.05969999985973	RIGHT	1610.6605999998465	RIGHT	1280.199299999822	29.100000000000005	0.8	Probable_Lie	RIGHT	LEFT	6	839.1975000004095	78	2021-01-27 15:12:31.519987
41	Self	S210127	0.8333333333333334	2	1	1	2	0.5	1150.0000023	1066.6666688	2500.000005	2216.6666711000003	Major	Wrong_doings	40	You have donated a pay cheque to charity	C2_1	0.0	Hard	I1_28	31	The first Olympic Games was held in the 5th century B.C	0.888888888888889	Yes	RIGHT	256.81399999984933	RIGHT	453.1031000001349	RIGHT	1343.0239000003894	LEFT	1142.482399999608	29.600000000000005	0.5	Probable_Truth	LEFT	LEFT	1	540.139199999885	79	2021-01-27 15:12:54.767852
27	Self	S210127	0.6666666666666666	2	1	1	2	0.8	1150.0000023	1066.6666688	1933.3333372	2066.6666708	Minor	Good_deeds	45	You have kept your promises	C1_8	0.85	Easy	I2_50	15	Hot chocolate was created by the Mayan culture	0.0	No	RIGHT	368.44420000034006	RIGHT	340.866399999868	RIGHT	808.1615999999485	RIGHT	1469.7432000002664	30.40000000000001	0.8	Probable_Truth	RIGHT	RIGHT	5	702.5273999997808	80	2021-01-27 15:13:17.248395
50	Self	S210127	0.5	1	2	1	2	0.7	1000.000002	1433.3333362	1933.3333372	1933.3333372	Minor	Good_deeds	48	You have taken part in burglary	C2_36	0.8	Easy	I1_53	8	Dutch is the 6th Europe's most widely spoken language	0.777777777777778	No	LEFT	668.2540000001609	RIGHT	272.03040000040346	LEFT	1634.7940000000565	RIGHT	1117.2970000002351	29.700000000000006	0.7	Probable_Lie	LEFT	LEFT	4	592.0006999999714	81	2021-01-27 15:13:40.408193
43	Self	S210127	0.8333333333333334	2	1	1	2	0.2	1433.3333362	1350.0000027	1500.000003	1783.3333369	Minor	Wrong_doings	22	You have made counterfeit money	C2_3	0.0	Hard	I2_53	28	North Korea is more developed than South Korea	0.833333333333333	Yes	RIGHT	192.8765000002386	RIGHT	118.02469999975074	LEFT	1243.934900000113	LEFT	1271.937699999853	29.90000000000001	0.2	Probable_Truth	LEFT	LEFT	1	528.8500999999997	82	2021-01-27 15:14:02.400225
96	Computer	S210127	0.5	1	2	1	2	0.4	1350.0000027	1150.0000023	2066.6666708	2066.6666708	Minor	Good_deeds	43	You have sign up to sponsor a needy child	C1_47	0.05	Hard	I1_57	44	A dog has four legs	0.0	Yes	RIGHT	494.6226000001843	LEFT	303.48989999993137	LEFT	1278.6835000001702	RIGHT	609.0330000001813	29.90000000000001	0.4	Probable_Truth	RIGHT	RIGHT	5	749.3282910730027	83	2021-01-27 15:14:25.040450
119	Computer	S210127	0.6666666666666666	1	2	2	1	0.7	1350.0000027	1283.3333359	1933.3333372	2216.6666711000003	Major	Good_deeds	1	You have volunteered for a disaster-related humanitarian mission	C1_51	0.0	Hard	I1_8	36	Africa is the continent with the least rainfall	0.0	No	LEFT	430.86730000004536	LEFT	168.4957000002214	LEFT	1527.7873	LEFT	1902.8614000003472	29.90000000000001	0.7	Probable_Lie	RIGHT	LEFT	5	613.986497757536	84	2021-01-27 15:14:49.040443
104	Computer	S210127	0.5	2	1	1	2	0.7	1350.0000027	1000.000002	2350.0000047	1783.3333369	Major	Good_deeds	6	You have volunteered every week for many years	C1_6	0.65	Easy	I2_51	35	Algeria is Africa's second largest country	0.888888888888889	No	LEFT	192.0833000003768	LEFT	382.34819999979663	LEFT	1405.2781999998842	LEFT	1544.2363000001933	29.90000000000001	0.7	Probable_Lie	LEFT	RIGHT	1	619.5832750586936	85	2021-01-27 15:15:12.232027
80	Self	S210127	0.8333333333333334	1	2	1	2	0.2	1066.6666688	1283.3333359	1650.0000033	2066.6666708	Minor	Wrong_doings	19	You have a non-judgmental attitude towards everyone	C1_19	1.0	Easy	I1_41	43	Cheese is an Asian staple	0.111111111111111	Yes	RIGHT	335.59729999979027	RIGHT	80.93929999995453	RIGHT	1032.1513999997478	LEFT	1575.5074999997305	30.100000000000005	0.2	Probable_Truth	RIGHT	RIGHT	2	456.0040999999728	86	2021-01-27 15:15:34.351692
93	Self	S210127	0.8333333333333334	2	1	2	1	0.2	1000.000002	1283.3333359	1933.3333372	2350.0000047	Major	Good_deeds	20	You have watched a pirated movie	C1_46	1.0	Easy	I2_21	45	The first Grammy awards was held in 1959	0.0	No	RIGHT	87.91120000023511	RIGHT	276.354099999935	LEFT	847.1074000003682	LEFT	1859.501200000068	30.300000000000004	0.2	Probable_Truth	RIGHT	RIGHT	6	373.9940999998908	87	2021-01-27 15:15:56.936172
97	Computer	S210127	0.5	1	2	1	2	0.2	1433.3333362	1066.6666688	1933.3333372	1500.000003	Major	Good_deeds	7	You have cheated on a national exam	C1_43	1.0	Hard	I2_2	4	Lehman Brothers went bankrupt on 20th September	0.777777777777778	No	RIGHT	468.3089000000109	LEFT	432.8494999999748	LEFT	964.8181000002296	LEFT	1183.6349999998674	30.300000000000004	0.2	Probable_Truth	RIGHT	LEFT	2	764.9802568536293	88	2021-01-27 15:16:19.256124
130	Computer	S210127	0.8333333333333334	1	2	1	2	0.1	1433.3333362	1216.6666691	2500.000005	1650.0000033	Major	Good_deeds	50	You have provided shelter for stray animals	C1_42	0.85	Hard	I2_38	49	Today is a weekday	0.166666666666667	Yes	RIGHT	551.264700000047	LEFT	144.03379999976096	RIGHT	1935.1352999997289	RIGHT	1248.104499999954	30.300000000000004	0.1	Probable_Truth	LEFT	LEFT	1	560.0405052172528	89	2021-01-27 15:16:43.071845
5	Self	S210127	0.5	1	2	2	1	0.2	1500.000003	1283.3333359	2350.0000047	2066.6666708	Major	Wrong_doings	30	You have downloaded pirated movies	C2_25	0.7	Easy	I2_35	23	Mexico's National Day is September 16	0.0	Yes	RIGHT	441.10060000002704	RIGHT	65.50340000012511	LEFT	728.0469000002086	LEFT	1758.9038000000985	30.500000000000004	0.2	Probable_Lie	RIGHT	LEFT	4	791.6688999998769	90	2021-01-27 15:17:06.632173
36	Self	S210127	0.8333333333333334	1	2	2	1	0.7	1283.3333359	1000.000002	2066.6666708	2066.6666708	Minor	Good_deeds	16	You have cursed at your loved ones	C2_29	0.7	Easy	I2_42	23	Kangaroos live in Africa	0.0	Yes	LEFT	623.6988000000565	RIGHT	376.51240000013786	LEFT	806.9919999998092	LEFT	1663.2539000001998	29.800000000000004	0.7	Probable_Lie	RIGHT	RIGHT	1	612.9219999997986	91	2021-01-27 15:17:29.702901
103	Computer	S210127	0.5	1	2	2	1	0.7	1000.000002	1000.000002	1500.000003	1783.3333369	Minor	Wrong_doings	47	You have helped your parents when asked to	C1_30	0.85	Easy	I2_33	25	Singapore is in Africa	1.0	Yes	LEFT	254.6156999997038	LEFT	152.12780000001658	RIGHT	823.1005000002369	LEFT	852.5872000000163	29.800000000000004	0.7	Probable_Lie	RIGHT	RIGHT	2	677.0634785423773	92	2021-01-27 15:17:50.320237
2	Self	S210127	0.5	1	2	1	2	0.6	1000.000002	1350.0000027	1783.3333369	2216.6666711000003	Major	Good_deeds	18	You have queued to enter the MRT train	C1_7	0.05	Hard	I2_23	35	It sometimes snows in Singapore	0.888888888888889	No	RIGHT	258.32230000014533	RIGHT	296.8793000000005	RIGHT	1048.9622000000054	LEFT	744.2611999999826	30.40000000000001	0.6	Probable_Lie	LEFT	RIGHT	3	648.9851000001181	93	2021-01-27 15:18:12.238511
20	Self	S210127	0.6666666666666666	1	2	2	1	0.2	1433.3333362	1066.6666688	1933.3333372	2350.0000047	Major	Wrong_doings	58	You have watched an M18 movie when you were underage	C2_43	1.0	Easy	I2_11	52	There are 30 hours in a day	1.0	No	LEFT	613.8639000000694	RIGHT	408.2570999999007	LEFT	1486.828999999943	LEFT	1157.8139999996893	30.200000000000006	0.2	Probable_Lie	RIGHT	RIGHT	2	522.3992999999609	94	2021-01-27 15:18:35.783424
116	Computer	S210127	0.6666666666666666	1	2	2	1	0.4	1000.000002	1433.3333362	1783.3333369	2500.000005	Major	Wrong_doings	58	You have watched an M18 movie when you were underage	C2_43	1.0	Easy	I2_11	52	There are 30 hours in a day	1.0	No	LEFT	369.4111999998313	LEFT	311.82669999998325	LEFT	503.6864999997306	LEFT	779.5905000002676	30.200000000000006	0.4	Probable_Lie	LEFT	LEFT	5	835.9182181765822	95	2021-01-27 15:18:57.871020
114	Computer	S210127	0.6666666666666666	1	2	1	2	0.1	1066.6666688	1500.000003	2216.6666711000003	1650.0000033	Major	Wrong_doings	23	You have used heroin	C2_10	0.0	Easy	I1_52	55	December is the last month of the year	0.0	No	RIGHT	864.6868999999242	LEFT	824.3846999998823	LEFT	968.7707999996746	RIGHT	959.758999999849	30.200000000000006	0.1	Probable_Truth	LEFT	LEFT	2	530.0708353532318	96	2021-01-27 15:21:34.686797
55	Self	S210127	0.5	1	2	2	1	0.3	1066.6666688	1350.0000027	1783.3333369	1500.000003	Major	Wrong_doings	36	You have used a fake name online	C1_44	0.0	Easy	I2_17	59	Beer is an alcoholic drink	0.0	No	LEFT	642.9122999998071	RIGHT	103.68990000006306	LEFT	1071.5503000001263	RIGHT	775.120600000264	29.90000000000001	0.3	Probable_Lie	RIGHT	RIGHT	2	714.3522999999732	97	2021-01-27 15:21:56.270704
28	Self	S210127	0.6666666666666666	2	1	2	1	0.5	1066.6666688	1433.3333362	1500.000003	1650.0000033	Major	Good_deeds	2	You have taken responsibility for your actions	C2_46	0.95	Hard	I1_15	50	Fishes can swim in water	0.722222222222222	No	RIGHT	217.32010000005172	RIGHT	675.8085000001302	RIGHT	824.3812000000617	RIGHT	976.4669000001048	30.40000000000001	0.5	Probable_Lie	LEFT	LEFT	6	617.1758000000409	98	2021-01-27 15:22:17.808471
122	Computer	S210127	0.6666666666666666	2	1	1	2	0.6	1433.3333362	1350.0000027	1650.0000033	1783.3333369	Major	Good_deeds	50	You have stopped using products tested on animals	C1_50	0.05	Easy	I2_24	3	South East Asia is currently free from polio	0.0	Yes	RIGHT	272.1372999999403	LEFT	802.3284000000785	LEFT	2162.733499999831	RIGHT	846.5876999998727	30.40000000000001	0.6	Probable_Truth	RIGHT	LEFT	1	782.1494104197387	99	2021-01-27 15:22:41.462848
18	Self	S210127	0.6666666666666666	1	2	1	2	0.6	1066.6666688	1283.3333359	2350.0000047	2216.6666711000003	Major	Wrong_doings	23	You have used heroin	C2_10	0.0	Easy	I1_52	55	December is the last month of the year	0.0	No	RIGHT	690.8680999999888	RIGHT	671.0183999998662	LEFT	992.901399999937	RIGHT	878.3490000000711	31.000000000000007	0.6	Probable_Lie	LEFT	LEFT	6	442.4199000000044	100	2021-01-27 15:23:04.631668
69	Self	S210127	0.6666666666666666	1	2	2	1	0.6	1000.000002	1066.6666688	1933.3333372	1650.0000033	Major	Wrong_doings	39	You have switched off appliances when not in use	C2_13	0.45	Easy	I2_26	5	Airbags in cars are filled with sodium azide	0.944444444444444	Yes	RIGHT	300.3773000000365	RIGHT	80.37549999971816	RIGHT	1135.3282000000036	LEFT	1736.8130999998357	31.60000000000001	0.6	Probable_Truth	RIGHT	RIGHT	3	482.796999999664	101	2021-01-27 15:23:26.592072
112	Computer	S210127	0.6666666666666666	1	2	1	2	0.6	1500.000003	1000.000002	2500.000005	2066.6666708	Minor	Wrong_doings	51	You have started a hotline for victims of bully	C1_58	0.05	Easy	I1_14	14	There are 6 million animal species on Earth	0.0	No	RIGHT	537.6667000000452	LEFT	456.543000000238	LEFT	1436.9018000002145	RIGHT	903.0336999999236	31.60000000000001	0.6	Probable_Truth	RIGHT	RIGHT	3	614.3714693186697	102	2021-01-27 15:23:50.184188
123	Computer	S210127	0.6666666666666666	2	1	1	2	0.2	1350.0000027	1283.3333359	2216.6666711000003	1933.3333372	Minor	Good_deeds	45	You have kept your promises	C1_8	0.85	Easy	I2_50	15	Hot chocolate was created by the Mayan culture	0.0	No	LEFT	295.92100000036226	LEFT	610.5204000000413	RIGHT	724.9855000000025	RIGHT	742.084099999829	31.60000000000001	0.2	Probable_Lie	LEFT	LEFT	5	692.2780202259937	103	2021-01-27 15:24:12.615658
17	Self	S210127	0.6666666666666666	1	2	1	2	0.3	1350.0000027	1000.000002	2500.000005	1500.000003	Minor	Good_deeds	10	You have helped with household chores	C2_23	0.95	Easy	I2_55	25	Obama is the USA president now	0.0	Yes	RIGHT	243.6708000000181	RIGHT	208.36000000008423	RIGHT	743.8432999997531	LEFT	1032.7715999997054	31.90000000000001	0.3	Probable_Truth	LEFT	LEFT	1	637.4520999997912	104	2021-01-27 15:24:34.407839
19	Self	S210127	0.6666666666666666	1	2	1	2	0.1	1500.000003	1350.0000027	1500.000003	1933.3333372	Major	Wrong_doings	29	You have organized a violent protest	C2_57	0.0	Hard	I2_36	42	Cernan was the second last man to walk on the Moon	0.611111111111111	Yes	LEFT	550.3000999997312	RIGHT	584.4780000002174	LEFT	1123.4690999999657	LEFT	1111.9579000001067	31.800000000000008	0.1	Probable_Lie	RIGHT	RIGHT	2	832.0340000000215	105	2021-01-27 15:24:57.463439
8	Self	S210127	0.5	2	1	1	2	0.5	1350.0000027	1066.6666688	1933.3333372	2066.6666708	Major	Good_deeds	6	You have volunteered every week for many years	C1_6	0.65	Easy	I2_51	35	Algeria is Africa's second largest country	0.888888888888889	No	LEFT	193.3908999999403	RIGHT	587.8441999998358	LEFT	1272.348299999976	RIGHT	1256.7011999999522	31.300000000000008	0.5	Probable_Lie	LEFT	LEFT	6	738.5475000000952	106	2021-01-27 15:25:20.502553
139	Computer	S210127	0.8333333333333334	2	1	1	2	0.8	1000.000002	1216.6666691	1650.0000033	2066.6666708	Minor	Wrong_doings	22	You have made counterfeit money	C2_3	0.0	Hard	I2_53	28	North Korea is more developed than South Korea	0.833333333333333	Yes	RIGHT	120.56779999966238	RIGHT	330.6752999997116	LEFT	885.7672999997703	LEFT	862.6103000001422	32.10000000000001	0.8	Probable_Truth	RIGHT	RIGHT	4	800.6779974946692	107	2021-01-27 15:25:42.008402
105	Computer	S210127	0.5	2	1	1	2	0.2	1500.000003	1216.6666691	1500.000003	2350.0000047	Major	Wrong_doings	7	You have stolen something	C1_39	0.15	Hard	I1_46	11	Singapore is a country	0.0	No	RIGHT	417.3234999998385	LEFT	591.9269999999415	LEFT	965.084499999648	RIGHT	640.6661999999415	32.10000000000001	0.2	Probable_Truth	LEFT	RIGHT	6	945.7137368533294	108	2021-01-27 15:26:04.711970
102	Computer	S210127	0.5	1	2	2	1	0.3	1066.6666688	1283.3333359	1783.3333369	2350.0000047	Minor	Wrong_doings	60	You have rescued others from a catastrophe	C2_60	1.0	Easy	I1_44	57	The Amazon forest covers an area of 1 billion acres	0.0	Yes	LEFT	290.9927000000607	LEFT	56.09150000009322	LEFT	862.2347000000445	RIGHT	755.584799999724	32.10000000000001	0.3	Probable_Lie	LEFT	LEFT	5	733.69239729814	109	2021-01-27 15:26:26.463812
9	Self	S210127	0.5	2	1	1	2	0.4	1500.000003	1283.3333359	1500.000003	2216.6666711000003	Major	Wrong_doings	7	You have stolen something	C1_39	0.15	Hard	I1_46	11	Singapore is a country	0.0	No	LEFT	40.65249999985099	RIGHT	1076.767000000018	LEFT	922.7323999998588	RIGHT	568.7040000002526	31.70000000000001	0.4	Probable_Lie	LEFT	RIGHT	3	544.3242000001192	110	2021-01-27 15:26:48.687478
38	Self	S210127	0.8333333333333334	1	2	2	1	0.1	1150.0000023	1283.3333359	1783.3333369	2350.0000047	Major	Wrong_doings	29	You have been donating all your excess food to a food bank	C2_50	0.2	Hard	I1_2	2	A caterpillar has more muscle than a human	0.0	No	RIGHT	296.63399999981266	RIGHT	56.21620000010808	RIGHT	935.6009000002814	LEFT	1196.1121000003914	31.80000000000001	0.1	Probable_Truth	LEFT	LEFT	1	407.1795999998358	111	2021-01-27 15:27:10.720397
78	Self	S210127	0.6666666666666666	2	1	2	1	0.2	1350.0000027	1350.0000027	1500.000003	2350.0000047	Major	Wrong_doings	38	You have failed to keep promises	C1_36	0.85	Hard	I2_40	39	Earth's atmosphere extends up to 10,000km into space	0.666666666666667	No	LEFT	136.08789999989312	RIGHT	502.0815999996557	LEFT	1031.6729999999552	RIGHT	1169.9985999998717	31.60000000000001	0.2	Probable_Lie	LEFT	LEFT	5	556.0257000001911	112	2021-01-27 15:27:33.239107
47	Self	S210127	0.8333333333333334	2	1	2	1	0.7	1283.3333359	1433.3333362	1933.3333372	1500.000003	Major	Good_deeds	1	You have deceived a loved one	C2_33	1.0	Easy	I1_1	53	There are 7 days in a week	0.0555555555555556	Yes	RIGHT	216.75550000009025	RIGHT	268.9435000002049	LEFT	960.3315999997905	RIGHT	806.4706999998634	32.30000000000001	0.7	Probable_Truth	RIGHT	RIGHT	3	505.59900000007474	113	2021-01-27 15:27:54.718662
33	Self	S210127	0.8333333333333334	1	2	1	2	0.5	1350.0000027	1066.6666688	1500.000003	1500.000003	Minor	Wrong_doings	53	You have intentionally let others cut in line	C1_17	0.0	Hard	I1_23	27	The Franco-Prussian War occurred in the 19th century	0.0	No	LEFT	1037.2167000000445	RIGHT	184.5973999998023	RIGHT	1277.371299999686	LEFT	735.8687000000828	31.80000000000001	0.5	Probable_Lie	RIGHT	RIGHT	1	443.47579999976006	114	2021-01-27 15:28:16.390555
79	Self	S210127	0.6666666666666666	2	1	2	1	0.7	1216.6666691	1283.3333359	2500.000005	2066.6666708	Major	Wrong_doings	20	You have lost everything just to help others	C2_52	0.95	Easy	I1_48	27	Last day of the year is 30th December	0.111111111111111	Yes	RIGHT	86.84559999983321	RIGHT	284.75509999998394	LEFT	1575.4362000002402	LEFT	1918.8320999996904	32.500000000000014	0.7	Probable_Truth	LEFT	LEFT	1	602.3113000001104	115	2021-01-27 15:28:40.502619
39	Self	S210127	0.8333333333333334	1	2	2	1	0.8	1066.6666688	1433.3333362	2350.0000047	1783.3333369	Major	Good_deeds	11	You have helped others to pick up their belongings	C1_11	0.0	Easy	I1_36	36	China is a part of Asia	0.722222222222222	Yes	RIGHT	451.83679999991	RIGHT	160.32499999982974	RIGHT	1039.5824999995966	RIGHT	1140.248000000156	33.30000000000001	0.8	Probable_Truth	RIGHT	RIGHT	2	529.88490000007	116	2021-01-27 15:29:03.031784
135	Computer	S210127	0.8333333333333334	1	2	2	1	0.5	1283.3333359	1150.0000023	2216.6666711000003	2066.6666708	Major	Good_deeds	11	You have helped others to pick up their belongings	C1_11	0.0	Easy	I1_36	36	China is a part of Asia	0.722222222222222	Yes	RIGHT	250.78130000019885	RIGHT	33.14060000002428	RIGHT	568.0133000000751	RIGHT	637.9837999998017	33.80000000000001	0.5	Probable_Truth	LEFT	LEFT	1	866.3392888247629	117	2021-01-27 15:29:24.678828
70	Self	S210127	0.6666666666666666	1	2	2	1	0.5	1066.6666688	1283.3333359	2066.6666708	2216.6666711000003	Major	Good_deeds	13	You have engaged in money laundering	C1_60	0.75	Easy	I1_43	6	The Eiffel Tower is in Paris	0.0	Yes	RIGHT	334.1073999999935	RIGHT	648.6041000002842	LEFT	920.2318999996352	RIGHT	802.1867000002203	34.30000000000001	0.5	Probable_Truth	RIGHT	RIGHT	6	448.1981999997515	118	2021-01-27 15:29:47.039049
77	Self	S210127	0.6666666666666666	2	1	2	1	0.5	1500.000003	1150.0000023	1783.3333369	1500.000003	Major	Good_deeds	9	You have started a movement to support a cause	C1_20	0.0	Hard	I2_46	21	Carnivore refers to meat-eater	0.666666666666667	Yes	LEFT	104.68600000012884	RIGHT	274.2381999996724	LEFT	887.9292000001442	RIGHT	1398.5241999998834	33.80000000000001	0.5	Probable_Lie	LEFT	LEFT	5	508.0187000003207	119	2021-01-27 15:30:08.719470
90	Self	S210127	0.8333333333333334	2	1	1	2	0.7	1500.000003	1500.000003	2216.6666711000003	1783.3333369	Minor	Good_deeds	45	You have participated in a scamming business	C2_8	1.0	Hard	I1_39	21	Penguin can fly with their wings	0.0555555555555556	Yes	RIGHT	39.40620000003037	RIGHT	280.7400000001508	LEFT	883.4443000000647	LEFT	1039.6184000001083	34.500000000000014	0.7	Probable_Truth	LEFT	LEFT	1	435.24399999978414	120	2021-01-27 15:30:30.975694
49	Self	S210127	0.5	1	2	1	2	0.8	1500.000003	1216.6666691	1650.0000033	1650.0000033	Major	Good_deeds	26	You have signed up as a bone marrow donor	C1_23	0.1	Easy	I2_12	53	Saturn's rings are between 30 and 300 feet thick	0.0	Yes	RIGHT	343.20590000015727	RIGHT	175.83820000027117	LEFT	1280.6907999997748	RIGHT	1607.2355999999672	35.30000000000001	0.8	Probable_Lie	RIGHT	RIGHT	3	798.7100000000282	121	2021-01-27 15:30:53.775418
56	Self	S210127	0.5	2	1	1	2	0.2	1000.000002	1433.3333362	2066.6666708	2500.000005	Minor	Wrong_doings	35	You have assisted in a crime	C1_15	0.85	Hard	I2_56	26	Milwaukee Art Museum is located in California	0.0	No	LEFT	273.2576000003064	RIGHT	726.3757000000624	LEFT	1095.3008000005866	LEFT	1639.8673999992752	35.10000000000001	0.2	Probable_Lie	LEFT	RIGHT	2	986.5991000001486	122	2021-01-27 15:31:18.071168
13	Self	S210127	0.5	2	1	2	1	0.3	1283.3333359	1350.0000027	1650.0000033	1500.000003	Minor	Wrong_doings	37	You have thrown your trash into the bin	C2_31	0.0	Hard	I1_35	41	The Moon orbits around the Earth	0.777777777777778	Yes	RIGHT	24.304900000061025	RIGHT	277.52910000072006	RIGHT	735.1801000004343	RIGHT	1085.7120000000575	35.400000000000006	0.3	Probable_Truth	LEFT	RIGHT	5	598.5514000003604	123	2021-01-27 15:31:39.150942
73	Self	S210127	0.6666666666666666	2	1	1	2	0.6	1066.6666688	1066.6666688	2066.6666708	1933.3333372	Major	Good_deeds	30	You have engaged in underage smoking	C1_48	0.0	Easy	I1_38	16	Singapore ranked 8th in World's smallest countries	0.722222222222222	Yes	RIGHT	552.4850000001607	RIGHT	334.1807000006156	LEFT	1060.1774000006117	LEFT	2311.8964999994205	36.00000000000001	0.6	Probable_Truth	LEFT	LEFT	2	471.7489999993632	124	2021-01-27 15:32:02.590964
110	Computer	S210127	0.5	2	1	2	1	0.1	1066.6666688	1350.0000027	1650.0000033	2066.6666708	Minor	Good_deeds	5	You have been sued	C2_11	1.0	Hard	I1_29	46	Christmas Day is in March	0.944444444444444	Yes	LEFT	264.6310000000085	LEFT	455.3770999991684	LEFT	975.7237000003444	LEFT	1486.5519000004497	36.00000000000001	0.1	Probable_Lie	RIGHT	LEFT	5	994.4168646491768	125	2021-01-27 15:32:25.478512
124	Computer	S210127	0.6666666666666666	2	1	2	1	0.3	1000.000002	1066.6666688	1500.000003	2500.000005	Major	Good_deeds	2	You have taken responsibility for your actions	C2_46	0.95	Hard	I1_15	50	Fishes can swim in water	0.722222222222222	No	LEFT	439.9326000002475	LEFT	702.0744999999806	RIGHT	719.4484000001466	RIGHT	942.5921000001836	36.00000000000001	0.3	Probable_Lie	RIGHT	RIGHT	1	817.382978260822	126	2021-01-27 15:32:47.735204
143	Computer	S210127	0.8333333333333334	2	1	2	1	0.6	1500.000003	1433.3333362	2066.6666708	1500.000003	Major	Good_deeds	1	You have deceived a loved one	C2_33	1.0	Easy	I1_1	53	There are 7 days in a week	0.0555555555555556	Yes	RIGHT	199.81960000041	LEFT	1347.4768000005497	LEFT	959.9695999995674	RIGHT	935.1135999995676	36.00000000000001	0.6	Probable_Truth	RIGHT	LEFT	1	799.7997121931505	127	2021-01-27 15:33:11.046602
58	Self	S210127	0.5	2	1	1	2	0.8	1283.3333359	1350.0000027	1650.0000033	2350.0000047	Major	Wrong_doings	49	You have followed instructions	C1_59	0.95	Hard	I1_54	22	Pyramid of Giza is 468 feet tall	0.944444444444444	No	LEFT	1847.7894000006927	LEFT	1031.1080000001311	RIGHT	981.237500000134	RIGHT	1392.930900000465	36.00000000000001	0.8	Probable_Lie	RIGHT	RIGHT	1	1143.9228999997797	128	2021-01-27 15:33:36.646254
125	Computer	S210127	0.6666666666666666	2	1	2	1	0.5	1283.3333359	1216.6666691	2066.6666708	1500.000003	Major	Wrong_doings	9	You have taken months off to volunteer	C1_13	0.0	Hard	I2_58	37	Nanyang Technological University is in Australia	0.0	Yes	RIGHT	1593.5536999995747	LEFT	805.2495000001727	LEFT	1511.3715999996202	LEFT	2958.3481999998185	36.00000000000001	0.5	Probable_Lie	RIGHT	LEFT	6	603.3927428484153	129	2021-01-27 15:34:02.750809
34	Self	S210127	0.8333333333333334	1	2	1	2	0.6	1000.000002	1500.000003	1650.0000033	1650.0000033	Major	Good_deeds	50	You have provided shelter for stray animals	C1_42	0.85	Hard	I2_38	49	Today is a weekday	0.166666666666667	Yes	RIGHT	219.55909999996948	RIGHT	64.49630000042816	RIGHT	1073.1809999997497	RIGHT	719.2299999996976	36.60000000000001	0.6	Probable_Truth	LEFT	LEFT	1	831.7721000003075	130	2021-01-27 15:34:24.037834
131	Computer	S210127	0.8333333333333334	1	2	1	2	0.4	1500.000003	1500.000003	2066.6666708	2500.000005	Major	Wrong_doings	17	You have borrowed things and never returned	C1_53	0.0	Easy	I2_49	42	There is typically 0.6 grams of mercury in glass thermometer	1.0	Yes	LEFT	355.9826000000612	LEFT	24.78060000066762	LEFT	1544.6022999994966	RIGHT	1200.5395999995017	36.60000000000001	0.4	Probable_Lie	RIGHT	LEFT	2	526.8511416940554	131	2021-01-27 15:34:47.830798
42	Self	S210127	0.8333333333333334	2	1	1	2	0.3	1350.0000027	1500.000003	1650.0000033	2350.0000047	Major	Wrong_doings	33	You have lied to your parents	C2_53	0.65	Hard	I2_60	3	Astatine is the rarest element in the Earth's crust	0.888888888888889	No	RIGHT	264.1937999997026	RIGHT	261.5216000003784	LEFT	901.5333999996074	RIGHT	1792.2184999997626	36.900000000000006	0.3	Probable_Truth	RIGHT	RIGHT	4	428.1517999997959	132	2021-01-27 15:35:10.902998
23	Self	S210127	0.6666666666666666	1	2	2	1	0.4	1150.0000023	1433.3333362	1783.3333369	2500.000005	Major	Good_deeds	1	You have volunteered for a disaster-related humanitarian mission	C1_51	0.0	Hard	I1_8	36	Africa is the continent with the least rainfall	0.0	No	RIGHT	249.65249999968364	RIGHT	313.13959999988583	LEFT	1143.8983999996708	RIGHT	1413.3420999996815	37.3	0.4	Probable_Lie	RIGHT	RIGHT	2	990.3635999999096	133	2021-01-27 15:35:34.454727
98	Computer	S210127	0.5	1	2	1	2	0.8	1283.3333359	1433.3333362	2216.6666711000003	2216.6666711000003	Major	Good_deeds	18	You have queued to enter the MRT train	C1_7	0.05	Hard	I2_23	35	It sometimes snows in Singapore	0.888888888888889	No	LEFT	341.4206999996168	LEFT	456.13239999966027	RIGHT	759.861099999398	LEFT	959.1938000003212	37.3	0.8	Probable_Lie	LEFT	RIGHT	2	987.2998050804212	134	2021-01-27 15:35:57.678761
107	Computer	S210127	0.5	2	1	1	2	0.4	1150.0000023	1500.000003	2066.6666708	1500.000003	Minor	Good_deeds	39	You have been arrested	C2_59	1.0	Easy	I1_11	29	Arabi is the oldest surviving breed of horse	0.0	No	LEFT	232.39179999927728	LEFT	282.07650000058493	LEFT	795.533699999396	LEFT	1951.315700000123	37.3	0.4	Probable_Lie	LEFT	RIGHT	2	667.5849832372692	135	2021-01-27 15:36:20.397783
65	Self	S210127	0.6666666666666666	1	2	1	2	0.4	1216.6666691	1433.3333362	1650.0000033	1783.3333369	Minor	Wrong_doings	14	You have been restricting your electricity consumption	C2_56	0.0	Hard	I1_9	52	The hardest bone in human body is the jawbone	0.833333333333333	Yes	RIGHT	295.08050000004005	RIGHT	114.3659999997908	RIGHT	1049.597599999288	LEFT	2304.164399999536	37.7	0.4	Probable_Truth	RIGHT	RIGHT	4	413.05300000021816	136	2021-01-27 15:36:43.231787
71	Self	S210127	0.6666666666666666	1	2	2	1	0.3	1150.0000023	1150.0000023	2216.6666711000003	1500.000003	Major	Good_deeds	3	You have shown your appreciation to your teachers	C1_16	1.0	Hard	I1_60	30	Afghan Hound is the first cloned cat	0.833333333333333	Yes	RIGHT	383.3322999998927	RIGHT	537.2879999995348	RIGHT	1000.807899999927	LEFT	1669.4225000001095	38.0	0.3	Probable_Truth	RIGHT	RIGHT	5	573.989999999867	137	2021-01-27 15:37:05.990667
40	Self	S210127	0.8333333333333334	2	1	1	2	0.1	1500.000003	1216.6666691	2216.6666711000003	1650.0000033	Minor	Good_deeds	31	You have said thank you when you have received help	C1_31	1.0	Easy	I2_1	33	Today is Sunday	0.888888888888889	No	RIGHT	488.1494000001112	RIGHT	287.9394000001412	RIGHT	721.3842000001023	LEFT	905.3323000007368	38.1	0.1	Probable_Truth	LEFT	LEFT	1	536.3694999996369	138	2021-01-27 15:37:28.087213
37	Self	S210127	0.8333333333333334	1	2	2	1	0.3	1433.3333362	1216.6666691	2500.000005	2216.6666711000003	Minor	Good_deeds	54	You have sold illegal drugs	C2_54	0.8	Hard	I1_32	32	Slavery was abolished in Cuba in 1886	0.888888888888889	No	RIGHT	187.7993999996761	RIGHT	305.02419999993435	LEFT	1152.8998999992837	LEFT	1464.9321999995664	38.4	0.3	Probable_Truth	RIGHT	RIGHT	4	637.9114999999729	139	2021-01-27 15:37:51.773651
142	Computer	S210127	0.8333333333333334	2	1	2	1	0.7	1433.3333362	1350.0000027	1783.3333369	2216.6666711000003	Major	Good_deeds	53	You have helped a friend in need	C1_22	0.2	Easy	I1_33	60	Mozambique is the world's poorest country	0.0	No	LEFT	96.68220000003204	LEFT	556.3396000006833	RIGHT	711.094299999786	LEFT	1104.7539000001052	38.4	0.7	Probable_Lie	LEFT	RIGHT	1	521.4898920775789	140	2021-01-27 15:38:14.118009
29	Self	S210127	0.6666666666666666	2	1	2	1	0.4	1000.000002	1000.000002	2500.000005	2350.0000047	Major	Wrong_doings	9	You have taken months off to volunteer	C1_13	0.0	Hard	I2_58	37	Nanyang Technological University is in Australia	0.0	Yes	RIGHT	367.8479999998672	RIGHT	333.4805000004053	LEFT	934.8010000003342	LEFT	923.7466999993558	38.8	0.4	Probable_Truth	RIGHT	RIGHT	5	512.6296000007642	141	2021-01-27 15:38:36.613858
31	Self	S210127	0.6666666666666666	2	1	2	1	0.3	1433.3333362	1150.0000023	2216.6666711000003	1933.3333372	Minor	Good_deeds	58	You have bought cocaine	C2_9	0.9	Hard	I2_18	24	Malay is one of the races in Singapore	0.666666666666667	No	RIGHT	201.1815999994724	RIGHT	304.0320000000065	LEFT	815.6032999995659	RIGHT	859.3440000004193	39.1	0.3	Probable_Truth	LEFT	LEFT	2	681.1907000001156	142	2021-01-27 15:38:58.782676
53	Self	S210127	0.5	1	2	2	1	0.2	1433.3333362	1150.0000023	2216.6666711000003	1783.3333369	Minor	Wrong_doings	23	You have told someone's secret to others	C2_48	0.7	Hard	I2_8	17	It is 20th Century now	0.888888888888889	Yes	RIGHT	319.8026000000027	RIGHT	264.3502999999328	LEFT	1169.8111000005156	LEFT	1626.5539999994871	39.3	0.2	Probable_Truth	RIGHT	RIGHT	6	780.6127000003471	143	2021-01-27 15:39:22.103107
