"Participant"	"Task"	"Stimulus_Side"	"Response"	"RT"	"ITI"	"Previous_Response"	"Previous_RT"	"Stop_Signal"	"Stop_Signal_RT"	"Conflict"	"Cue_Response"	"Cue_Response_RT"	"Trial_Onset"	"Trial_End"	"Trial_Order"	"Duration"
"S200225"	"Conflict_Resolution"	"LEFT"	"LEFT"	711.513200000013	716.6666681	""	n/a	n/a	n/a	"False"	n/a	n/a	"2020-02-25 11:18:56.356880"	"2020-02-25 11:18:57.276034"	1	6.58221395
"S200225"	"Conflict_Resolution"	"LEFT"	"LEFT"	407.321199999956	733.3333348	""	n/a	n/a	n/a	"False"	n/a	n/a	"2020-02-25 11:18:58.028517"	"2020-02-25 11:18:58.643583"	2	6.58221395
"S200225"	"Conflict_Resolution"	"LEFT"	"LEFT"	422.722799999974	1200.0000024	""	n/a	n/a	n/a	"False"	n/a	n/a	"2020-02-25 11:18:59.861322"	"2020-02-25 11:19:00.493211"	3	6.58221395
"S200225"	"Conflict_Resolution"	"LEFT"	"RIGHT"	1397.36930000004	783.3333349	""	n/a	n/a	n/a	"True"	n/a	n/a	"2020-02-25 11:19:01.294638"	"2020-02-25 11:19:02.899676"	4	6.58221395
"S200225"	"Conflict_Resolution"	"LEFT"	"LEFT"	603.229199999987	1466.6666696	""	n/a	n/a	n/a	"False"	n/a	n/a	"2020-02-25 11:19:04.384775"	"2020-02-25 11:19:05.197087"	5	6.58221395
"S200225"	"Conflict_Resolution"	"RIGHT"	"RIGHT"	494.401999999923	950.0000019	""	n/a	n/a	n/a	"False"	n/a	n/a	"2020-02-25 11:19:06.166097"	"2020-02-25 11:19:06.869511"	6	6.58221395
"S200225"	"Conflict_Resolution"	"LEFT"	"LEFT"	848.149599999942	516.6666677	""	n/a	n/a	n/a	"True"	n/a	n/a	"2020-02-25 11:19:07.403704"	"2020-02-25 11:19:08.460120"	7	6.58221395
"S200225"	"Conflict_Resolution"	"LEFT"	"LEFT"	450.954600000046	1066.6666688	""	n/a	n/a	n/a	"False"	n/a	n/a	"2020-02-25 11:19:09.547207"	"2020-02-25 11:19:10.205175"	8	6.58221395
"S200225"	"Conflict_Resolution"	"LEFT"	"LEFT"	509.973500000001	1150.0000023	""	n/a	n/a	n/a	"False"	n/a	n/a	"2020-02-25 11:19:11.373952"	"2020-02-25 11:19:12.092843"	9	6.58221395
"S200225"	"Conflict_Resolution"	"RIGHT"	"RIGHT"	630.74180000001	1333.333336	""	n/a	n/a	n/a	"False"	n/a	n/a	"2020-02-25 11:19:13.445422"	"2020-02-25 11:19:14.284653"	10	6.58221395
"S200225"	"Conflict_Resolution"	"RIGHT"	"RIGHT"	422.14510000008	750.0000015	""	n/a	n/a	n/a	"False"	n/a	n/a	"2020-02-25 11:19:15.054570"	"2020-02-25 11:19:15.684460"	11	6.58221395
"S200225"	"Conflict_Resolution"	"RIGHT"	"RIGHT"	832.718800000066	500.000001	""	n/a	n/a	n/a	"True"	n/a	n/a	"2020-02-25 11:19:16.204040"	"2020-02-25 11:19:17.245277"	12	6.58221395
"S200225"	"Conflict_Resolution"	"RIGHT"	"RIGHT"	723.244700000009	1216.6666691	""	n/a	n/a	n/a	"True"	n/a	n/a	"2020-02-25 11:19:18.481510"	"2020-02-25 11:19:19.411558"	13	6.58221395
"S200225"	"Conflict_Resolution"	"RIGHT"	"RIGHT"	509.191299999998	800.0000016	""	n/a	n/a	n/a	"False"	n/a	n/a	"2020-02-25 11:19:20.231451"	"2020-02-25 11:19:20.947748"	14	6.58221395
"S200225"	"Conflict_Resolution"	"RIGHT"	"RIGHT"	336.327500000039	1316.6666693	""	n/a	n/a	n/a	"False"	n/a	n/a	"2020-02-25 11:19:22.284239"	"2020-02-25 11:19:22.828031"	15	6.58221395
"S200225"	"Conflict_Resolution"	"LEFT"	"LEFT"	394.841699999915	1050.0000021	""	n/a	n/a	n/a	"False"	n/a	n/a	"2020-02-25 11:19:23.897172"	"2020-02-25 11:19:24.500155"	16	6.58221395
"S200225"	"Conflict_Resolution"	"RIGHT"	"RIGHT"	447.067400000037	550.0000011	""	n/a	n/a	n/a	"False"	n/a	n/a	"2020-02-25 11:19:25.069096"	"2020-02-25 11:19:25.725481"	17	6.58221395
"S200225"	"Conflict_Resolution"	"RIGHT"	"RIGHT"	676.293999999984	983.3333353	""	n/a	n/a	n/a	"True"	n/a	n/a	"2020-02-25 11:19:26.728343"	"2020-02-25 11:19:27.612475"	18	6.58221395
"S200225"	"Conflict_Resolution"	"RIGHT"	"RIGHT"	454.94819999999	1333.333336	""	n/a	n/a	n/a	"True"	n/a	n/a	"2020-02-25 11:19:28.965339"	"2020-02-25 11:19:29.627821"	19	6.58221395
"S200225"	"Conflict_Resolution"	"RIGHT"	"RIGHT"	580.422300000009	1416.6666695	""	n/a	n/a	n/a	"True"	n/a	n/a	"2020-02-25 11:19:31.063705"	"2020-02-25 11:19:31.853159"	20	6.58221395
"S200225"	"Conflict_Resolution"	"LEFT"	"LEFT"	583.056800000008	1316.6666693	""	n/a	n/a	n/a	"False"	n/a	n/a	"2020-02-25 11:19:33.189166"	"2020-02-25 11:19:33.980408"	21	6.58221395
"S200225"	"Conflict_Resolution"	"LEFT"	"LEFT"	636.842000000001	1400.0000028	""	n/a	n/a	n/a	"False"	n/a	n/a	"2020-02-25 11:19:35.400009"	"2020-02-25 11:19:36.243875"	22	6.58221395
"S200225"	"Conflict_Resolution"	"RIGHT"	"RIGHT"	422.222599999941	583.3333345	""	n/a	n/a	n/a	"False"	n/a	n/a	"2020-02-25 11:19:36.846474"	"2020-02-25 11:19:37.476289"	23	6.58221395
"S200225"	"Conflict_Resolution"	"LEFT"	"LEFT"	309.680599999979	566.6666678	""	n/a	n/a	n/a	"False"	n/a	n/a	"2020-02-25 11:19:38.062690"	"2020-02-25 11:19:38.580353"	24	6.58221395
"S200225"	"Conflict_Resolution"	"LEFT"	"LEFT"	406.133399999931	1366.6666694	""	n/a	n/a	n/a	"False"	n/a	n/a	"2020-02-25 11:19:39.966162"	"2020-02-25 11:19:40.580428"	25	6.58221395
"S200225"	"Conflict_Resolution"	"RIGHT"	"RIGHT"	584.773000000041	883.3333351	""	n/a	n/a	n/a	"True"	n/a	n/a	"2020-02-25 11:19:41.483996"	"2020-02-25 11:19:42.276665"	26	6.58221395
"S200225"	"Conflict_Resolution"	"LEFT"	"LEFT"	357.853400000067	766.6666682	""	n/a	n/a	n/a	"False"	n/a	n/a	"2020-02-25 11:19:43.062730"	"2020-02-25 11:19:43.628775"	27	6.58221395
"S200225"	"Conflict_Resolution"	"RIGHT"	"RIGHT"	633.782399999973	650.0000013	""	n/a	n/a	n/a	"True"	n/a	n/a	"2020-02-25 11:19:44.298036"	"2020-02-25 11:19:45.140204"	28	6.58221395
"S200225"	"Conflict_Resolution"	"RIGHT"	"RIGHT"	377.844400000072	883.3333351	""	n/a	n/a	n/a	"False"	n/a	n/a	"2020-02-25 11:19:46.042057"	"2020-02-25 11:19:46.628197"	29	6.58221395
"S200225"	"Conflict_Resolution"	"LEFT"	"LEFT"	588.408200000003	816.6666683	""	n/a	n/a	n/a	"True"	n/a	n/a	"2020-02-25 11:19:47.463938"	"2020-02-25 11:19:48.260345"	30	6.58221395
"S200225"	"Conflict_Resolution"	"LEFT"	"LEFT"	402.138300000047	1266.6666692	""	n/a	n/a	n/a	"False"	n/a	n/a	"2020-02-25 11:19:49.546406"	"2020-02-25 11:19:50.156364"	31	6.58221395
"S200225"	"Conflict_Resolution"	"LEFT"	"LEFT"	602.686800000015	633.3333346	""	n/a	n/a	n/a	"True"	n/a	n/a	"2020-02-25 11:19:50.809588"	"2020-02-25 11:19:51.619939"	32	6.58221395
"S200225"	"Conflict_Resolution"	"RIGHT"	"RIGHT"	386.651099999995	833.333335	""	n/a	n/a	n/a	"False"	n/a	n/a	"2020-02-25 11:19:52.473752"	"2020-02-25 11:19:53.068278"	33	6.58221395
"S200225"	"Conflict_Resolution"	"LEFT"	"LEFT"	533.426399999939	950.0000019	""	n/a	n/a	n/a	"True"	n/a	n/a	"2020-02-25 11:19:54.039191"	"2020-02-25 11:19:54.779794"	34	6.58221395
"S200225"	"Conflict_Resolution"	"RIGHT"	"RIGHT"	411.494000000062	1433.3333362	""	n/a	n/a	n/a	"False"	n/a	n/a	"2020-02-25 11:19:56.232364"	"2020-02-25 11:19:56.852301"	35	6.58221395
"S200225"	"Conflict_Resolution"	"RIGHT"	"RIGHT"	649.367600000005	683.3333347	""	n/a	n/a	n/a	"True"	n/a	n/a	"2020-02-25 11:19:57.555427"	"2020-02-25 11:19:58.412486"	36	6.58221395
"S200225"	"Conflict_Resolution"	"RIGHT"	"RIGHT"	451.288100000056	633.3333346	""	n/a	n/a	n/a	"True"	n/a	n/a	"2020-02-25 11:19:59.064724"	"2020-02-25 11:19:59.723578"	37	6.58221395
"S200225"	"Conflict_Resolution"	"RIGHT"	"RIGHT"	445.907700000021	600.0000012	""	n/a	n/a	n/a	"False"	n/a	n/a	"2020-02-25 11:20:00.341944"	"2020-02-25 11:20:00.996599"	38	6.58221395
"S200225"	"Conflict_Resolution"	"LEFT"	"LEFT"	477.42750000009	766.6666682	""	n/a	n/a	n/a	"True"	n/a	n/a	"2020-02-25 11:20:01.783010"	"2020-02-25 11:20:02.468796"	39	6.58221395
"S200225"	"Conflict_Resolution"	"LEFT"	"LEFT"	559.921499999973	1316.6666693	""	n/a	n/a	n/a	"True"	n/a	n/a	"2020-02-25 11:20:03.804763"	"2020-02-25 11:20:04.573273"	40	6.58221395
"S200225"	"Conflict_Resolution"	"LEFT"	"LEFT"	464.152799999965	1300.0000026	""	n/a	n/a	n/a	"True"	n/a	n/a	"2020-02-25 11:20:05.892357"	"2020-02-25 11:20:06.565512"	41	6.58221395
"S200225"	"Conflict_Resolution"	"LEFT"	"LEFT"	409.658100000001	1050.0000021	""	n/a	n/a	n/a	"True"	n/a	n/a	"2020-02-25 11:20:07.634655"	"2020-02-25 11:20:08.252987"	42	6.58221395
"S200225"	"Conflict_Resolution"	"RIGHT"	"RIGHT"	506.794900000045	1433.3333362	""	n/a	n/a	n/a	"True"	n/a	n/a	"2020-02-25 11:20:09.705773"	"2020-02-25 11:20:10.420475"	43	6.58221395
"S200225"	"Conflict_Resolution"	"RIGHT"	"RIGHT"	544.58790000001	900.0000018	""	n/a	n/a	n/a	"True"	n/a	n/a	"2020-02-25 11:20:11.339538"	"2020-02-25 11:20:12.091592"	44	6.58221395
"S200225"	"Conflict_Resolution"	"RIGHT"	"RIGHT"	487.619900000027	933.3333352	""	n/a	n/a	n/a	"True"	n/a	n/a	"2020-02-25 11:20:13.045202"	"2020-02-25 11:20:13.740149"	45	6.58221395
"S200225"	"Conflict_Resolution"	"RIGHT"	"RIGHT"	499.371600000018	633.3333346	""	n/a	n/a	n/a	"False"	n/a	n/a	"2020-02-25 11:20:14.392813"	"2020-02-25 11:20:15.099568"	46	6.58221395
"S200225"	"Conflict_Resolution"	"RIGHT"	"RIGHT"	556.69869999997	1000.000002	""	n/a	n/a	n/a	"True"	n/a	n/a	"2020-02-25 11:20:16.119863"	"2020-02-25 11:20:16.885018"	47	6.58221395
"S200225"	"Conflict_Resolution"	"LEFT"	"RIGHT"	410.617500000058	1066.6666688	""	n/a	n/a	n/a	"True"	n/a	n/a	"2020-02-25 11:20:17.969661"	"2020-02-25 11:20:18.589312"	48	6.58221395
"S200225"	"Conflict_Resolution"	"LEFT"	"LEFT"	403.696100000047	1000.000002	""	n/a	n/a	n/a	"False"	n/a	n/a	"2020-02-25 11:20:19.608256"	"2020-02-25 11:20:20.220539"	49	6.58221395
"S200225"	"Conflict_Resolution"	"RIGHT"	"RIGHT"	411.794399999962	1216.6666691	""	n/a	n/a	n/a	"False"	n/a	n/a	"2020-02-25 11:20:21.457266"	"2020-02-25 11:20:22.076194"	50	6.58221395
"S200225"	"Conflict_Resolution"	"LEFT"	"LEFT"	428.439099999991	816.6666683	""	n/a	n/a	n/a	"False"	n/a	n/a	"2020-02-25 11:20:22.911999"	"2020-02-25 11:20:23.548067"	51	6.58221395
"S200225"	"Conflict_Resolution"	"LEFT"	"RIGHT"	489.461500000061	683.3333347	""	n/a	n/a	n/a	"True"	n/a	n/a	"2020-02-25 11:20:24.251232"	"2020-02-25 11:20:24.948411"	52	6.58221395
"S200225"	"Conflict_Resolution"	"LEFT"	"LEFT"	575.22629999994	533.3333344	""	n/a	n/a	n/a	"False"	n/a	n/a	"2020-02-25 11:20:25.500573"	"2020-02-25 11:20:26.284198"	53	6.58221395
"S200225"	"Conflict_Resolution"	"RIGHT"	"RIGHT"	631.621999999993	733.3333348	""	n/a	n/a	n/a	"False"	n/a	n/a	"2020-02-25 11:20:27.036691"	"2020-02-25 11:20:27.875763"	54	6.58221395
"S200225"	"Conflict_Resolution"	"LEFT"	"LEFT"	427.255899999977	1250.0000025	""	n/a	n/a	n/a	"False"	n/a	n/a	"2020-02-25 11:20:29.145371"	"2020-02-25 11:20:29.780257"	55	6.58221395
"S200225"	"Conflict_Resolution"	"RIGHT"	"RIGHT"	615.20059999998	1133.3333356	""	n/a	n/a	n/a	"True"	n/a	n/a	"2020-02-25 11:20:30.933502"	"2020-02-25 11:20:31.756676"	56	6.58221395
"S200225"	"Conflict_Resolution"	"LEFT"	"LEFT"	428.450799999951	583.3333345	""	n/a	n/a	n/a	"False"	n/a	n/a	"2020-02-25 11:20:32.360038"	"2020-02-25 11:20:32.995590"	57	6.58221395
"S200225"	"Conflict_Resolution"	"LEFT"	"LEFT"	510.677400000077	966.6666686	""	n/a	n/a	n/a	"True"	n/a	n/a	"2020-02-25 11:20:33.982003"	"2020-02-25 11:20:34.700459"	58	6.58221395
"S200225"	"Conflict_Resolution"	"RIGHT"	"RIGHT"	441.807600000061	1100.0000022	""	n/a	n/a	n/a	"False"	n/a	n/a	"2020-02-25 11:20:35.818165"	"2020-02-25 11:20:36.467682"	59	6.58221395
"S200225"	"Conflict_Resolution"	"RIGHT"	"RIGHT"	357.831999999917	783.3333349	""	n/a	n/a	n/a	"False"	n/a	n/a	"2020-02-25 11:20:37.270132"	"2020-02-25 11:20:37.837458"	60	6.58221395
"S200225"	"Conflict_Resolution"	"LEFT"	"LEFT"	595.125499999995	1216.6666691	""	n/a	n/a	n/a	"True"	n/a	n/a	"2020-02-25 11:20:39.072762"	"2020-02-25 11:20:39.876532"	61	6.58221395
"S200225"	"Conflict_Resolution"	"LEFT"	"LEFT"	571.668599999953	1016.6666687	""	n/a	n/a	n/a	"True"	n/a	n/a	"2020-02-25 11:20:40.912355"	"2020-02-25 11:20:41.691594"	62	6.58221395
"S200225"	"Conflict_Resolution"	"LEFT"	"LEFT"	488.674699999933	916.6666685	""	n/a	n/a	n/a	"True"	n/a	n/a	"2020-02-25 11:20:42.627560"	"2020-02-25 11:20:43.324230"	63	6.58221395
"S200225"	"Conflict_Resolution"	"RIGHT"	"RIGHT"	673.986899999932	1083.3333355	""	n/a	n/a	n/a	"True"	n/a	n/a	"2020-02-25 11:20:44.426570"	"2020-02-25 11:20:45.307769"	64	6.58221395
"S200225"	"Conflict_Resolution"	"LEFT"	"LEFT"	506.794500000069	900.0000018	""	n/a	n/a	n/a	"True"	n/a	n/a	"2020-02-25 11:20:46.225943"	"2020-02-25 11:20:46.939744"	65	6.58221395
"S200225"	"Conflict_Resolution"	"LEFT"	"LEFT"	502.31180000003	616.6666679	""	n/a	n/a	n/a	"False"	n/a	n/a	"2020-02-25 11:20:47.574053"	"2020-02-25 11:20:48.283721"	66	6.58221395
"S200225"	"Conflict_Resolution"	"LEFT"	"LEFT"	639.035400000012	1150.0000023	""	n/a	n/a	n/a	"True"	n/a	n/a	"2020-02-25 11:20:49.453533"	"2020-02-25 11:20:50.299817"	67	6.58221395
"S200225"	"Conflict_Resolution"	"RIGHT"	"RIGHT"	356.851000000006	1416.6666695	""	n/a	n/a	n/a	"False"	n/a	n/a	"2020-02-25 11:20:51.735268"	"2020-02-25 11:20:52.300250"	68	6.58221395
"S200225"	"Conflict_Resolution"	"LEFT"	"LEFT"	523.56229999998	666.666668	""	n/a	n/a	n/a	"True"	n/a	n/a	"2020-02-25 11:20:52.984508"	"2020-02-25 11:20:53.717108"	69	6.58221395
"S200225"	"Conflict_Resolution"	"LEFT"	"LEFT"	418.493699999999	666.666668	""	n/a	n/a	n/a	"False"	n/a	n/a	"2020-02-25 11:20:54.401554"	"2020-02-25 11:20:55.028537"	70	6.58221395
"S200225"	"Conflict_Resolution"	"RIGHT"	"RIGHT"	409.118900000067	683.3333347	""	n/a	n/a	n/a	"False"	n/a	n/a	"2020-02-25 11:20:55.731011"	"2020-02-25 11:20:56.347627"	71	6.58221395
"S200225"	"Conflict_Resolution"	"RIGHT"	"RIGHT"	444.256200000041	1233.3333358	""	n/a	n/a	n/a	"False"	n/a	n/a	"2020-02-25 11:20:57.599778"	"2020-02-25 11:20:58.252210"	72	6.58221395
"S200225"	"Conflict_Resolution"	"LEFT"	"LEFT"	438.545100000056	1350.0000027	""	n/a	n/a	n/a	"False"	n/a	n/a	"2020-02-25 11:20:59.622106"	"2020-02-25 11:21:00.267773"	73	6.58221395
"S200225"	"Conflict_Resolution"	"RIGHT"	"RIGHT"	591.753100000005	700.0000014	""	n/a	n/a	n/a	"True"	n/a	n/a	"2020-02-25 11:21:00.988929"	"2020-02-25 11:21:01.788735"	74	6.58221395
"S200225"	"Conflict_Resolution"	"RIGHT"	"RIGHT"	443.257999999901	1033.3333354	""	n/a	n/a	n/a	"False"	n/a	n/a	"2020-02-25 11:21:02.840579"	"2020-02-25 11:21:03.492258"	75	6.58221395
"S200225"	"Conflict_Resolution"	"RIGHT"	"RIGHT"	496.419400000036	1483.3333363	""	n/a	n/a	n/a	"True"	n/a	n/a	"2020-02-25 11:21:04.995805"	"2020-02-25 11:21:05.700550"	76	6.58221395
"S200225"	"Conflict_Resolution"	"RIGHT"	"RIGHT"	506.273899999997	850.0000017	""	n/a	n/a	n/a	"True"	n/a	n/a	"2020-02-25 11:21:06.569990"	"2020-02-25 11:21:07.285396"	77	6.58221395
"S200225"	"Conflict_Resolution"	"LEFT"	"LEFT"	658.250500000008	1466.6666696	""	n/a	n/a	n/a	"True"	n/a	n/a	"2020-02-25 11:21:08.770277"	"2020-02-25 11:21:09.637230"	78	6.58221395
"S200225"	"Conflict_Resolution"	"LEFT"	"LEFT"	507.885299999998	1200.0000024	""	n/a	n/a	n/a	"True"	n/a	n/a	"2020-02-25 11:21:10.856082"	"2020-02-25 11:21:11.573204"	79	6.58221395
"S200225"	"Conflict_Resolution"	"LEFT"	"LEFT"	547.145199999932	616.6666679	""	n/a	n/a	n/a	"True"	n/a	n/a	"2020-02-25 11:21:12.209490"	"2020-02-25 11:21:12.963683"	80	6.58221395
"S200225"	"Conflict_Resolution"	"LEFT"	"LEFT"	339.922200000046	866.6666684	""	n/a	n/a	n/a	"False"	n/a	n/a	"2020-02-25 11:21:13.848348"	"2020-02-25 11:21:14.395591"	81	6.58221395
"S200225"	"Conflict_Resolution"	"LEFT"	"LEFT"	440.116399999852	1166.666669	""	n/a	n/a	n/a	"False"	n/a	n/a	"2020-02-25 11:21:15.580455"	"2020-02-25 11:21:16.229499"	82	6.58221395
"S200225"	"Conflict_Resolution"	"RIGHT"	"RIGHT"	401.370900000074	850.0000017	""	n/a	n/a	n/a	"False"	n/a	n/a	"2020-02-25 11:21:17.098730"	"2020-02-25 11:21:17.709235"	83	6.58221395
"S200225"	"Conflict_Resolution"	"LEFT"	"LEFT"	475.160599999981	850.0000017	""	n/a	n/a	n/a	"False"	n/a	n/a	"2020-02-25 11:21:18.577214"	"2020-02-25 11:21:19.260197"	84	6.58221395
"S200225"	"Conflict_Resolution"	"RIGHT"	"RIGHT"	325.310200000104	1000.000002	""	n/a	n/a	n/a	"False"	n/a	n/a	"2020-02-25 11:21:20.278546"	"2020-02-25 11:21:20.812004"	85	6.58221395
"S200225"	"Conflict_Resolution"	"RIGHT"	"RIGHT"	411.397999999963	650.0000013	""	n/a	n/a	n/a	"False"	n/a	n/a	"2020-02-25 11:21:21.480656"	"2020-02-25 11:21:22.100390"	86	6.58221395
"S200225"	"Conflict_Resolution"	"LEFT"	"LEFT"	336.372499999925	900.0000018	""	n/a	n/a	n/a	"False"	n/a	n/a	"2020-02-25 11:21:23.020402"	"2020-02-25 11:21:23.565410"	87	6.58221395
"S200225"	"Conflict_Resolution"	"RIGHT"	"RIGHT"	613.499300000058	950.0000019	""	n/a	n/a	n/a	"True"	n/a	n/a	"2020-02-25 11:21:24.534794"	"2020-02-25 11:21:25.356690"	88	6.58221395
"S200225"	"Conflict_Resolution"	"LEFT"	"LEFT"	331.469100000049	633.3333346	""	n/a	n/a	n/a	"False"	n/a	n/a	"2020-02-25 11:21:26.009114"	"2020-02-25 11:21:26.547872"	89	6.58221395
"S200225"	"Conflict_Resolution"	"LEFT"	"LEFT"	370.014000000083	1500.000003	""	n/a	n/a	n/a	"False"	n/a	n/a	"2020-02-25 11:21:28.065813"	"2020-02-25 11:21:28.644355"	90	6.58221395
"S200225"	"Conflict_Resolution"	"RIGHT"	"RIGHT"	526.479299999892	750.0000015	""	n/a	n/a	n/a	"True"	n/a	n/a	"2020-02-25 11:21:29.413353"	"2020-02-25 11:21:30.148426"	91	6.58221395
"S200225"	"Conflict_Resolution"	"RIGHT"	"RIGHT"	555.347900000015	1233.3333358	""	n/a	n/a	n/a	"True"	n/a	n/a	"2020-02-25 11:21:31.401126"	"2020-02-25 11:21:32.164712"	92	6.58221395
"S200225"	"Conflict_Resolution"	"RIGHT"	"RIGHT"	445.218400000158	533.3333344	""	n/a	n/a	n/a	"True"	n/a	n/a	"2020-02-25 11:21:32.719292"	"2020-02-25 11:21:33.373549"	93	6.58221395
"S200225"	"Conflict_Resolution"	"LEFT"	"RIGHT"	466.634900000145	1416.6666695	""	n/a	n/a	n/a	"True"	n/a	n/a	"2020-02-25 11:21:34.809862"	"2020-02-25 11:21:35.484698"	94	6.58221395
"S200225"	"Conflict_Resolution"	"RIGHT"	"RIGHT"	427.776900000026	1183.3333357	""	n/a	n/a	n/a	"False"	n/a	n/a	"2020-02-25 11:21:36.688559"	"2020-02-25 11:21:37.323630"	95	6.58221395
"S200225"	"Conflict_Resolution"	"RIGHT"	"RIGHT"	593.445499999916	733.3333348	""	n/a	n/a	n/a	"True"	n/a	n/a	"2020-02-25 11:21:38.075142"	"2020-02-25 11:21:38.876477"	96	6.58221395
"S200225"	"Conflict_Resolution"	"LEFT"	"LEFT"	570.289300000013	850.0000017	""	n/a	n/a	n/a	"True"	n/a	n/a	"2020-02-25 11:21:39.746199"	"2020-02-25 11:21:40.523806"	97	6.58221395
"S200225"	"Conflict_Resolution"	"RIGHT"	"RIGHT"	810.828700000002	1466.6666696	""	n/a	n/a	n/a	"True"	n/a	n/a	"2020-02-25 11:21:42.008984"	"2020-02-25 11:21:43.027740"	98	6.58221395
"S200225"	"Conflict_Resolution"	"LEFT"	"LEFT"	424.181100000169	1016.6666687	""	n/a	n/a	n/a	"False"	n/a	n/a	"2020-02-25 11:21:44.068323"	"2020-02-25 11:21:44.701189"	99	6.58221395
"S200225"	"Conflict_Resolution"	"LEFT"	"LEFT"	489.029399999936	866.6666684	""	n/a	n/a	n/a	"True"	n/a	n/a	"2020-02-25 11:21:45.587839"	"2020-02-25 11:21:46.283815"	100	6.58221395
"S200225"	"Conflict_Resolution"	"RIGHT"	"RIGHT"	556.491300000062	1316.6666693	""	n/a	n/a	n/a	"True"	n/a	n/a	"2020-02-25 11:21:47.624010"	"2020-02-25 11:21:48.388330"	101	6.58221395
"S200225"	"Conflict_Resolution"	"RIGHT"	"RIGHT"	465.161800000033	500.000001	""	n/a	n/a	n/a	"False"	n/a	n/a	"2020-02-25 11:21:48.907725"	"2020-02-25 11:21:49.581479"	102	6.58221395
"S200225"	"Conflict_Resolution"	"RIGHT"	"RIGHT"	667.729100000088	800.0000016	""	n/a	n/a	n/a	"True"	n/a	n/a	"2020-02-25 11:21:50.400934"	"2020-02-25 11:21:51.275633"	103	6.58221395
"S200225"	"Conflict_Resolution"	"LEFT"	"LEFT"	576.839999999947	1116.6666689	""	n/a	n/a	n/a	"True"	n/a	n/a	"2020-02-25 11:21:52.411600"	"2020-02-25 11:21:53.196285"	104	6.58221395
"S200225"	"Conflict_Resolution"	"LEFT"	"LEFT"	558.796399999892	1350.0000027	""	n/a	n/a	n/a	"True"	n/a	n/a	"2020-02-25 11:21:54.565590"	"2020-02-25 11:21:55.331597"	105	6.58221395
"S200225"	"Conflict_Resolution"	"LEFT"	"LEFT"	561.375300000009	1100.0000022	""	n/a	n/a	n/a	"True"	n/a	n/a	"2020-02-25 11:21:56.450632"	"2020-02-25 11:21:57.219915"	106	6.58221395
"S200225"	"Conflict_Resolution"	"RIGHT"	"RIGHT"	654.048800000055	600.0000012	""	n/a	n/a	n/a	"True"	n/a	n/a	"2020-02-25 11:21:57.838270"	"2020-02-25 11:21:58.699860"	107	6.58221395
"S200225"	"Conflict_Resolution"	"LEFT"	"LEFT"	369.983499999989	683.3333347	""	n/a	n/a	n/a	"False"	n/a	n/a	"2020-02-25 11:21:59.402497"	"2020-02-25 11:21:59.979641"	108	6.58221395
"S200225"	"Conflict_Resolution"	"RIGHT"	"RIGHT"	496.912900000098	1283.3333359	""	n/a	n/a	n/a	"True"	n/a	n/a	"2020-02-25 11:22:01.283034"	"2020-02-25 11:22:01.989115"	109	6.58221395
"S200225"	"Conflict_Resolution"	"RIGHT"	"RIGHT"	423.234599999887	900.0000018	""	n/a	n/a	n/a	"False"	n/a	n/a	"2020-02-25 11:22:02.908694"	"2020-02-25 11:22:03.539729"	110	6.58221395
"S200225"	"Conflict_Resolution"	"LEFT"	"LEFT"	495.047200000045	1366.6666694	""	n/a	n/a	n/a	"True"	n/a	n/a	"2020-02-25 11:22:04.925457"	"2020-02-25 11:22:05.628443"	111	6.58221395
"S200225"	"Conflict_Resolution"	"RIGHT"	"RIGHT"	401.820400000133	1483.3333363	""	n/a	n/a	n/a	"False"	n/a	n/a	"2020-02-25 11:22:07.130301"	"2020-02-25 11:22:07.740428"	112	6.58221395
"S200225"	"Conflict_Resolution"	"RIGHT"	"RIGHT"	446.15490000001	1366.6666694	""	n/a	n/a	n/a	"False"	n/a	n/a	"2020-02-25 11:22:09.126329"	"2020-02-25 11:22:09.779602"	113	6.58221395
"S200225"	"Conflict_Resolution"	"LEFT"	"LEFT"	392.630199999985	1116.6666689	""	n/a	n/a	n/a	"False"	n/a	n/a	"2020-02-25 11:22:10.915182"	"2020-02-25 11:22:11.516039"	114	6.58221395
"S200225"	"Conflict_Resolution"	"LEFT"	"LEFT"	323.74649999997	1416.6666695	""	n/a	n/a	n/a	"False"	n/a	n/a	"2020-02-25 11:22:12.952193"	"2020-02-25 11:22:13.484005"	115	6.58221395
"S200225"	"Conflict_Resolution"	"LEFT"	"RIGHT"	453.775499999892	583.3333345	""	n/a	n/a	n/a	"True"	n/a	n/a	"2020-02-25 11:22:14.086889"	"2020-02-25 11:22:14.749403"	116	6.58221395
"S200225"	"Conflict_Resolution"	"LEFT"	"LEFT"	721.947	1250.0000025	""	n/a	n/a	n/a	"True"	n/a	n/a	"2020-02-25 11:22:16.018656"	"2020-02-25 11:22:16.948712"	117	6.58221395
"S200225"	"Conflict_Resolution"	"RIGHT"	"RIGHT"	504.511399999956	700.0000014	""	n/a	n/a	n/a	"False"	n/a	n/a	"2020-02-25 11:22:17.668130"	"2020-02-25 11:22:18.382915"	118	6.58221395
"S200225"	"Conflict_Resolution"	"RIGHT"	"RIGHT"	651.683500000217	783.3333349	""	n/a	n/a	n/a	"True"	n/a	n/a	"2020-02-25 11:22:19.184511"	"2020-02-25 11:22:20.043970"	119	6.58221395
"S200225"	"Conflict_Resolution"	"RIGHT"	"RIGHT"	497.818800000005	1083.3333355	""	n/a	n/a	n/a	"False"	n/a	n/a	"2020-02-25 11:22:21.146112"	"2020-02-25 11:22:21.852297"	120	6.58221395
"S200225"	"Conflict_Resolution"	"RIGHT"	"RIGHT"	662.148099999968	1366.6666694	""	n/a	n/a	n/a	"True"	n/a	n/a	"2020-02-25 11:22:23.238411"	"2020-02-25 11:22:24.108809"	121	6.58221395
"S200225"	"Conflict_Resolution"	"RIGHT"	"RIGHT"	402.224799999885	1283.3333359	""	n/a	n/a	n/a	"False"	n/a	n/a	"2020-02-25 11:22:25.409683"	"2020-02-25 11:22:26.019781"	122	6.58221395
"S200225"	"Conflict_Resolution"	"RIGHT"	"RIGHT"	578.724899999997	1050.0000021	""	n/a	n/a	n/a	"True"	n/a	n/a	"2020-02-25 11:22:27.089430"	"2020-02-25 11:22:27.876295"	123	6.58221395
"S200225"	"Conflict_Resolution"	"LEFT"	"LEFT"	400.631599999997	1300.0000026	""	n/a	n/a	n/a	"False"	n/a	n/a	"2020-02-25 11:22:29.195224"	"2020-02-25 11:22:29.804538"	124	6.58221395
"S200225"	"Conflict_Resolution"	"LEFT"	"LEFT"	592.814600000111	533.3333344	""	n/a	n/a	n/a	"True"	n/a	n/a	"2020-02-25 11:22:30.355607"	"2020-02-25 11:22:31.157489"	125	6.58221395
"S200225"	"Conflict_Resolution"	"LEFT"	"LEFT"	527.945799999998	1266.6666692	""	n/a	n/a	n/a	"True"	n/a	n/a	"2020-02-25 11:22:32.444545"	"2020-02-25 11:22:33.180298"	126	6.58221395
"S200225"	"Conflict_Resolution"	"LEFT"	"LEFT"	509.540600000037	733.3333348	""	n/a	n/a	n/a	"True"	n/a	n/a	"2020-02-25 11:22:33.934387"	"2020-02-25 11:22:34.652268"	127	6.58221395
"S200225"	"Conflict_Resolution"	"RIGHT"	"RIGHT"	703.529399999979	1150.0000023	""	n/a	n/a	n/a	"True"	n/a	n/a	"2020-02-25 11:22:35.821476"	"2020-02-25 11:22:36.732519"	128	6.58221395
"S200225"	"Conflict_Resolution"	"RIGHT"	"RIGHT"	651.312899999994	1266.6666692	"RIGHT"	-575.965	n/a	n/a	"True"	n/a	n/a	"2020-02-25 11:22:38.017118"	"2020-02-25 11:22:38.876398"	129	6.58221395
"S200225"	"Conflict_Resolution"	"RIGHT"	"RIGHT"	394.965499999898	1266.6666692	""	n/a	n/a	n/a	"False"	n/a	n/a	"2020-02-25 11:22:40.162079"	"2020-02-25 11:22:40.764580"	130	6.58221395
"S200225"	"Conflict_Resolution"	"RIGHT"	"RIGHT"	463.43190000016	1133.3333356	""	n/a	n/a	n/a	"False"	n/a	n/a	"2020-02-25 11:22:41.917048"	"2020-02-25 11:22:42.588102"	131	6.58221395
"S200225"	"Conflict_Resolution"	"RIGHT"	"RIGHT"	588.388500000065	583.3333345	""	n/a	n/a	n/a	"True"	n/a	n/a	"2020-02-25 11:22:43.192051"	"2020-02-25 11:22:43.987615"	132	6.58221395
"S200225"	"Conflict_Resolution"	"RIGHT"	"RIGHT"	335.64669999987	933.3333352	""	n/a	n/a	n/a	"False"	n/a	n/a	"2020-02-25 11:22:44.940318"	"2020-02-25 11:22:45.484225"	133	6.58221395
"S200225"	"Conflict_Resolution"	"LEFT"	"LEFT"	675.591799999893	1400.0000028	""	n/a	n/a	n/a	"True"	n/a	n/a	"2020-02-25 11:22:46.904608"	"2020-02-25 11:22:47.788429"	134	6.58221395
"S200225"	"Conflict_Resolution"	"LEFT"	"LEFT"	673.322399999961	516.6666677	""	n/a	n/a	n/a	"False"	n/a	n/a	"2020-02-25 11:22:48.323289"	"2020-02-25 11:22:49.204019"	135	6.58221395
"S200225"	"Conflict_Resolution"	"RIGHT"	"RIGHT"	773.154700000077	833.333335	""	n/a	n/a	n/a	"True"	n/a	n/a	"2020-02-25 11:22:50.054814"	"2020-02-25 11:22:51.036709"	136	6.58221395
"S200225"	"Conflict_Resolution"	"LEFT"	"LEFT"	678.838999999925	716.6666681	""	n/a	n/a	n/a	"True"	n/a	n/a	"2020-02-25 11:22:51.773294"	"2020-02-25 11:22:52.660543"	137	6.58221395
"S200225"	"Conflict_Resolution"	"LEFT"	"LEFT"	488.882300000114	1450.0000029	""	n/a	n/a	n/a	"True"	n/a	n/a	"2020-02-25 11:22:54.131411"	"2020-02-25 11:22:54.828430"	138	6.58221395
"S200225"	"Conflict_Resolution"	"RIGHT"	"RIGHT"	423.24439999993	533.3333344	""	n/a	n/a	n/a	"False"	n/a	n/a	"2020-02-25 11:22:55.380955"	"2020-02-25 11:22:56.012608"	139	6.58221395
"S200225"	"Conflict_Resolution"	"RIGHT"	"LEFT"	419.998699999951	1033.3333354	""	n/a	n/a	n/a	"True"	n/a	n/a	"2020-02-25 11:22:57.064448"	"2020-02-25 11:22:57.692172"	140	6.58221395
"S200225"	"Conflict_Resolution"	"RIGHT"	"RIGHT"	422.077300000183	1383.3333361	""	n/a	n/a	n/a	"False"	n/a	n/a	"2020-02-25 11:22:59.093898"	"2020-02-25 11:22:59.724680"	141	6.58221395
"S200225"	"Conflict_Resolution"	"LEFT"	"LEFT"	613.745699999981	1000.000002	""	n/a	n/a	n/a	"True"	n/a	n/a	"2020-02-25 11:23:00.742288"	"2020-02-25 11:23:01.564688"	142	6.58221395
"S200225"	"Conflict_Resolution"	"LEFT"	"LEFT"	485.611999999946	566.6666678	""	n/a	n/a	n/a	"True"	n/a	n/a	"2020-02-25 11:23:02.150146"	"2020-02-25 11:23:02.844366"	143	6.58221395
"S200225"	"Conflict_Resolution"	"LEFT"	"LEFT"	432.416999999987	1100.0000022	""	n/a	n/a	n/a	"False"	n/a	n/a	"2020-02-25 11:23:03.964012"	"2020-02-25 11:23:04.604178"	144	6.58221395
"S200225"	"Conflict_Resolution"	"LEFT"	"LEFT"	375.630400000091	966.6666686	""	n/a	n/a	n/a	"False"	n/a	n/a	"2020-02-25 11:23:05.588941"	"2020-02-25 11:23:06.171933"	145	6.58221395
"S200225"	"Conflict_Resolution"	"LEFT"	"LEFT"	374.95459999991	950.0000019	""	n/a	n/a	n/a	"False"	n/a	n/a	"2020-02-25 11:23:07.141574"	"2020-02-25 11:23:07.723298"	146	6.58221395
"S200225"	"Conflict_Resolution"	"LEFT"	"LEFT"	384.327100000064	916.6666685	""	n/a	n/a	n/a	"False"	n/a	n/a	"2020-02-25 11:23:08.659754"	"2020-02-25 11:23:09.253254"	147	6.58221395
"S200225"	"Conflict_Resolution"	"RIGHT"	"RIGHT"	481.168700000126	1466.6666696	""	n/a	n/a	n/a	"False"	n/a	n/a	"2020-02-25 11:23:10.738998"	"2020-02-25 11:23:11.427818"	148	6.58221395
"S200225"	"Conflict_Resolution"	"LEFT"	"LEFT"	592.918300000065	1500.000003	""	n/a	n/a	n/a	"True"	n/a	n/a	"2020-02-25 11:23:12.947333"	"2020-02-25 11:23:13.748871"	149	6.58221395
"S200225"	"Conflict_Resolution"	"LEFT"	"LEFT"	364.956899999925	783.3333349	""	n/a	n/a	n/a	"False"	n/a	n/a	"2020-02-25 11:23:14.551252"	"2020-02-25 11:23:15.124580"	150	6.58221395
"S200225"	"Conflict_Resolution"	"LEFT"	"LEFT"	330.906900000173	1450.0000029	""	n/a	n/a	n/a	"False"	n/a	n/a	"2020-02-25 11:23:16.593148"	"2020-02-25 11:23:17.131620"	151	6.58221395
"S200225"	"Conflict_Resolution"	"RIGHT"	"RIGHT"	607.270599999993	1100.0000022	""	n/a	n/a	n/a	"True"	n/a	n/a	"2020-02-25 11:23:18.253208"	"2020-02-25 11:23:19.067571"	152	6.58221395
"S200225"	"Conflict_Resolution"	"RIGHT"	"LEFT"	355.956600000127	1183.3333357	""	n/a	n/a	n/a	"True"	n/a	n/a	"2020-02-25 11:23:20.272334"	"2020-02-25 11:23:20.837341"	153	6.58221395
"S200225"	"Conflict_Resolution"	"RIGHT"	"RIGHT"	442.159100000026	1050.0000021	""	n/a	n/a	n/a	"False"	n/a	n/a	"2020-02-25 11:23:21.905734"	"2020-02-25 11:23:22.557554"	154	6.58221395
"S200225"	"Conflict_Resolution"	"LEFT"	"LEFT"	700.756099999808	1166.666669	""	n/a	n/a	n/a	"True"	n/a	n/a	"2020-02-25 11:23:23.742950"	"2020-02-25 11:23:24.653221"	155	6.58221395
"S200225"	"Conflict_Resolution"	"RIGHT"	"RIGHT"	604.523199999903	1383.3333361	""	n/a	n/a	n/a	"True"	n/a	n/a	"2020-02-25 11:23:26.055666"	"2020-02-25 11:23:26.868531"	156	6.58221395
"S200225"	"Conflict_Resolution"	"RIGHT"	"RIGHT"	742.338100000097	550.0000011	""	n/a	n/a	n/a	"True"	n/a	n/a	"2020-02-25 11:23:27.438009"	"2020-02-25 11:23:28.387564"	157	6.58221395
"S200225"	"Conflict_Resolution"	"RIGHT"	"RIGHT"	439.336800000092	1150.0000023	""	n/a	n/a	n/a	"False"	n/a	n/a	"2020-02-25 11:23:29.556910"	"2020-02-25 11:23:30.204235"	158	6.58221395
"S200225"	"Conflict_Resolution"	"LEFT"	"LEFT"	411.838900000021	1216.6666691	""	n/a	n/a	n/a	"False"	n/a	n/a	"2020-02-25 11:23:31.440446"	"2020-02-25 11:23:32.059672"	159	6.58221395
"S200225"	"Conflict_Resolution"	"RIGHT"	"RIGHT"	406.948900000089	983.3333353	""	n/a	n/a	n/a	"False"	n/a	n/a	"2020-02-25 11:23:33.061536"	"2020-02-25 11:23:33.676689"	160	6.58221395
"S200225"	"Processing_Speed"	"LEFT"	"DOWN"	1206.04109999999	883.3333351	n/a	n/a	n/a	n/a	n/a	n/a	n/a	"2020-02-25 11:06:45.062626"	"2020-02-25 11:06:46.487776"	1	2.1831794
"S200225"	"Processing_Speed"	"LEFT"	"DOWN"	308.138100000008	816.6666683	n/a	n/a	n/a	n/a	n/a	n/a	n/a	"2020-02-25 11:06:47.312624"	"2020-02-25 11:06:47.828834"	2	2.1831794
"S200225"	"Processing_Speed"	"RIGHT"	"DOWN"	252.820900000017	666.666668	n/a	n/a	n/a	n/a	n/a	n/a	n/a	"2020-02-25 11:06:48.504091"	"2020-02-25 11:06:48.964413"	3	2.1831794
"S200225"	"Processing_Speed"	"RIGHT"	"DOWN"	296.5442	1366.6666694	n/a	n/a	n/a	n/a	n/a	n/a	n/a	"2020-02-25 11:06:50.340310"	"2020-02-25 11:06:50.845091"	4	2.1831794
"S200225"	"Processing_Speed"	"LEFT"	"DOWN"	258.747100000022	916.6666685	n/a	n/a	n/a	n/a	n/a	n/a	n/a	"2020-02-25 11:06:51.770571"	"2020-02-25 11:06:52.237271"	5	2.1831794
"S200225"	"Processing_Speed"	"LEFT"	"DOWN"	243.079800000004	1500.000003	n/a	n/a	n/a	n/a	n/a	n/a	n/a	"2020-02-25 11:06:53.746261"	"2020-02-25 11:06:54.198059"	6	2.1831794
"S200225"	"Processing_Speed"	"LEFT"	"DOWN"	302.130800000015	566.6666678	n/a	n/a	n/a	n/a	n/a	n/a	n/a	"2020-02-25 11:06:54.775028"	"2020-02-25 11:06:55.286867"	7	2.1831794
"S200225"	"Processing_Speed"	"RIGHT"	"DOWN"	231.363899999991	950.0000019	n/a	n/a	n/a	n/a	n/a	n/a	n/a	"2020-02-25 11:06:56.245832"	"2020-02-25 11:06:56.685182"	8	2.1831794
"S200225"	"Processing_Speed"	"LEFT"	"DOWN"	250.921900000009	700.0000014	n/a	n/a	n/a	n/a	n/a	n/a	n/a	"2020-02-25 11:06:57.393862"	"2020-02-25 11:06:57.852718"	9	2.1831794
"S200225"	"Processing_Speed"	"RIGHT"	"DOWN"	285.965699999991	1433.3333362	n/a	n/a	n/a	n/a	n/a	n/a	n/a	"2020-02-25 11:06:59.294949"	"2020-02-25 11:06:59.790514"	10	2.1831794
"S200225"	"Processing_Speed"	"RIGHT"	"DOWN"	277.885800000007	1400.0000028	n/a	n/a	n/a	n/a	n/a	n/a	n/a	"2020-02-25 11:07:01.199285"	"2020-02-25 11:07:01.685500"	11	2.1831794
"S200225"	"Processing_Speed"	"RIGHT"	"DOWN"	311.694500000016	1183.3333357	n/a	n/a	n/a	n/a	n/a	n/a	n/a	"2020-02-25 11:07:02.877324"	"2020-02-25 11:07:03.397063"	12	2.1831794
"S200225"	"Processing_Speed"	"LEFT"	"DOWN"	284.840400000007	1266.6666692	n/a	n/a	n/a	n/a	n/a	n/a	n/a	"2020-02-25 11:07:04.672052"	"2020-02-25 11:07:05.164745"	13	2.1831794
"S200225"	"Processing_Speed"	"LEFT"	"DOWN"	327.484399999975	600.0000012	n/a	n/a	n/a	n/a	n/a	n/a	n/a	"2020-02-25 11:07:05.773075"	"2020-02-25 11:07:06.308783"	14	2.1831794
"S200225"	"Processing_Speed"	"LEFT"	"DOWN"	364.997299999999	1466.6666696	n/a	n/a	n/a	n/a	n/a	n/a	n/a	"2020-02-25 11:07:07.783669"	"2020-02-25 11:07:08.357081"	15	2.1831794
"S200225"	"Processing_Speed"	"LEFT"	"DOWN"	246.800199999996	1016.6666687	n/a	n/a	n/a	n/a	n/a	n/a	n/a	"2020-02-25 11:07:09.381963"	"2020-02-25 11:07:09.837074"	16	2.1831794
"S200225"	"Processing_Speed"	"LEFT"	"DOWN"	280.093600000015	1183.3333357	n/a	n/a	n/a	n/a	n/a	n/a	n/a	"2020-02-25 11:07:11.029052"	"2020-02-25 11:07:11.516861"	17	2.1831794
"S200225"	"Processing_Speed"	"RIGHT"	"DOWN"	298.241199999978	733.3333348	n/a	n/a	n/a	n/a	n/a	n/a	n/a	"2020-02-25 11:07:12.258353"	"2020-02-25 11:07:12.765178"	18	2.1831794
"S200225"	"Processing_Speed"	"LEFT"	"DOWN"	269.70399999999	633.3333346	n/a	n/a	n/a	n/a	n/a	n/a	n/a	"2020-02-25 11:07:13.406974"	"2020-02-25 11:07:13.885036"	19	2.1831794
"S200225"	"Processing_Speed"	"RIGHT"	"DOWN"	250.67420000002	1116.6666689	n/a	n/a	n/a	n/a	n/a	n/a	n/a	"2020-02-25 11:07:15.010592"	"2020-02-25 11:07:15.469435"	20	2.1831794
"S200225"	"Processing_Speed"	"RIGHT"	"DOWN"	255.504400000007	983.3333353	n/a	n/a	n/a	n/a	n/a	n/a	n/a	"2020-02-25 11:07:16.461318"	"2020-02-25 11:07:16.925076"	21	2.1831794
"S200225"	"Processing_Speed"	"RIGHT"	"DOWN"	275.494400000014	700.0000014	n/a	n/a	n/a	n/a	n/a	n/a	n/a	"2020-02-25 11:07:17.633216"	"2020-02-25 11:07:18.116404"	22	2.1831794
"S200225"	"Processing_Speed"	"RIGHT"	"DOWN"	276.815900000003	1266.6666692	n/a	n/a	n/a	n/a	n/a	n/a	n/a	"2020-02-25 11:07:19.392094"	"2020-02-25 11:07:19.878549"	23	2.1831794
"S200225"	"Processing_Speed"	"RIGHT"	"DOWN"	248.947200000003	916.6666685	n/a	n/a	n/a	n/a	n/a	n/a	n/a	"2020-02-25 11:07:20.804111"	"2020-02-25 11:07:21.261373"	24	2.1831794
"S200225"	"Processing_Speed"	"LEFT"	"DOWN"	247.060800000014	1400.0000028	n/a	n/a	n/a	n/a	n/a	n/a	n/a	"2020-02-25 11:07:22.669718"	"2020-02-25 11:07:23.124974"	25	2.1831794
"S200225"	"Processing_Speed"	"LEFT"	"DOWN"	251.364899999999	1300.0000026	n/a	n/a	n/a	n/a	n/a	n/a	n/a	"2020-02-25 11:07:24.433036"	"2020-02-25 11:07:24.893171"	26	2.1831794
"S200225"	"Processing_Speed"	"RIGHT"	"DOWN"	238.762400000013	1016.6666687	n/a	n/a	n/a	n/a	n/a	n/a	n/a	"2020-02-25 11:07:25.918567"	"2020-02-25 11:07:26.365370"	27	2.1831794
"S200225"	"Processing_Speed"	"LEFT"	"DOWN"	302.341499999983	1216.6666691	n/a	n/a	n/a	n/a	n/a	n/a	n/a	"2020-02-25 11:07:27.590655"	"2020-02-25 11:07:28.101288"	28	2.1831794
"S200225"	"Processing_Speed"	"LEFT"	"DOWN"	289.379800000006	1333.333336	n/a	n/a	n/a	n/a	n/a	n/a	n/a	"2020-02-25 11:07:29.443235"	"2020-02-25 11:07:29.941410"	29	2.1831794
"S200225"	"Processing_Speed"	"LEFT"	"DOWN"	360.831700000006	733.3333348	n/a	n/a	n/a	n/a	n/a	n/a	n/a	"2020-02-25 11:07:30.684483"	"2020-02-25 11:07:31.252961"	30	2.1831794
"S200225"	"Processing_Speed"	"LEFT"	"DOWN"	288.884499999995	1366.6666694	n/a	n/a	n/a	n/a	n/a	n/a	n/a	"2020-02-25 11:07:32.627875"	"2020-02-25 11:07:33.125050"	31	2.1831794
"S200225"	"Processing_Speed"	"RIGHT"	"DOWN"	262.478099999981	816.6666683	n/a	n/a	n/a	n/a	n/a	n/a	n/a	"2020-02-25 11:07:33.950039"	"2020-02-25 11:07:34.421284"	32	2.1831794
"S200225"	"Processing_Speed"	"RIGHT"	"DOWN"	302.444500000007	1216.6666691	n/a	n/a	n/a	n/a	n/a	n/a	n/a	"2020-02-25 11:07:35.646062"	"2020-02-25 11:07:36.156683"	33	2.1831794
"S200225"	"Processing_Speed"	"LEFT"	"DOWN"	262.319300000001	850.0000017	n/a	n/a	n/a	n/a	n/a	n/a	n/a	"2020-02-25 11:07:37.014898"	"2020-02-25 11:07:37.484908"	34	2.1831794
"S200225"	"Processing_Speed"	"RIGHT"	"DOWN"	276.069399999983	1083.3333355	n/a	n/a	n/a	n/a	n/a	n/a	n/a	"2020-02-25 11:07:38.577164"	"2020-02-25 11:07:39.061352"	35	2.1831794
"S200225"	"Processing_Speed"	"LEFT"	"DOWN"	287.581499999987	783.3333349	n/a	n/a	n/a	n/a	n/a	n/a	n/a	"2020-02-25 11:07:39.852991"	"2020-02-25 11:07:40.349308"	36	2.1831794
"S200225"	"Processing_Speed"	"LEFT"	"DOWN"	297.111400000006	1150.0000023	n/a	n/a	n/a	n/a	n/a	n/a	n/a	"2020-02-25 11:07:41.507853"	"2020-02-25 11:07:42.013104"	37	2.1831794
"S200225"	"Processing_Speed"	"LEFT"	"DOWN"	296.719599999989	950.0000019	n/a	n/a	n/a	n/a	n/a	n/a	n/a	"2020-02-25 11:07:42.972515"	"2020-02-25 11:07:43.478025"	38	2.1831794
"S200225"	"Processing_Speed"	"RIGHT"	"DOWN"	326.259800000003	783.3333349	n/a	n/a	n/a	n/a	n/a	n/a	n/a	"2020-02-25 11:07:44.270437"	"2020-02-25 11:07:44.805551"	39	2.1831794
"S200225"	"Processing_Speed"	"LEFT"	"DOWN"	273.451100000017	533.3333344	n/a	n/a	n/a	n/a	n/a	n/a	n/a	"2020-02-25 11:07:45.347151"	"2020-02-25 11:07:45.829188"	40	2.1831794
"S200225"	"Processing_Speed"	"RIGHT"	"DOWN"	347.27479999998	500.000001	n/a	n/a	n/a	n/a	n/a	n/a	n/a	"2020-02-25 11:07:46.337342"	"2020-02-25 11:07:46.893396"	41	2.1831794
"S200225"	"Processing_Speed"	"RIGHT"	"DOWN"	290.033700000009	1300.0000026	n/a	n/a	n/a	n/a	n/a	n/a	n/a	"2020-02-25 11:07:48.202966"	"2020-02-25 11:07:48.701408"	42	2.1831794
"S200225"	"Processing_Speed"	"RIGHT"	"DOWN"	375.531499999994	600.0000012	n/a	n/a	n/a	n/a	n/a	n/a	n/a	"2020-02-25 11:07:49.309429"	"2020-02-25 11:07:49.892757"	43	2.1831794
"S200225"	"Processing_Speed"	"LEFT"	"DOWN"	267.699700000009	500.000001	n/a	n/a	n/a	n/a	n/a	n/a	n/a	"2020-02-25 11:07:50.401423"	"2020-02-25 11:07:50.877162"	44	2.1831794
"S200225"	"Processing_Speed"	"RIGHT"	"DOWN"	300.740300000001	850.0000017	n/a	n/a	n/a	n/a	n/a	n/a	n/a	"2020-02-25 11:07:51.735946"	"2020-02-25 11:07:52.245300"	45	2.1831794
"S200225"	"Processing_Speed"	"RIGHT"	"DOWN"	260.994399999987	1050.0000021	n/a	n/a	n/a	n/a	n/a	n/a	n/a	"2020-02-25 11:07:53.303984"	"2020-02-25 11:07:53.773351"	46	2.1831794
"S200225"	"Processing_Speed"	"RIGHT"	"DOWN"	312.778100000003	1333.333336	n/a	n/a	n/a	n/a	n/a	n/a	n/a	"2020-02-25 11:07:55.116452"	"2020-02-25 11:07:55.637539"	47	2.1831794
"S200225"	"Processing_Speed"	"LEFT"	"DOWN"	276.494400000018	1050.0000021	n/a	n/a	n/a	n/a	n/a	n/a	n/a	"2020-02-25 11:07:56.696663"	"2020-02-25 11:07:57.180839"	48	2.1831794
"S200225"	"Processing_Speed"	"RIGHT"	"DOWN"	285.532199999977	633.3333346	n/a	n/a	n/a	n/a	n/a	n/a	n/a	"2020-02-25 11:07:57.823793"	"2020-02-25 11:07:58.318539"	49	2.1831794
"S200225"	"Processing_Speed"	"LEFT"	"DOWN"	261.318399999993	983.3333353	n/a	n/a	n/a	n/a	n/a	n/a	n/a	"2020-02-25 11:07:59.311569"	"2020-02-25 11:07:59.780241"	50	2.1831794
"S200225"	"Processing_Speed"	"LEFT"	"DOWN"	285.470800000013	666.666668	n/a	n/a	n/a	n/a	n/a	n/a	n/a	"2020-02-25 11:08:00.455469"	"2020-02-25 11:08:00.949459"	51	2.1831794
"S200225"	"Processing_Speed"	"LEFT"	"DOWN"	289.369099999988	1116.6666689	n/a	n/a	n/a	n/a	n/a	n/a	n/a	"2020-02-25 11:08:02.075551"	"2020-02-25 11:08:02.573393"	52	2.1831794
"S200225"	"Processing_Speed"	"LEFT"	"DOWN"	277.650700000009	1433.3333362	n/a	n/a	n/a	n/a	n/a	n/a	n/a	"2020-02-25 11:08:04.015652"	"2020-02-25 11:08:04.500873"	53	2.1831794
"S200225"	"Processing_Speed"	"RIGHT"	"DOWN"	289.522699999992	533.3333344	n/a	n/a	n/a	n/a	n/a	n/a	n/a	"2020-02-25 11:08:05.043418"	"2020-02-25 11:08:05.541154"	54	2.1831794
"S200225"	"Processing_Speed"	"RIGHT"	"DOWN"	299.65279999999	883.3333351	n/a	n/a	n/a	n/a	n/a	n/a	n/a	"2020-02-25 11:08:06.433019"	"2020-02-25 11:08:06.939900"	55	2.1831794
"S200225"	"Processing_Speed"	"RIGHT"	"DOWN"	309.987799999988	1466.6666696	n/a	n/a	n/a	n/a	n/a	n/a	n/a	"2020-02-25 11:08:08.415056"	"2020-02-25 11:08:08.932709"	56	2.1831794
"S200225"	"Processing_Speed"	"RIGHT"	"DOWN"	288.761300000004	566.6666678	n/a	n/a	n/a	n/a	n/a	n/a	n/a	"2020-02-25 11:08:09.508136"	"2020-02-25 11:08:10.006492"	57	2.1831794
"S200225"	"Processing_Speed"	"LEFT"	"DOWN"	250.448599999999	1083.3333355	n/a	n/a	n/a	n/a	n/a	n/a	n/a	"2020-02-25 11:08:11.098769"	"2020-02-25 11:08:11.557056"	58	2.1831794
"S200225"	"Processing_Speed"	"RIGHT"	"DOWN"	297.073399999988	1150.0000023	n/a	n/a	n/a	n/a	n/a	n/a	n/a	"2020-02-25 11:08:12.715414"	"2020-02-25 11:08:13.221173"	59	2.1831794
"S200225"	"Processing_Speed"	"RIGHT"	"DOWN"	330.922999999984	1500.000003	n/a	n/a	n/a	n/a	n/a	n/a	n/a	"2020-02-25 11:08:14.729685"	"2020-02-25 11:08:15.269421"	60	2.1831794
"S200225"	"Response_Inhibition"	"LEFT"	"LEFT"	420.019933699985	683.3333347	n/a	n/a	n/a	n/a	n/a	n/a	n/a	"2020-02-25 11:11:48.629601"	"2020-02-25 11:11:49.261456"	1	5.85371738333333
"S200225"	"Response_Inhibition"	"RIGHT"	"RIGHT"	351.182199999982	783.3333349	n/a	n/a	n/a	n/a	n/a	n/a	n/a	"2020-02-25 11:11:50.053359"	"2020-02-25 11:11:50.611945"	2	5.85371738333333
"S200225"	"Response_Inhibition"	"LEFT"	"LEFT"	308.670100000029	683.3333347	n/a	n/a	n/a	n/a	n/a	n/a	n/a	"2020-02-25 11:11:51.304080"	"2020-02-25 11:11:51.821171"	3	5.85371738333333
"S200225"	"Response_Inhibition"	"RIGHT"	"RIGHT"	357.209399999988	816.6666683	n/a	n/a	n/a	n/a	n/a	n/a	n/a	"2020-02-25 11:11:52.647172"	"2020-02-25 11:11:53.211567"	4	5.85371738333333
"S200225"	"Response_Inhibition"	"RIGHT"	"RIGHT"	363.314699999989	516.6666677	n/a	n/a	n/a	n/a	n/a	n/a	n/a	"2020-02-25 11:11:53.737720"	"2020-02-25 11:11:54.309210"	5	5.85371738333333
"S200225"	"Response_Inhibition"	"RIGHT"	"RIGHT"	368.921199999988	1350.0000027	n/a	n/a	n/a	n/a	n/a	n/a	n/a	"2020-02-25 11:11:55.667765"	"2020-02-25 11:11:56.245453"	6	5.85371738333333
"S200225"	"Response_Inhibition"	"RIGHT"	"RIGHT"	303.422200400011	900.0000018	n/a	n/a	n/a	n/a	n/a	n/a	n/a	"2020-02-25 11:11:57.154151"	"2020-02-25 11:11:57.668522"	7	5.85371738333333
"S200225"	"Response_Inhibition"	"RIGHT"	"RIGHT"	466.031299999997	533.3333344	n/a	n/a	n/a	n/a	n/a	n/a	n/a	"2020-02-25 11:11:58.210556"	"2020-02-25 11:11:58.885386"	8	5.85371738333333
"S200225"	"Response_Inhibition"	"LEFT"	"LEFT"	428.281299999981	1466.6666696	n/a	n/a	n/a	n/a	n/a	n/a	n/a	"2020-02-25 11:12:00.360061"	"2020-02-25 11:12:00.996659"	9	5.85371738333333
"S200225"	"Response_Inhibition"	"RIGHT"	"RIGHT"	317.716599999983	1033.3333354	n/a	n/a	n/a	n/a	n/a	n/a	n/a	"2020-02-25 11:12:02.038880"	"2020-02-25 11:12:02.564508"	10	5.85371738333333
"S200225"	"Response_Inhibition"	"RIGHT"	"RIGHT"	315.699199999983	700.0000014	n/a	n/a	n/a	n/a	n/a	n/a	n/a	"2020-02-25 11:12:03.272611"	"2020-02-25 11:12:03.795768"	11	5.85371738333333
"S200225"	"Response_Inhibition"	"RIGHT"	"RIGHT"	339.655199999982	1116.6666689	n/a	n/a	n/a	n/a	n/a	n/a	n/a	"2020-02-25 11:12:04.921290"	"2020-02-25 11:12:05.467884"	12	5.85371738333333
"S200225"	"Response_Inhibition"	"RIGHT"	"RIGHT"	304.72309999999	583.3333345	n/a	n/a	n/a	n/a	n/a	n/a	n/a	"2020-02-25 11:12:06.059708"	"2020-02-25 11:12:06.572952"	13	5.85371738333333
"S200225"	"Response_Inhibition"	"LEFT"	"LEFT"	399.615599999947	1000.000002	n/a	n/a	n/a	n/a	n/a	n/a	n/a	"2020-02-25 11:12:07.581514"	"2020-02-25 11:12:08.187673"	14	5.85371738333333
"S200225"	"Response_Inhibition"	"RIGHT"	"RIGHT"	391.509499999984	1416.6666695	n/a	n/a	n/a	n/a	n/a	n/a	n/a	"2020-02-25 11:12:09.613316"	"2020-02-25 11:12:10.212182"	15	5.85371738333333
"S200225"	"Response_Inhibition"	"RIGHT"	"RIGHT"	318.106	850.0000017	n/a	n/a	n/a	n/a	n/a	n/a	n/a	"2020-02-25 11:12:11.070888"	"2020-02-25 11:12:11.597323"	16	5.85371738333333
"S200225"	"Response_Inhibition"	"LEFT"	"Time_Max_Exceeded"	1500.06476670004	1100.0000022	n/a	n/a	n/a	n/a	n/a	n/a	n/a	"2020-02-25 11:12:12.705479"	"2020-02-25 11:12:14.209487"	17	5.85371738333333
"S200225"	"Response_Inhibition"	"RIGHT"	"RIGHT"	396.076199999982	1150.0000023	n/a	n/a	n/a	n/a	n/a	n/a	n/a	"2020-02-25 11:12:15.368940"	"2020-02-25 11:12:15.973319"	18	5.85371738333333
"S200225"	"Response_Inhibition"	"RIGHT"	"RIGHT"	395.110400000021	683.3333347	n/a	n/a	n/a	n/a	n/a	n/a	n/a	"2020-02-25 11:12:16.665002"	"2020-02-25 11:12:17.269498"	19	5.85371738333333
"S200225"	"Response_Inhibition"	"RIGHT"	"RIGHT"	289.693800199986	850.0000017	n/a	n/a	n/a	n/a	n/a	n/a	n/a	"2020-02-25 11:12:18.127759"	"2020-02-25 11:12:18.627749"	20	5.85371738333333
"S200225"	"Response_Inhibition"	"RIGHT"	"RIGHT"	615.578599999992	1216.6666691	n/a	n/a	n/a	n/a	n/a	n/a	n/a	"2020-02-25 11:12:19.852666"	"2020-02-25 11:12:20.675579"	21	5.85371738333333
"S200225"	"Response_Inhibition"	"LEFT"	"LEFT"	317.820499999982	1266.6666692	n/a	n/a	n/a	n/a	n/a	n/a	n/a	"2020-02-25 11:12:21.951214"	"2020-02-25 11:12:22.476186"	22	5.85371738333333
"S200225"	"Response_Inhibition"	"LEFT"	"LEFT"	460.814299999981	1483.3333363	n/a	n/a	n/a	n/a	n/a	n/a	n/a	"2020-02-25 11:12:23.967524"	"2020-02-25 11:12:24.635706"	23	5.85371738333333
"S200225"	"Response_Inhibition"	"LEFT"	"LEFT"	371.104767000004	1033.3333354	n/a	n/a	n/a	n/a	n/a	n/a	n/a	"2020-02-25 11:12:25.678185"	"2020-02-25 11:12:26.260992"	24	5.85371738333333
"S200225"	"Response_Inhibition"	"RIGHT"	"RIGHT"	455.227799999989	1000.000002	n/a	n/a	n/a	n/a	n/a	n/a	n/a	"2020-02-25 11:12:27.269277"	"2020-02-25 11:12:27.932778"	25	5.85371738333333
"S200225"	"Response_Inhibition"	"RIGHT"	"RIGHT"	402.566400600001	633.3333346	n/a	n/a	n/a	n/a	n/a	n/a	n/a	"2020-02-25 11:12:28.574589"	"2020-02-25 11:12:29.188138"	26	5.85371738333333
"S200225"	"Response_Inhibition"	"RIGHT"	"RIGHT"	680.467899999996	983.3333353	n/a	n/a	n/a	n/a	n/a	n/a	n/a	"2020-02-25 11:12:30.180119"	"2020-02-25 11:12:31.069414"	27	5.85371738333333
"S200225"	"Response_Inhibition"	"LEFT"	"LEFT"	554.758900000024	1316.6666693	n/a	n/a	n/a	n/a	n/a	n/a	n/a	"2020-02-25 11:12:32.394106"	"2020-02-25 11:12:33.157379"	28	5.85371738333333
"S200225"	"Response_Inhibition"	"RIGHT"	"RIGHT"	291.740199999992	1266.6666692	n/a	n/a	n/a	n/a	n/a	n/a	n/a	"2020-02-25 11:12:34.432542"	"2020-02-25 11:12:34.933490"	29	5.85371738333333
"S200225"	"Response_Inhibition"	"LEFT"	"LEFT"	444.685800000002	1050.0000021	n/a	n/a	n/a	n/a	n/a	n/a	n/a	"2020-02-25 11:12:35.991691"	"2020-02-25 11:12:36.645482"	30	5.85371738333333
"S200225"	"Response_Inhibition"	"RIGHT"	"Time_Max_Exceeded"	1500.0463672	533.3333344	n/a	n/a	n/a	n/a	n/a	n/a	n/a	"2020-02-25 11:12:37.187508"	"2020-02-25 11:12:38.690513"	31	5.85371738333333
"S200225"	"Response_Inhibition"	"RIGHT"	"RIGHT"	370.026199999984	966.6666686	n/a	n/a	n/a	n/a	n/a	n/a	n/a	"2020-02-25 11:12:39.666461"	"2020-02-25 11:12:40.244205"	32	5.85371738333333
"S200225"	"Response_Inhibition"	"LEFT"	"LEFT"	570.808399999919	733.3333348	n/a	n/a	n/a	n/a	n/a	n/a	n/a	"2020-02-25 11:12:40.985764"	"2020-02-25 11:12:41.764050"	33	5.85371738333333
"S200225"	"Response_Inhibition"	"RIGHT"	"RIGHT"	368.289300000015	1416.6666695	n/a	n/a	n/a	n/a	n/a	n/a	n/a	"2020-02-25 11:12:43.188931"	"2020-02-25 11:12:43.766221"	34	5.85371738333333
"S200225"	"Response_Inhibition"	"RIGHT"	"Time_Max_Exceeded"	1500.06990029999	1000.000002	n/a	n/a	n/a	n/a	n/a	n/a	n/a	"2020-02-25 11:12:44.775637"	"2020-02-25 11:12:46.279164"	35	5.85371738333333
"S200225"	"Response_Inhibition"	"LEFT"	"LEFT"	368.879200000038	1100.0000022	n/a	n/a	n/a	n/a	n/a	n/a	n/a	"2020-02-25 11:12:47.387286"	"2020-02-25 11:12:47.963796"	36	5.85371738333333
"S200225"	"Response_Inhibition"	"LEFT"	"LEFT"	432.233799999949	1200.0000024	n/a	n/a	n/a	n/a	n/a	n/a	n/a	"2020-02-25 11:12:49.172567"	"2020-02-25 11:12:49.811874"	37	5.85371738333333
"S200225"	"Response_Inhibition"	"RIGHT"	"RIGHT"	617.034500000045	583.3333345	n/a	n/a	n/a	n/a	n/a	n/a	n/a	"2020-02-25 11:12:50.403307"	"2020-02-25 11:12:51.228802"	38	5.85371738333333
"S200225"	"Response_Inhibition"	"RIGHT"	"RIGHT"	522.509900000045	1316.6666693	n/a	n/a	n/a	n/a	n/a	n/a	n/a	"2020-02-25 11:12:52.554590"	"2020-02-25 11:12:53.284086"	39	5.85371738333333
"S200225"	"Response_Inhibition"	"LEFT"	"LEFT"	313.928900000064	950.0000019	n/a	n/a	n/a	n/a	n/a	n/a	n/a	"2020-02-25 11:12:54.243061"	"2020-02-25 11:12:54.765292"	40	5.85371738333333
"S200225"	"Response_Inhibition"	"LEFT"	"LEFT"	420.169300000111	1066.6666688	n/a	n/a	n/a	n/a	n/a	n/a	n/a	"2020-02-25 11:12:55.840404"	"2020-02-25 11:12:56.468960"	41	5.85371738333333
"S200225"	"Response_Inhibition"	"LEFT"	"LEFT"	550.364300000069	1416.6666695	n/a	n/a	n/a	n/a	n/a	n/a	n/a	"2020-02-25 11:12:57.894168"	"2020-02-25 11:12:58.651655"	42	5.85371738333333
"S200225"	"Response_Inhibition"	"LEFT"	"Time_Max_Exceeded"	1500.04833380009	583.3333345	n/a	n/a	n/a	n/a	n/a	n/a	n/a	"2020-02-25 11:12:59.245155"	"2020-02-25 11:13:00.748144"	43	5.85371738333333
"S200225"	"Response_Inhibition"	"RIGHT"	"RIGHT"	374.951099999976	1216.6666691	n/a	n/a	n/a	n/a	n/a	n/a	n/a	"2020-02-25 11:13:01.974105"	"2020-02-25 11:13:02.557508"	44	5.85371738333333
"S200225"	"Response_Inhibition"	"RIGHT"	"RIGHT"	304.5599337	666.666668	n/a	n/a	n/a	n/a	n/a	n/a	n/a	"2020-02-25 11:13:03.232678"	"2020-02-25 11:13:03.747839"	45	5.85371738333333
"S200225"	"Response_Inhibition"	"RIGHT"	"RIGHT"	789.374600000087	650.0000013	n/a	n/a	n/a	n/a	n/a	n/a	n/a	"2020-02-25 11:13:04.407203"	"2020-02-25 11:13:05.404539"	46	5.85371738333333
"S200225"	"Response_Inhibition"	"LEFT"	"LEFT"	546.21510000004	733.3333348	n/a	n/a	n/a	n/a	n/a	n/a	n/a	"2020-02-25 11:13:06.146093"	"2020-02-25 11:13:06.900176"	47	5.85371738333333
"S200225"	"Response_Inhibition"	"RIGHT"	"RIGHT"	429.328300000066	1266.6666692	n/a	n/a	n/a	n/a	n/a	n/a	n/a	"2020-02-25 11:13:08.175073"	"2020-02-25 11:13:08.813411"	48	5.85371738333333
"S200225"	"Response_Inhibition"	"LEFT"	"LEFT"	590.429200000017	1400.0000028	n/a	n/a	n/a	n/a	n/a	n/a	n/a	"2020-02-25 11:13:10.222197"	"2020-02-25 11:13:11.021439"	49	5.85371738333333
"S200225"	"Response_Inhibition"	"LEFT"	"LEFT"	560.875399999986	1150.0000023	n/a	n/a	n/a	n/a	n/a	n/a	n/a	"2020-02-25 11:13:12.180180"	"2020-02-25 11:13:12.948616"	50	5.85371738333333
"S200225"	"Response_Inhibition"	"RIGHT"	"RIGHT"	523.933900000088	883.3333351	n/a	n/a	n/a	n/a	n/a	n/a	n/a	"2020-02-25 11:13:13.840849"	"2020-02-25 11:13:14.573143"	51	5.85371738333333
"S200225"	"Response_Inhibition"	"RIGHT"	"Time_Max_Exceeded"	1500.05296709996	783.3333349	n/a	n/a	n/a	n/a	n/a	n/a	n/a	"2020-02-25 11:13:15.365017"	"2020-02-25 11:13:16.868109"	52	5.85371738333333
"S200225"	"Response_Inhibition"	"RIGHT"	"RIGHT"	617.843099999959	1333.333336	n/a	n/a	n/a	n/a	n/a	n/a	n/a	"2020-02-25 11:13:18.211067"	"2020-02-25 11:13:19.037005"	53	5.85371738333333
"S200225"	"Response_Inhibition"	"LEFT"	"LEFT"	487.095400000044	783.3333349	n/a	n/a	n/a	n/a	n/a	n/a	n/a	"2020-02-25 11:13:19.829384"	"2020-02-25 11:13:20.525359"	54	5.85371738333333
"S200225"	"Response_Inhibition"	"RIGHT"	"RIGHT"	399.974499999985	766.6666682	n/a	n/a	n/a	n/a	n/a	n/a	n/a	"2020-02-25 11:13:21.301047"	"2020-02-25 11:13:21.907717"	55	5.85371738333333
"S200225"	"Response_Inhibition"	"RIGHT"	"RIGHT"	594.363799999996	750.0000015	n/a	n/a	n/a	n/a	n/a	n/a	n/a	"2020-02-25 11:13:22.666290"	"2020-02-25 11:13:23.469493"	56	5.85371738333333
"S200225"	"Response_Inhibition"	"RIGHT"	"RIGHT"	291.622099999927	1066.6666688	n/a	n/a	n/a	n/a	n/a	n/a	n/a	"2020-02-25 11:13:24.545034"	"2020-02-25 11:13:25.044170"	57	5.85371738333333
"S200225"	"Response_Inhibition"	"RIGHT"	"Time_Max_Exceeded"	1500.04763360001	1433.3333362	n/a	n/a	n/a	n/a	n/a	n/a	n/a	"2020-02-25 11:13:26.485605"	"2020-02-25 11:13:27.988978"	58	5.85371738333333
"S200225"	"Response_Inhibition"	"LEFT"	"LEFT"	474.591099999998	866.6666684	n/a	n/a	n/a	n/a	n/a	n/a	n/a	"2020-02-25 11:13:28.865586"	"2020-02-25 11:13:29.549278"	59	5.85371738333333
"S200225"	"Response_Inhibition"	"LEFT"	"LEFT"	463.312100000053	583.3333345	n/a	n/a	n/a	n/a	n/a	n/a	n/a	"2020-02-25 11:13:30.141729"	"2020-02-25 11:13:30.812820"	60	5.85371738333333
"S200225"	"Response_Inhibition"	"LEFT"	"Time_Max_Exceeded"	1500.04910029998	833.333335	n/a	n/a	n/a	n/a	n/a	n/a	n/a	"2020-02-25 11:13:31.654586"	"2020-02-25 11:13:33.158404"	61	5.85371738333333
"S200225"	"Response_Inhibition"	"RIGHT"	"RIGHT"	398.845600000072	950.0000019	n/a	n/a	n/a	n/a	n/a	n/a	n/a	"2020-02-25 11:13:34.118289"	"2020-02-25 11:13:34.725525"	62	5.85371738333333
"S200225"	"Response_Inhibition"	"LEFT"	"Time_Max_Exceeded"	1500.05750009996	616.6666679	n/a	n/a	n/a	n/a	n/a	n/a	n/a	"2020-02-25 11:13:35.350810"	"2020-02-25 11:13:36.853931"	63	5.85371738333333
"S200225"	"Response_Inhibition"	"LEFT"	"LEFT"	609.388899999999	700.0000014	n/a	n/a	n/a	n/a	n/a	n/a	n/a	"2020-02-25 11:13:37.563090"	"2020-02-25 11:13:38.380474"	64	5.85371738333333
"S200225"	"Response_Inhibition"	"LEFT"	"LEFT"	653.916699999968	633.3333346	n/a	n/a	n/a	n/a	n/a	n/a	n/a	"2020-02-25 11:13:39.022734"	"2020-02-25 11:13:39.885450"	65	5.85371738333333
"S200225"	"Response_Inhibition"	"LEFT"	"LEFT"	374.709300400018	716.6666681	n/a	n/a	n/a	n/a	n/a	n/a	n/a	"2020-02-25 11:13:40.610547"	"2020-02-25 11:13:41.197435"	66	5.85371738333333
"S200225"	"Response_Inhibition"	"LEFT"	"LEFT"	588.561199999958	1250.0000025	n/a	n/a	n/a	n/a	n/a	n/a	n/a	"2020-02-25 11:13:42.456112"	"2020-02-25 11:13:43.253240"	67	5.85371738333333
"S200225"	"Response_Inhibition"	"LEFT"	"Time_Max_Exceeded"	1500.05600020006	1433.3333362	n/a	n/a	n/a	n/a	n/a	n/a	n/a	"2020-02-25 11:13:44.694936"	"2020-02-25 11:13:46.198952"	68	5.85371738333333
"S200225"	"Response_Inhibition"	"LEFT"	"LEFT"	453.231500000015	1000.000002	n/a	n/a	n/a	n/a	n/a	n/a	n/a	"2020-02-25 11:13:47.207299"	"2020-02-25 11:13:47.869253"	69	5.85371738333333
"S200225"	"Response_Inhibition"	"RIGHT"	"RIGHT"	351.544500000045	1383.3333361	n/a	n/a	n/a	n/a	n/a	n/a	n/a	"2020-02-25 11:13:49.261182"	"2020-02-25 11:13:49.820210"	70	5.85371738333333
"S200225"	"Response_Inhibition"	"LEFT"	"LEFT"	551.511000000005	1216.6666691	n/a	n/a	n/a	n/a	n/a	n/a	n/a	"2020-02-25 11:13:51.044964"	"2020-02-25 11:13:51.804224"	71	5.85371738333333
"S200225"	"Response_Inhibition"	"LEFT"	"Time_Max_Exceeded"	1500.06469999994	800.0000016	n/a	n/a	n/a	n/a	n/a	n/a	n/a	"2020-02-25 11:13:52.612578"	"2020-02-25 11:13:54.112688"	72	5.85371738333333
"S200225"	"Response_Inhibition"	"LEFT"	"LEFT"	619.68180000008	1366.6666694	n/a	n/a	n/a	n/a	n/a	n/a	n/a	"2020-02-25 11:13:55.489151"	"2020-02-25 11:13:56.316451"	73	5.85371738333333
"S200225"	"Response_Inhibition"	"RIGHT"	"RIGHT"	349.298900000008	1250.0000025	n/a	n/a	n/a	n/a	n/a	n/a	n/a	"2020-02-25 11:13:57.574733"	"2020-02-25 11:13:58.133490"	74	5.85371738333333
"S200225"	"Response_Inhibition"	"RIGHT"	"RIGHT"	398.507500000051	1400.0000028	n/a	n/a	n/a	n/a	n/a	n/a	n/a	"2020-02-25 11:13:59.542271"	"2020-02-25 11:14:00.149303"	75	5.85371738333333
"S200225"	"Response_Inhibition"	"LEFT"	"Time_Max_Exceeded"	1500.05080029996	1283.3333359	n/a	n/a	n/a	n/a	n/a	n/a	n/a	"2020-02-25 11:14:01.441368"	"2020-02-25 11:14:02.944511"	76	5.85371738333333
"S200225"	"Response_Inhibition"	"RIGHT"	"RIGHT"	323.384933500015	1500.000003	n/a	n/a	n/a	n/a	n/a	n/a	n/a	"2020-02-25 11:14:04.454038"	"2020-02-25 11:14:04.989291"	77	5.85371738333333
"S200225"	"Response_Inhibition"	"LEFT"	"Time_Max_Exceeded"	1500.05230049999	983.3333353	n/a	n/a	n/a	n/a	n/a	n/a	n/a	"2020-02-25 11:14:05.981264"	"2020-02-25 11:14:07.484783"	78	5.85371738333333
"S200225"	"Response_Inhibition"	"RIGHT"	"RIGHT"	504.989600000044	933.3333352	n/a	n/a	n/a	n/a	n/a	n/a	n/a	"2020-02-25 11:14:08.427939"	"2020-02-25 11:14:09.141062"	79	5.85371738333333
"S200225"	"Response_Inhibition"	"RIGHT"	"RIGHT"	445.553500000074	833.333335	n/a	n/a	n/a	n/a	n/a	n/a	n/a	"2020-02-25 11:14:09.982479"	"2020-02-25 11:14:10.636991"	80	5.85371738333333
"S200225"	"Response_Inhibition"	"LEFT"	"LEFT"	728.064600000039	750.0000015	n/a	n/a	n/a	n/a	n/a	n/a	n/a	"2020-02-25 11:14:11.396951"	"2020-02-25 11:14:12.332201"	81	5.85371738333333
"S200225"	"Response_Inhibition"	"RIGHT"	"RIGHT"	489.841800000022	1150.0000023	n/a	n/a	n/a	n/a	n/a	n/a	n/a	"2020-02-25 11:14:13.491080"	"2020-02-25 11:14:14.189273"	82	5.85371738333333
"S200225"	"Response_Inhibition"	"RIGHT"	"Time_Max_Exceeded"	1500.05843339996	566.6666678	n/a	n/a	n/a	n/a	n/a	n/a	n/a	"2020-02-25 11:14:14.764756"	"2020-02-25 11:14:16.267860"	83	5.85371738333333
"S200225"	"Response_Inhibition"	"LEFT"	"Time_Max_Exceeded"	1500.05373339999	1216.6666691	n/a	n/a	n/a	n/a	n/a	n/a	n/a	"2020-02-25 11:14:17.494093"	"2020-02-25 11:14:18.997631"	84	5.85371738333333
"S200225"	"Response_Inhibition"	"RIGHT"	"Time_Max_Exceeded"	1500.05433340001	1366.6666694	n/a	n/a	n/a	n/a	n/a	n/a	n/a	"2020-02-25 11:14:20.374154"	"2020-02-25 11:14:21.876861"	85	5.85371738333333
"S200225"	"Response_Inhibition"	"LEFT"	"LEFT"	725.530499999991	816.6666683	n/a	n/a	n/a	n/a	n/a	n/a	n/a	"2020-02-25 11:14:22.702534"	"2020-02-25 11:14:23.636961"	86	5.85371738333333
"S200225"	"Response_Inhibition"	"RIGHT"	"Time_Max_Exceeded"	1500.05126700004	950.0000019	n/a	n/a	n/a	n/a	n/a	n/a	n/a	"2020-02-25 11:14:24.595887"	"2020-02-25 11:14:26.098441"	87	5.85371738333333
"S200225"	"Response_Inhibition"	"RIGHT"	"RIGHT"	683.392100000106	733.3333348	n/a	n/a	n/a	n/a	n/a	n/a	n/a	"2020-02-25 11:14:26.841532"	"2020-02-25 11:14:27.733143"	88	5.85371738333333
"S200225"	"Response_Inhibition"	"LEFT"	"Time_Max_Exceeded"	1500.06250060006	883.3333351	n/a	n/a	n/a	n/a	n/a	n/a	n/a	"2020-02-25 11:14:28.625313"	"2020-02-25 11:14:30.128330"	89	5.85371738333333
"S200225"	"Response_Inhibition"	"LEFT"	"Time_Max_Exceeded"	1500.05016710001	950.0000019	n/a	n/a	n/a	n/a	n/a	n/a	n/a	"2020-02-25 11:14:31.087318"	"2020-02-25 11:14:32.590404"	90	5.85371738333333
"S200225"	"Response_Inhibition"	"LEFT"	"LEFT"	584.413799999993	1300.0000026	n/a	n/a	n/a	n/a	n/a	n/a	n/a	"2020-02-25 11:14:33.899668"	"2020-02-25 11:14:34.691727"	91	5.85371738333333
"S200225"	"Response_Inhibition"	"RIGHT"	"Time_Max_Exceeded"	1500.06156720001	1466.6666696	n/a	n/a	n/a	n/a	n/a	n/a	n/a	"2020-02-25 11:14:36.167794"	"2020-02-25 11:14:37.671352"	92	5.85371738333333
"S200225"	"Response_Inhibition"	"LEFT"	"LEFT"	606.054800000038	1150.0000023	n/a	n/a	n/a	n/a	n/a	n/a	n/a	"2020-02-25 11:14:38.830406"	"2020-02-25 11:14:39.645262"	93	5.85371738333333
"S200225"	"Response_Inhibition"	"LEFT"	"LEFT"	655.740100000003	1366.6666694	n/a	n/a	n/a	n/a	n/a	n/a	n/a	"2020-02-25 11:14:41.020629"	"2020-02-25 11:14:41.885357"	94	5.85371738333333
"S200225"	"Response_Inhibition"	"RIGHT"	"Time_Max_Exceeded"	1500.05836689995	1366.6666694	n/a	n/a	n/a	n/a	n/a	n/a	n/a	"2020-02-25 11:14:43.261293"	"2020-02-25 11:14:44.764034"	95	5.85371738333333
"S200225"	"Response_Inhibition"	"RIGHT"	"RIGHT"	614.645499999938	1016.6666687	n/a	n/a	n/a	n/a	n/a	n/a	n/a	"2020-02-25 11:14:45.789923"	"2020-02-25 11:14:46.612893"	96	5.85371738333333
"S200225"	"Response_Inhibition"	"LEFT"	"LEFT"	652.436200000011	666.666668	n/a	n/a	n/a	n/a	n/a	n/a	n/a	"2020-02-25 11:14:47.288569"	"2020-02-25 11:14:48.149095"	97	5.85371738333333
"S200225"	"Response_Inhibition"	"RIGHT"	"RIGHT"	546.397599999978	900.0000018	n/a	n/a	n/a	n/a	n/a	n/a	n/a	"2020-02-25 11:14:49.057688"	"2020-02-25 11:14:49.812003"	98	5.85371738333333
"S200225"	"Response_Inhibition"	"RIGHT"	"Time_Max_Exceeded"	1500.06283359991	1100.0000022	n/a	n/a	n/a	n/a	n/a	n/a	n/a	"2020-02-25 11:14:50.920133"	"2020-02-25 11:14:52.424346"	99	5.85371738333333
"S200225"	"Response_Inhibition"	"LEFT"	"LEFT"	607.486200000039	900.0000018	n/a	n/a	n/a	n/a	n/a	n/a	n/a	"2020-02-25 11:14:53.332733"	"2020-02-25 11:14:54.148724"	100	5.85371738333333
"S200225"	"Response_Inhibition"	"RIGHT"	"Time_Max_Exceeded"	1500.05916670004	1233.3333358	n/a	n/a	n/a	n/a	n/a	n/a	n/a	"2020-02-25 11:14:55.391969"	"2020-02-25 11:14:56.895878"	101	5.85371738333333
"S200225"	"Response_Inhibition"	"RIGHT"	"Time_Max_Exceeded"	1500.06256689998	733.3333348	n/a	n/a	n/a	n/a	n/a	n/a	n/a	"2020-02-25 11:14:57.637414"	"2020-02-25 11:14:59.141433"	102	5.85371738333333
"S200225"	"Response_Inhibition"	"LEFT"	"LEFT"	521.845600000006	1116.6666689	n/a	n/a	n/a	n/a	n/a	n/a	n/a	"2020-02-25 11:15:00.267186"	"2020-02-25 11:15:00.997282"	103	5.85371738333333
"S200225"	"Response_Inhibition"	"LEFT"	"LEFT"	532.678199999964	1416.6666695	n/a	n/a	n/a	n/a	n/a	n/a	n/a	"2020-02-25 11:15:02.423497"	"2020-02-25 11:15:03.163844"	104	5.85371738333333
"S200225"	"Response_Inhibition"	"RIGHT"	"RIGHT"	744.978100000026	550.0000011	n/a	n/a	n/a	n/a	n/a	n/a	n/a	"2020-02-25 11:15:03.723966"	"2020-02-25 11:15:04.676336"	105	5.85371738333333
"S200225"	"Response_Inhibition"	"LEFT"	"LEFT"	391.010100000017	1016.6666687	n/a	n/a	n/a	n/a	n/a	n/a	n/a	"2020-02-25 11:15:05.701262"	"2020-02-25 11:15:06.299996"	106	5.85371738333333
"S200225"	"Response_Inhibition"	"RIGHT"	"RIGHT"	465.590900000052	1133.3333356	n/a	n/a	n/a	n/a	n/a	n/a	n/a	"2020-02-25 11:15:07.442722"	"2020-02-25 11:15:08.115974"	107	5.85371738333333
"S200225"	"Response_Inhibition"	"LEFT"	"LEFT"	497.312599999987	966.6666686	n/a	n/a	n/a	n/a	n/a	n/a	n/a	"2020-02-25 11:15:09.091356"	"2020-02-25 11:15:09.795978"	108	5.85371738333333
"S200225"	"Response_Inhibition"	"RIGHT"	"RIGHT"	502.112399999987	616.6666679	n/a	n/a	n/a	n/a	n/a	n/a	n/a	"2020-02-25 11:15:10.422325"	"2020-02-25 11:15:11.133520"	109	5.85371738333333
"S200225"	"Response_Inhibition"	"LEFT"	"Time_Max_Exceeded"	1500.07746680005	1466.6666696	n/a	n/a	n/a	n/a	n/a	n/a	n/a	"2020-02-25 11:15:12.608705"	"2020-02-25 11:15:14.111804"	110	5.85371738333333
"S200225"	"Response_Inhibition"	"LEFT"	"LEFT"	723.507199999972	600.0000012	n/a	n/a	n/a	n/a	n/a	n/a	n/a	"2020-02-25 11:15:14.721123"	"2020-02-25 11:15:15.653376"	111	5.85371738333333
"S200225"	"Response_Inhibition"	"RIGHT"	"RIGHT"	418.031400000018	1316.6666693	n/a	n/a	n/a	n/a	n/a	n/a	n/a	"2020-02-25 11:15:16.978377"	"2020-02-25 11:15:17.603923"	112	5.85371738333333
"S200225"	"Response_Inhibition"	"RIGHT"	"Time_Max_Exceeded"	1500.06206679999	916.6666685	n/a	n/a	n/a	n/a	n/a	n/a	n/a	"2020-02-25 11:15:18.529154"	"2020-02-25 11:15:20.032064"	113	5.85371738333333
"S200225"	"Response_Inhibition"	"RIGHT"	"RIGHT"	553.221833899979	1166.666669	n/a	n/a	n/a	n/a	n/a	n/a	n/a	"2020-02-25 11:15:21.207956"	"2020-02-25 11:15:21.973323"	114	5.85371738333333
"S200225"	"Response_Inhibition"	"LEFT"	"Time_Max_Exceeded"	1500.05033359999	1383.3333361	n/a	n/a	n/a	n/a	n/a	n/a	n/a	"2020-02-25 11:15:23.366170"	"2020-02-25 11:15:24.868749"	115	5.85371738333333
"S200225"	"Response_Inhibition"	"RIGHT"	"RIGHT"	515.372400000047	866.6666684	n/a	n/a	n/a	n/a	n/a	n/a	n/a	"2020-02-25 11:15:25.745077"	"2020-02-25 11:15:26.468142"	116	5.85371738333333
"S200225"	"Response_Inhibition"	"LEFT"	"Time_Max_Exceeded"	1500.05583380001	766.6666682	n/a	n/a	n/a	n/a	n/a	n/a	n/a	"2020-02-25 11:15:27.243123"	"2020-02-25 11:15:28.747139"	117	5.85371738333333
"S200225"	"Response_Inhibition"	"RIGHT"	"RIGHT"	628.57919999999	1083.3333355	n/a	n/a	n/a	n/a	n/a	n/a	n/a	"2020-02-25 11:15:29.840235"	"2020-02-25 11:15:30.676751"	118	5.85371738333333
"S200225"	"Response_Inhibition"	"RIGHT"	"Time_Max_Exceeded"	1500.05703380006	716.6666681	n/a	n/a	n/a	n/a	n/a	n/a	n/a	"2020-02-25 11:15:31.403780"	"2020-02-25 11:15:32.906837"	119	5.85371738333333
"S200225"	"Response_Inhibition"	"LEFT"	"LEFT"	668.688699999961	500.000001	n/a	n/a	n/a	n/a	n/a	n/a	n/a	"2020-02-25 11:15:33.415991"	"2020-02-25 11:15:34.292916"	120	5.85371738333333
"S200225"	"Response_Inhibition"	"RIGHT"	"Time_Max_Exceeded"	1500.05646699996	1100.0000022	n/a	n/a	n/a	n/a	n/a	n/a	n/a	"2020-02-25 11:15:35.401016"	"2020-02-25 11:15:36.904580"	121	5.85371738333333
"S200225"	"Response_Inhibition"	"RIGHT"	"RIGHT"	584.387100000072	1466.6666696	n/a	n/a	n/a	n/a	n/a	n/a	n/a	"2020-02-25 11:15:38.380316"	"2020-02-25 11:15:39.173064"	122	5.85371738333333
"S200225"	"Response_Inhibition"	"LEFT"	"Time_Max_Exceeded"	1500.0463672	533.3333344	n/a	n/a	n/a	n/a	n/a	n/a	n/a	"2020-02-25 11:15:39.714679"	"2020-02-25 11:15:41.218739"	123	5.85371738333333
"S200225"	"Response_Inhibition"	"RIGHT"	"RIGHT"	639.005500000053	1050.0000021	n/a	n/a	n/a	n/a	n/a	n/a	n/a	"2020-02-25 11:15:42.277739"	"2020-02-25 11:15:43.124291"	124	5.85371738333333
"S200225"	"Response_Inhibition"	"LEFT"	"Time_Max_Exceeded"	1500.05763370003	1183.3333357	n/a	n/a	n/a	n/a	n/a	n/a	n/a	"2020-02-25 11:15:44.315664"	"2020-02-25 11:15:45.819842"	125	5.85371738333333
"S200225"	"Response_Inhibition"	"LEFT"	"LEFT"	630.061999999953	850.0000017	n/a	n/a	n/a	n/a	n/a	n/a	n/a	"2020-02-25 11:15:46.678252"	"2020-02-25 11:15:47.517473"	126	5.85371738333333
"S200225"	"Response_Inhibition"	"LEFT"	"Time_Max_Exceeded"	1500.07140000002	916.6666685	n/a	n/a	n/a	n/a	n/a	n/a	n/a	"2020-02-25 11:15:48.442586"	"2020-02-25 11:15:49.942985"	127	5.85371738333333
"S200225"	"Response_Inhibition"	"LEFT"	"LEFT"	680.062000000021	516.6666677	n/a	n/a	n/a	n/a	n/a	n/a	n/a	"2020-02-25 11:15:50.468647"	"2020-02-25 11:15:51.356242"	128	5.85371738333333
"S200225"	"Response_Inhibition"	"RIGHT"	"Time_Max_Exceeded"	1500.05020020001	1050.0000021	n/a	n/a	n/a	n/a	n/a	n/a	n/a	"2020-02-25 11:15:52.415435"	"2020-02-25 11:15:53.918470"	129	5.85371738333333
"S200225"	"Response_Inhibition"	"RIGHT"	"Time_Max_Exceeded"	1500.05280050005	800.0000016	n/a	n/a	n/a	n/a	n/a	n/a	n/a	"2020-02-25 11:15:54.727573"	"2020-02-25 11:15:56.231086"	130	5.85371738333333
"S200225"	"Response_Inhibition"	"LEFT"	"LEFT"	478.724800000009	933.3333352	n/a	n/a	n/a	n/a	n/a	n/a	n/a	"2020-02-25 11:15:57.173815"	"2020-02-25 11:15:57.859705"	131	5.85371738333333
"S200225"	"Response_Inhibition"	"LEFT"	"Time_Max_Exceeded"	1500.04540010002	1316.6666693	n/a	n/a	n/a	n/a	n/a	n/a	n/a	"2020-02-25 11:15:59.185775"	"2020-02-25 11:16:00.688441"	132	5.85371738333333
"S200225"	"Response_Inhibition"	"RIGHT"	"RIGHT"	496.561999999926	1450.0000029	n/a	n/a	n/a	n/a	n/a	n/a	n/a	"2020-02-25 11:16:02.148120"	"2020-02-25 11:16:02.852561"	133	5.85371738333333
"S200225"	"Response_Inhibition"	"LEFT"	"LEFT"	572.174699999891	1083.3333355	n/a	n/a	n/a	n/a	n/a	n/a	n/a	"2020-02-25 11:16:03.944768"	"2020-02-25 11:16:04.724729"	134	5.85371738333333
"S200225"	"Response_Inhibition"	"LEFT"	"LEFT"	417.792099999929	1333.333336	n/a	n/a	n/a	n/a	n/a	n/a	n/a	"2020-02-25 11:16:06.066629"	"2020-02-25 11:16:06.691787"	135	5.85371738333333
"S200225"	"Response_Inhibition"	"LEFT"	"LEFT"	465.617899999984	550.0000011	n/a	n/a	n/a	n/a	n/a	n/a	n/a	"2020-02-25 11:16:07.250945"	"2020-02-25 11:16:07.923761"	136	5.85371738333333
"S200225"	"Response_Inhibition"	"RIGHT"	"Time_Max_Exceeded"	1500.04650049994	1183.3333357	n/a	n/a	n/a	n/a	n/a	n/a	n/a	"2020-02-25 11:16:09.115730"	"2020-02-25 11:16:10.618327"	137	5.85371738333333
"S200225"	"Response_Inhibition"	"LEFT"	"LEFT"	489.886499999898	1166.666669	n/a	n/a	n/a	n/a	n/a	n/a	n/a	"2020-02-25 11:16:11.794874"	"2020-02-25 11:16:12.493012"	138	5.85371738333333
"S200225"	"Response_Inhibition"	"LEFT"	"LEFT"	549.134299999992	633.3333346	n/a	n/a	n/a	n/a	n/a	n/a	n/a	"2020-02-25 11:16:13.135260"	"2020-02-25 11:16:13.892516"	139	5.85371738333333
"S200225"	"Response_Inhibition"	"LEFT"	"Time_Max_Exceeded"	1500.04910040002	650.0000013	n/a	n/a	n/a	n/a	n/a	n/a	n/a	"2020-02-25 11:16:14.550890"	"2020-02-25 11:16:16.053995"	140	5.85371738333333
"S200225"	"Response_Inhibition"	"LEFT"	"Time_Max_Exceeded"	1500.04733390002	1350.0000027	n/a	n/a	n/a	n/a	n/a	n/a	n/a	"2020-02-25 11:16:17.414513"	"2020-02-25 11:16:18.918013"	141	5.85371738333333
"S200225"	"Response_Inhibition"	"LEFT"	"Time_Max_Exceeded"	1500.05503389999	1050.0000021	n/a	n/a	n/a	n/a	n/a	n/a	n/a	"2020-02-25 11:16:19.977240"	"2020-02-25 11:16:21.480183"	142	5.85371738333333
"S200225"	"Response_Inhibition"	"LEFT"	"LEFT"	689.518999999905	1233.3333358	n/a	n/a	n/a	n/a	n/a	n/a	n/a	"2020-02-25 11:16:22.723331"	"2020-02-25 11:16:23.621325"	143	5.85371738333333
"S200225"	"Response_Inhibition"	"LEFT"	"LEFT"	993.484699999954	533.3333344	n/a	n/a	n/a	n/a	n/a	n/a	n/a	"2020-02-25 11:16:24.162878"	"2020-02-25 11:16:25.363660"	144	5.85371738333333
"S200225"	"Response_Inhibition"	"LEFT"	"Time_Max_Exceeded"	1500.0598669	1133.3333356	n/a	n/a	n/a	n/a	n/a	n/a	n/a	"2020-02-25 11:16:26.505078"	"2020-02-25 11:16:28.008604"	145	5.85371738333333
"S200225"	"Response_Inhibition"	"RIGHT"	"RIGHT"	831.246899999996	683.3333347	n/a	n/a	n/a	n/a	n/a	n/a	n/a	"2020-02-25 11:16:28.701357"	"2020-02-25 11:16:29.740619"	146	5.85371738333333
"S200225"	"Response_Inhibition"	"RIGHT"	"RIGHT"	475.848100000007	1483.3333363	n/a	n/a	n/a	n/a	n/a	n/a	n/a	"2020-02-25 11:16:31.232525"	"2020-02-25 11:16:31.915702"	147	5.85371738333333
"S200225"	"Response_Inhibition"	"RIGHT"	"Time_Max_Exceeded"	1500.0452335	600.0000012	n/a	n/a	n/a	n/a	n/a	n/a	n/a	"2020-02-25 11:16:32.525262"	"2020-02-25 11:16:34.028157"	148	5.85371738333333
"S200225"	"Response_Inhibition"	"LEFT"	"LEFT"	607.171400000084	783.3333349	n/a	n/a	n/a	n/a	n/a	n/a	n/a	"2020-02-25 11:16:34.821065"	"2020-02-25 11:16:35.636330"	149	5.85371738333333
"S200225"	"Response_Inhibition"	"LEFT"	"LEFT"	853.72719999998	1450.0000029	n/a	n/a	n/a	n/a	n/a	n/a	n/a	"2020-02-25 11:16:37.094788"	"2020-02-25 11:16:38.155996"	150	5.85371738333333
"S200225"	"Response_Inhibition"	"LEFT"	"LEFT"	422.152100000062	850.0000017	n/a	n/a	n/a	n/a	n/a	n/a	n/a	"2020-02-25 11:16:39.014421"	"2020-02-25 11:16:39.643910"	151	5.85371738333333
"S200225"	"Response_Inhibition"	"RIGHT"	"RIGHT"	806.9074	1200.0000024	n/a	n/a	n/a	n/a	n/a	n/a	n/a	"2020-02-25 11:16:40.853869"	"2020-02-25 11:16:41.869235"	152	5.85371738333333
"S200225"	"Response_Inhibition"	"RIGHT"	"RIGHT"	893.562299999985	633.3333346	n/a	n/a	n/a	n/a	n/a	n/a	n/a	"2020-02-25 11:16:42.510600"	"2020-02-25 11:16:43.612187"	153	5.85371738333333
"S200225"	"Response_Inhibition"	"RIGHT"	"Time_Max_Exceeded"	1500.05086679998	1300.0000026	n/a	n/a	n/a	n/a	n/a	n/a	n/a	"2020-02-25 11:16:44.920255"	"2020-02-25 11:16:46.423812"	154	5.85371738333333
"S200225"	"Response_Inhibition"	"LEFT"	"Time_Max_Exceeded"	1500.09506670009	1266.6666692	n/a	n/a	n/a	n/a	n/a	n/a	n/a	"2020-02-25 11:16:47.701125"	"2020-02-25 11:16:49.205494"	155	5.85371738333333
"S200225"	"Response_Inhibition"	"LEFT"	"LEFT"	542.805700000031	566.6666678	n/a	n/a	n/a	n/a	n/a	n/a	n/a	"2020-02-25 11:16:49.781961"	"2020-02-25 11:16:50.533281"	156	5.85371738333333
"S200225"	"Response_Inhibition"	"RIGHT"	"Time_Max_Exceeded"	1500.04940010001	1283.3333359	n/a	n/a	n/a	n/a	n/a	n/a	n/a	"2020-02-25 11:16:51.825343"	"2020-02-25 11:16:53.328455"	157	5.85371738333333
"S200225"	"Response_Inhibition"	"RIGHT"	"RIGHT"	638.24539999996	500.000001	n/a	n/a	n/a	n/a	n/a	n/a	n/a	"2020-02-25 11:16:53.838142"	"2020-02-25 11:16:54.683763"	158	5.85371738333333
"S200225"	"Response_Inhibition"	"LEFT"	"LEFT"	731.393600000047	1500.000003	n/a	n/a	n/a	n/a	n/a	n/a	n/a	"2020-02-25 11:16:56.193451"	"2020-02-25 11:16:57.132497"	159	5.85371738333333
"S200225"	"Response_Inhibition"	"LEFT"	"LEFT"	403.344800000013	900.0000018	n/a	n/a	n/a	n/a	n/a	n/a	n/a	"2020-02-25 11:16:58.041604"	"2020-02-25 11:16:58.652330"	160	5.85371738333333
"S200225"	"Response_Selection"	"LEFT"	"LEFT"	338.307999999984	1300.0000026	n/a	n/a	n/a	n/a	n/a	n/a	n/a	"2020-02-25 11:09:06.962589"	"2020-02-25 11:09:07.509152"	1	2.83672413333333
"S200225"	"Response_Selection"	"RIGHT"	"RIGHT"	283.048899999983	500.000001	n/a	n/a	n/a	n/a	n/a	n/a	n/a	"2020-02-25 11:09:08.017859"	"2020-02-25 11:09:08.509465"	2	2.83672413333333
"S200225"	"Response_Selection"	"LEFT"	"LEFT"	280.960800000003	1316.6666693	n/a	n/a	n/a	n/a	n/a	n/a	n/a	"2020-02-25 11:09:09.835562"	"2020-02-25 11:09:10.324673"	3	2.83672413333333
"S200225"	"Response_Selection"	"LEFT"	"LEFT"	348.908800000004	1083.3333355	n/a	n/a	n/a	n/a	n/a	n/a	n/a	"2020-02-25 11:09:11.416780"	"2020-02-25 11:09:11.974293"	4	2.83672413333333
"S200225"	"Response_Selection"	"LEFT"	"LEFT"	433.126800000025	916.6666685	n/a	n/a	n/a	n/a	n/a	n/a	n/a	"2020-02-25 11:09:12.899804"	"2020-02-25 11:09:13.541099"	5	2.83672413333333
"S200225"	"Response_Selection"	"RIGHT"	"RIGHT"	280.638400000043	966.6666686	n/a	n/a	n/a	n/a	n/a	n/a	n/a	"2020-02-25 11:09:14.516513"	"2020-02-25 11:09:15.005503"	6	2.83672413333333
"S200225"	"Response_Selection"	"LEFT"	"LEFT"	254.714400000012	800.0000016	n/a	n/a	n/a	n/a	n/a	n/a	n/a	"2020-02-25 11:09:15.814341"	"2020-02-25 11:09:16.277465"	7	2.83672413333333
"S200225"	"Response_Selection"	"LEFT"	"LEFT"	329.364200000043	933.3333352	n/a	n/a	n/a	n/a	n/a	n/a	n/a	"2020-02-25 11:09:17.219121"	"2020-02-25 11:09:17.756971"	8	2.83672413333333
"S200225"	"Response_Selection"	"RIGHT"	"RIGHT"	269.985100000042	1016.6666687	n/a	n/a	n/a	n/a	n/a	n/a	n/a	"2020-02-25 11:09:18.782848"	"2020-02-25 11:09:19.260613"	9	2.83672413333333
"S200225"	"Response_Selection"	"LEFT"	"LEFT"	232.415899999978	783.3333349	n/a	n/a	n/a	n/a	n/a	n/a	n/a	"2020-02-25 11:09:20.051998"	"2020-02-25 11:09:20.493288"	10	2.83672413333333
"S200225"	"Response_Selection"	"LEFT"	"LEFT"	326.660699999991	583.3333345	n/a	n/a	n/a	n/a	n/a	n/a	n/a	"2020-02-25 11:09:21.086217"	"2020-02-25 11:09:21.620054"	11	2.83672413333333
"S200225"	"Response_Selection"	"LEFT"	"LEFT"	341.767500000003	1033.3333354	n/a	n/a	n/a	n/a	n/a	n/a	n/a	"2020-02-25 11:09:22.663286"	"2020-02-25 11:09:23.212319"	12	2.83672413333333
"S200225"	"Response_Selection"	"LEFT"	"LEFT"	297.022400000003	966.6666686	n/a	n/a	n/a	n/a	n/a	n/a	n/a	"2020-02-25 11:09:24.187274"	"2020-02-25 11:09:24.692545"	13	2.83672413333333
"S200225"	"Response_Selection"	"RIGHT"	"RIGHT"	262.211500000035	1033.3333354	n/a	n/a	n/a	n/a	n/a	n/a	n/a	"2020-02-25 11:09:25.734309"	"2020-02-25 11:09:26.205095"	14	2.83672413333333
"S200225"	"Response_Selection"	"RIGHT"	"RIGHT"	307.895799999983	883.3333351	n/a	n/a	n/a	n/a	n/a	n/a	n/a	"2020-02-25 11:09:27.096692"	"2020-02-25 11:09:27.613541"	15	2.83672413333333
"S200225"	"Response_Selection"	"RIGHT"	"RIGHT"	307.023300000026	1083.3333355	n/a	n/a	n/a	n/a	n/a	n/a	n/a	"2020-02-25 11:09:28.706134"	"2020-02-25 11:09:29.220875"	16	2.83672413333333
"S200225"	"Response_Selection"	"LEFT"	"LEFT"	297.680700000001	1133.3333356	n/a	n/a	n/a	n/a	n/a	n/a	n/a	"2020-02-25 11:09:30.362778"	"2020-02-25 11:09:30.868870"	17	2.83672413333333
"S200225"	"Response_Selection"	"LEFT"	"LEFT"	312.033299999996	983.3333353	n/a	n/a	n/a	n/a	n/a	n/a	n/a	"2020-02-25 11:09:31.860683"	"2020-02-25 11:09:32.381049"	18	2.83672413333333
"S200225"	"Response_Selection"	"LEFT"	"LEFT"	316.141900000048	1466.6666696	n/a	n/a	n/a	n/a	n/a	n/a	n/a	"2020-02-25 11:09:33.857053"	"2020-02-25 11:09:34.380600"	19	2.83672413333333
"S200225"	"Response_Selection"	"LEFT"	"LEFT"	352.67970000001	1166.666669	n/a	n/a	n/a	n/a	n/a	n/a	n/a	"2020-02-25 11:09:35.555737"	"2020-02-25 11:09:36.117309"	20	2.83672413333333
"S200225"	"Response_Selection"	"RIGHT"	"RIGHT"	249.100100000021	1316.6666693	n/a	n/a	n/a	n/a	n/a	n/a	n/a	"2020-02-25 11:09:37.443831"	"2020-02-25 11:09:37.901172"	21	2.83672413333333
"S200225"	"Response_Selection"	"RIGHT"	"RIGHT"	436.558300000002	866.6666684	n/a	n/a	n/a	n/a	n/a	n/a	n/a	"2020-02-25 11:09:38.775946"	"2020-02-25 11:09:39.421182"	22	2.83672413333333
"S200225"	"Response_Selection"	"RIGHT"	"RIGHT"	281.668599999989	916.6666685	n/a	n/a	n/a	n/a	n/a	n/a	n/a	"2020-02-25 11:09:40.347275"	"2020-02-25 11:09:40.835960"	23	2.83672413333333
"S200225"	"Response_Selection"	"RIGHT"	"RIGHT"	269.832800000017	1066.6666688	n/a	n/a	n/a	n/a	n/a	n/a	n/a	"2020-02-25 11:09:41.910697"	"2020-02-25 11:09:42.389431"	24	2.83672413333333
"S200225"	"Response_Selection"	"RIGHT"	"RIGHT"	314.699500000017	1450.0000029	n/a	n/a	n/a	n/a	n/a	n/a	n/a	"2020-02-25 11:09:43.849694"	"2020-02-25 11:09:44.375263"	25	2.83672413333333
"S200225"	"Response_Selection"	"RIGHT"	"RIGHT"	309.705800000017	750.0000015	n/a	n/a	n/a	n/a	n/a	n/a	n/a	"2020-02-25 11:09:45.135283"	"2020-02-25 11:09:45.653436"	26	2.83672413333333
"S200225"	"Response_Selection"	"RIGHT"	"RIGHT"	285.194900000022	1266.6666692	n/a	n/a	n/a	n/a	n/a	n/a	n/a	"2020-02-25 11:09:46.928056"	"2020-02-25 11:09:47.422511"	27	2.83672413333333
"S200225"	"Response_Selection"	"RIGHT"	"RIGHT"	294.860799999981	1166.666669	n/a	n/a	n/a	n/a	n/a	n/a	n/a	"2020-02-25 11:09:48.598035"	"2020-02-25 11:09:49.101225"	28	2.83672413333333
"S200225"	"Response_Selection"	"LEFT"	"LEFT"	367.097000000001	600.0000012	n/a	n/a	n/a	n/a	n/a	n/a	n/a	"2020-02-25 11:09:49.709598"	"2020-02-25 11:09:50.284862"	29	2.83672413333333
"S200225"	"Response_Selection"	"LEFT"	"LEFT"	271.075400000029	1400.0000028	n/a	n/a	n/a	n/a	n/a	n/a	n/a	"2020-02-25 11:09:51.693664"	"2020-02-25 11:09:52.172716"	30	2.83672413333333
"S200225"	"Response_Selection"	"LEFT"	"LEFT"	257.569100000012	1350.0000027	n/a	n/a	n/a	n/a	n/a	n/a	n/a	"2020-02-25 11:09:53.531449"	"2020-02-25 11:09:53.996614"	31	2.83672413333333
"S200225"	"Response_Selection"	"RIGHT"	"RIGHT"	269.617900000014	1250.0000025	n/a	n/a	n/a	n/a	n/a	n/a	n/a	"2020-02-25 11:09:55.255272"	"2020-02-25 11:09:55.732358"	32	2.83672413333333
"S200225"	"Response_Selection"	"RIGHT"	"RIGHT"	255.243800000017	1216.6666691	n/a	n/a	n/a	n/a	n/a	n/a	n/a	"2020-02-25 11:09:56.957108"	"2020-02-25 11:09:57.420502"	33	2.83672413333333
"S200225"	"Response_Selection"	"RIGHT"	"RIGHT"	289.823599999977	1350.0000027	n/a	n/a	n/a	n/a	n/a	n/a	n/a	"2020-02-25 11:09:58.778868"	"2020-02-25 11:09:59.275891"	34	2.83672413333333
"S200225"	"Response_Selection"	"RIGHT"	"RIGHT"	371.103199999993	533.3333344	n/a	n/a	n/a	n/a	n/a	n/a	n/a	"2020-02-25 11:09:59.817471"	"2020-02-25 11:10:00.395945"	35	2.83672413333333
"S200225"	"Response_Selection"	"RIGHT"	"RIGHT"	271.816700000045	1200.0000024	n/a	n/a	n/a	n/a	n/a	n/a	n/a	"2020-02-25 11:10:01.604753"	"2020-02-25 11:10:02.084631"	36	2.83672413333333
"S200225"	"Response_Selection"	"RIGHT"	"RIGHT"	272.411899999952	583.3333345	n/a	n/a	n/a	n/a	n/a	n/a	n/a	"2020-02-25 11:10:02.676613"	"2020-02-25 11:10:03.157327"	37	2.83672413333333
"S200225"	"Response_Selection"	"RIGHT"	"RIGHT"	279.175599999974	1366.6666694	n/a	n/a	n/a	n/a	n/a	n/a	n/a	"2020-02-25 11:10:04.533721"	"2020-02-25 11:10:05.019958"	38	2.83672413333333
"S200225"	"Response_Selection"	"RIGHT"	"RIGHT"	276.112599999976	1500.000003	n/a	n/a	n/a	n/a	n/a	n/a	n/a	"2020-02-25 11:10:06.528638"	"2020-02-25 11:10:07.011886"	39	2.83672413333333
"S200225"	"Response_Selection"	"LEFT"	"LEFT"	292.502799999966	1500.000003	n/a	n/a	n/a	n/a	n/a	n/a	n/a	"2020-02-25 11:10:08.520453"	"2020-02-25 11:10:09.021329"	40	2.83672413333333
"S200225"	"Response_Selection"	"LEFT"	"LEFT"	308.704000000034	1250.0000025	n/a	n/a	n/a	n/a	n/a	n/a	n/a	"2020-02-25 11:10:10.280514"	"2020-02-25 11:10:10.796821"	41	2.83672413333333
"S200225"	"Response_Selection"	"LEFT"	"LEFT"	271.586899999988	1200.0000024	n/a	n/a	n/a	n/a	n/a	n/a	n/a	"2020-02-25 11:10:12.005726"	"2020-02-25 11:10:12.485442"	42	2.83672413333333
"S200225"	"Response_Selection"	"RIGHT"	"RIGHT"	286.072700000034	800.0000016	n/a	n/a	n/a	n/a	n/a	n/a	n/a	"2020-02-25 11:10:13.294934"	"2020-02-25 11:10:13.789132"	43	2.83672413333333
"S200225"	"Response_Selection"	"LEFT"	"LEFT"	270.331499999998	1216.6666691	n/a	n/a	n/a	n/a	n/a	n/a	n/a	"2020-02-25 11:10:15.014418"	"2020-02-25 11:10:15.493138"	44	2.83672413333333
"S200225"	"Response_Selection"	"LEFT"	"LEFT"	306.545700000015	1116.6666689	n/a	n/a	n/a	n/a	n/a	n/a	n/a	"2020-02-25 11:10:16.618631"	"2020-02-25 11:10:17.133232"	45	2.83672413333333
"S200225"	"Response_Selection"	"LEFT"	"LEFT"	268.687299999954	1450.0000029	n/a	n/a	n/a	n/a	n/a	n/a	n/a	"2020-02-25 11:10:18.591852"	"2020-02-25 11:10:19.069141"	46	2.83672413333333
"S200225"	"Response_Selection"	"LEFT"	"LEFT"	268.607999999972	866.6666684	n/a	n/a	n/a	n/a	n/a	n/a	n/a	"2020-02-25 11:10:19.944740"	"2020-02-25 11:10:20.421528"	47	2.83672413333333
"S200225"	"Response_Selection"	"RIGHT"	"RIGHT"	282.645400000035	1300.0000026	n/a	n/a	n/a	n/a	n/a	n/a	n/a	"2020-02-25 11:10:21.730570"	"2020-02-25 11:10:22.220876"	48	2.83672413333333
"S200225"	"Response_Selection"	"LEFT"	"LEFT"	329.328199999964	750.0000015	n/a	n/a	n/a	n/a	n/a	n/a	n/a	"2020-02-25 11:10:22.979319"	"2020-02-25 11:10:23.517247"	49	2.83672413333333
"S200225"	"Response_Selection"	"LEFT"	"LEFT"	339.284999999961	700.0000014	n/a	n/a	n/a	n/a	n/a	n/a	n/a	"2020-02-25 11:10:24.225895"	"2020-02-25 11:10:24.772683"	50	2.83672413333333
"S200225"	"Response_Selection"	"LEFT"	"LEFT"	318.570000000022	833.333335	n/a	n/a	n/a	n/a	n/a	n/a	n/a	"2020-02-25 11:10:25.614424"	"2020-02-25 11:10:26.140239"	51	2.83672413333333
"S200225"	"Response_Selection"	"LEFT"	"LEFT"	355.410899999981	500.000001	n/a	n/a	n/a	n/a	n/a	n/a	n/a	"2020-02-25 11:10:26.649404"	"2020-02-25 11:10:27.212526"	52	2.83672413333333
"S200225"	"Response_Selection"	"LEFT"	"LEFT"	294.438599999978	633.3333346	n/a	n/a	n/a	n/a	n/a	n/a	n/a	"2020-02-25 11:10:27.854165"	"2020-02-25 11:10:28.356941"	53	2.83672413333333
"S200225"	"Response_Selection"	"RIGHT"	"RIGHT"	252.409499999999	1466.6666696	n/a	n/a	n/a	n/a	n/a	n/a	n/a	"2020-02-25 11:10:29.832525"	"2020-02-25 11:10:30.292870"	54	2.83672413333333
"S200225"	"Response_Selection"	"RIGHT"	"RIGHT"	329.475000000002	550.0000011	n/a	n/a	n/a	n/a	n/a	n/a	n/a	"2020-02-25 11:10:30.851424"	"2020-02-25 11:10:31.388930"	55	2.83672413333333
"S200225"	"Response_Selection"	"RIGHT"	"RIGHT"	239.899900000012	783.3333349	n/a	n/a	n/a	n/a	n/a	n/a	n/a	"2020-02-25 11:10:32.180812"	"2020-02-25 11:10:32.628277"	56	2.83672413333333
"S200225"	"Response_Selection"	"LEFT"	"LEFT"	377.584899999988	550.0000011	n/a	n/a	n/a	n/a	n/a	n/a	n/a	"2020-02-25 11:10:33.186858"	"2020-02-25 11:10:33.771629"	57	2.83672413333333
"S200225"	"Response_Selection"	"RIGHT"	"RIGHT"	275.421699999981	1133.3333356	n/a	n/a	n/a	n/a	n/a	n/a	n/a	"2020-02-25 11:10:34.913122"	"2020-02-25 11:10:35.396707"	58	2.83672413333333
"S200225"	"Response_Selection"	"RIGHT"	"RIGHT"	326.685399999974	1416.6666695	n/a	n/a	n/a	n/a	n/a	n/a	n/a	"2020-02-25 11:10:36.822002"	"2020-02-25 11:10:37.357095"	59	2.83672413333333
"S200225"	"Response_Selection"	"LEFT"	"LEFT"	315.695799999958	650.0000013	n/a	n/a	n/a	n/a	n/a	n/a	n/a	"2020-02-25 11:10:38.017331"	"2020-02-25 11:10:38.540333"	60	2.83672413333333
"S200225"	"Response_Selection"	"RIGHT"	"RIGHT"	325.869399999988	650.0000013	n/a	n/a	n/a	n/a	n/a	n/a	n/a	"2020-02-25 11:10:39.198659"	"2020-02-25 11:10:39.733262"	61	2.83672413333333
"S200225"	"Response_Selection"	"RIGHT"	"RIGHT"	318.920300000002	1400.0000028	n/a	n/a	n/a	n/a	n/a	n/a	n/a	"2020-02-25 11:10:41.141595"	"2020-02-25 11:10:41.668191"	62	2.83672413333333
"S200225"	"Response_Selection"	"LEFT"	"LEFT"	289.568200000019	1366.6666694	n/a	n/a	n/a	n/a	n/a	n/a	n/a	"2020-02-25 11:10:43.043559"	"2020-02-25 11:10:43.541240"	63	2.83672413333333
"S200225"	"Response_Selection"	"RIGHT"	"RIGHT"	395.615899999996	683.3333347	n/a	n/a	n/a	n/a	n/a	n/a	n/a	"2020-02-25 11:10:44.233428"	"2020-02-25 11:10:44.835774"	64	2.83672413333333
"S200225"	"Response_Selection"	"RIGHT"	"RIGHT"	455.509400000039	633.3333346	n/a	n/a	n/a	n/a	n/a	n/a	n/a	"2020-02-25 11:10:45.477523"	"2020-02-25 11:10:46.141369"	65	2.83672413333333
"S200225"	"Response_Selection"	"LEFT"	"LEFT"	269.819199999972	1416.6666695	n/a	n/a	n/a	n/a	n/a	n/a	n/a	"2020-02-25 11:10:47.567091"	"2020-02-25 11:10:48.044058"	66	2.83672413333333
"S200225"	"Response_Selection"	"RIGHT"	"RIGHT"	242.661499999997	933.3333352	n/a	n/a	n/a	n/a	n/a	n/a	n/a	"2020-02-25 11:10:48.986167"	"2020-02-25 11:10:49.436477"	67	2.83672413333333
"S200225"	"Response_Selection"	"RIGHT"	"RIGHT"	286.271699999986	833.333335	n/a	n/a	n/a	n/a	n/a	n/a	n/a	"2020-02-25 11:10:50.278330"	"2020-02-25 11:10:50.773059"	68	2.83672413333333
"S200225"	"Response_Selection"	"RIGHT"	"RIGHT"	275.023599999997	700.0000014	n/a	n/a	n/a	n/a	n/a	n/a	n/a	"2020-02-25 11:10:51.481881"	"2020-02-25 11:10:51.965248"	69	2.83672413333333
"S200225"	"Response_Selection"	"RIGHT"	"RIGHT"	313.672600000018	1116.6666689	n/a	n/a	n/a	n/a	n/a	n/a	n/a	"2020-02-25 11:10:53.091328"	"2020-02-25 11:10:53.612240"	70	2.83672413333333
"S200225"	"Response_Selection"	"LEFT"	"LEFT"	260.884800000042	883.3333351	n/a	n/a	n/a	n/a	n/a	n/a	n/a	"2020-02-25 11:10:54.503912"	"2020-02-25 11:10:54.972639"	71	2.83672413333333
"S200225"	"Response_Selection"	"LEFT"	"LEFT"	318.503700000008	1016.6666687	n/a	n/a	n/a	n/a	n/a	n/a	n/a	"2020-02-25 11:10:55.997921"	"2020-02-25 11:10:56.523649"	72	2.83672413333333
"S200225"	"Response_Selection"	"LEFT"	"LEFT"	277.837900000009	1066.6666688	n/a	n/a	n/a	n/a	n/a	n/a	n/a	"2020-02-25 11:10:57.599248"	"2020-02-25 11:10:58.083668"	73	2.83672413333333
"S200225"	"Response_Selection"	"LEFT"	"LEFT"	227.066800000046	733.3333348	n/a	n/a	n/a	n/a	n/a	n/a	n/a	"2020-02-25 11:10:58.825768"	"2020-02-25 11:10:59.261343"	74	2.83672413333333
"S200225"	"Response_Selection"	"LEFT"	"LEFT"	324.24420000001	1266.6666692	n/a	n/a	n/a	n/a	n/a	n/a	n/a	"2020-02-25 11:11:00.536080"	"2020-02-25 11:11:01.068033"	75	2.83672413333333
"S200225"	"Response_Selection"	"RIGHT"	"RIGHT"	338.592100000028	733.3333348	n/a	n/a	n/a	n/a	n/a	n/a	n/a	"2020-02-25 11:11:01.809674"	"2020-02-25 11:11:02.355787"	76	2.83672413333333
"S200225"	"Response_Selection"	"LEFT"	"LEFT"	348.674799999969	683.3333347	n/a	n/a	n/a	n/a	n/a	n/a	n/a	"2020-02-25 11:11:03.048534"	"2020-02-25 11:11:03.603828"	77	2.83672413333333
"S200225"	"Response_Selection"	"LEFT"	"LEFT"	409.082699999999	533.3333344	n/a	n/a	n/a	n/a	n/a	n/a	n/a	"2020-02-25 11:11:04.146924"	"2020-02-25 11:11:04.765360"	78	2.83672413333333
"S200225"	"Response_Selection"	"RIGHT"	"RIGHT"	271.538700000008	983.3333353	n/a	n/a	n/a	n/a	n/a	n/a	n/a	"2020-02-25 11:11:05.756754"	"2020-02-25 11:11:06.237001"	79	2.83672413333333
"S200225"	"Response_Selection"	"RIGHT"	"RIGHT"	311.225000000036	600.0000012	n/a	n/a	n/a	n/a	n/a	n/a	n/a	"2020-02-25 11:11:06.845883"	"2020-02-25 11:11:07.365548"	80	2.83672413333333
