index	Trial_Type	Participant_ID	Trial_Probability	Question_Position_Prediction_Correct	Question_Position_Prediction_Agent	Question_Position_Comparison_Self	Question_Position_Comparison_Irrelevant	Trial_Stake	Trial_Stake_Jitter	Trial_Type_Jitter	Trial_Result_Jitter	Balance_Update_Jitter	Question_Comparison_Condition	Question_Comparison_Type	Question_Comparison_Question	Question_Comparison_Label	Question_Comparison_Item	Question_Comparison_Proportion_Yes	Question_Factual_Condition	Question_Factual_Item	Question_Factual_Question	Question_Factual_Label	Question_Factual_Proportion_DontKnow	Question_Factual_Type	Answer_Prediction_Agent	Answer_Prediction_Agent_RT	Answer_Prediction_Correct	Answer_Prediction_Correct_RT	Answer_Self	Answer_Self_RT	Answer_Irrelevant	Answer_Irrelevant_RT	Trial_Balance	Trial_Balance_Effect	Trial_Condition	Trial_ProbableSide	Prediction_Choice	Prediction_Result	Prediction_RT	Trial_Order	Trial_Datetime
10	Self	S200303	0.5	2	1	1	2	0.6	1283.3333359	1433.3333362	1933.3333372	1500.000003	Minor	Good_deeds	28	You have started a hotline for victims of bully	C1_35	0.0	Easy	I2_48	50	Nanyang Technological University is in Australia	0.0	Yes	RIGHT	603.7969999999859	RIGHT	448.4654000000319	LEFT	1341.5132999999742	LEFT	1495.5678000000034	10.6	0.6	Probable_Truth	LEFT	RIGHT	4	906.0763999999608	0	2020-03-03 14:27:49.042416
31	Self	S200303	0.6666666666666666	2	1	2	1	0.5	1283.3333359	1500.000003	1933.3333372	1783.3333369	Minor	Good_deeds	50	You have followed instructions	C2_30	0.5	Hard	I2_60	42	Dutch is the 6th Europe's most widely spoken language	0.888888888888889	Yes	LEFT	668.1467999999313	LEFT	928.179499999942	RIGHT	1183.4956999999804	LEFT	2331.1592999999675	10.6	0.5	Probable_Lie	RIGHT	RIGHT	1	714.6023000000241	1	2020-03-03 14:28:13.939370
34	Self	S200303	0.8333333333333334	1	2	1	2	0.5	1283.3333359	1066.6666688	2066.6666708	2066.6666708	Minor	Good_deeds	47	You have confessed to your mistake	C2_57	1.0	Hard	I2_38	28	The first Grammy awards was held in 1959	1.0	Yes	RIGHT	575.550299999918	RIGHT	1262.6721000000316	RIGHT	1212.9946000000018	RIGHT	1829.5891999999867	11.1	0.5	Probable_Truth	LEFT	LEFT	1	884.1519999999718	2	2020-03-03 14:28:38.763982
109	Computer	S200303	0.5	2	1	2	1	0.1	1000.000002	1066.6666688	1933.3333372	2066.6666708	Major	Wrong_doings	31	You have cursed at your loved ones	C2_40	1.0	Easy	I1_1	2	Malay is one of the races in Singapore	0.611111111111111	No	LEFT	666.6378999999552	RIGHT	480.8075999999346	LEFT	1775.7360000000515	RIGHT	1287.8294000000778	11.1	0.1	Probable_Truth	RIGHT	RIGHT	4	858.030183003844	3	2020-03-03 14:29:02.458783
75	Self	S200303	0.6666666666666666	2	1	1	2	0.4	1433.3333362	1216.6666691	1933.3333372	2350.0000047	Major	Wrong_doings	42	You have switched off appliances when not in use	C1_36	0.0	Hard	I2_33	26	There are 9 rings in the Olympic flag	0.0	Yes	RIGHT	900.2398999999741	RIGHT	513.0675999999994	RIGHT	1836.888300000055	LEFT	1590.896100000009	11.5	0.4	Probable_Truth	LEFT	LEFT	2	700.2833000000237	4	2020-03-03 14:29:27.507064
4	Self	S200303	0.5	1	2	2	1	0.1	1150.0000023	1433.3333362	2500.000005	2500.000005	Minor	Wrong_doings	59	You have given directions to a lost tourist	C2_26	1.0	Easy	I1_32	31	The Earth turns the closest to the sun in May	0.833333333333333	Yes	RIGHT	648.3630000000176	LEFT	893.4383000000707	RIGHT	1336.0172000000148	LEFT	3883.877200000029	11.4	0.1	Probable_Lie	LEFT	LEFT	5	1018.5731999999916	5	2020-03-03 14:29:55.442361
6	Self	S200303	0.5	1	2	2	1	0.4	1283.3333359	1150.0000023	2216.6666711000003	2066.6666708	Major	Good_deeds	7	You have used a fake name online	C1_7	0.15	Easy	I2_46	17	The Earth is round	0.0555555555555556	No	RIGHT	393.0678000000398	RIGHT	848.9455000000135	RIGHT	1086.4659000000074	RIGHT	885.7239000000163	11.8	0.4	Probable_Truth	LEFT	LEFT	3	1199.9174999999696	6	2020-03-03 14:30:19.146627
105	Computer	S200303	0.5	2	1	1	2	0.5	1500.000003	1500.000003	1783.3333369	2500.000005	Minor	Wrong_doings	40	You have thrown your trash into the bin	C1_51	0.0	Easy	I2_1	1	Beer is an alcoholic drink	1.0	Yes	LEFT	1045.1601999999411	LEFT	632.4256999999989	RIGHT	1324.1150999999718	RIGHT	840.276499999959	11.8	0.5	Probable_Lie	LEFT	LEFT	5	810.8392792905895	7	2020-03-03 14:30:43.659324
3	Self	S200303	0.5	1	2	1	2	0.7	1066.6666688	1500.000003	1933.3333372	1933.3333372	Major	Good_deeds	39	You have pretended to be busy to avoid a social situation	C2_59	0.95	Hard	I1_17	4	Singapore has four seasons	0.777777777777778	Yes	RIGHT	617.1982000000753	RIGHT	700.1021000000947	RIGHT	1501.3744999999972	LEFT	1199.1756000001033	12.5	0.7	Probable_Truth	LEFT	RIGHT	6	1153.5182999999734	8	2020-03-03 14:31:07.834756
108	Computer	S200303	0.5	2	1	2	1	0.6	1216.6666691	1350.0000027	2500.000005	1500.000003	Major	Good_deeds	1	You have offered a listening ear to a friend	C2_28	0.45	Hard	I1_53	48	Saturn's rings are between 30 and 300 feet thick	0.0	No	LEFT	778.6431000000675	LEFT	400.11119999996936	RIGHT	1472.3698999999897	LEFT	4566.523899999993	12.5	0.6	Probable_Lie	LEFT	RIGHT	3	773.7037684554871	9	2020-03-03 14:31:34.955630
52	Self	S200303	0.5	1	2	2	1	0.4	1500.000003	1216.6666691	1650.0000033	1650.0000033	Major	Good_deeds	57	You have a non-judgmental attitude towards everyone	C2_35	0.05	Easy	I1_37	25	Fishes can swim in water	0.944444444444444	No	RIGHT	471.1234000000104	LEFT	1007.111000000009	RIGHT	3039.371899999992	RIGHT	1063.7939000000642	12.1	0.4	Probable_Lie	LEFT	RIGHT	3	915.0558999999704	10	2020-03-03 14:32:00.042388
74	Self	S200303	0.6666666666666666	2	1	1	2	0.3	1283.3333359	1350.0000027	1500.000003	2066.6666708	Major	Good_deeds	56	You have bought cocaine	C2_18	0.0	Easy	I1_39	18	Summer is hotter than winter	0.0	No	RIGHT	637.0268000000578	RIGHT	416.3547999999082	LEFT	1192.237700000078	RIGHT	1183.2293999999592	12.4	0.3	Probable_Truth	RIGHT	RIGHT	3	930.2823000000444	11	2020-03-03 14:32:23.170802
77	Self	S200303	0.6666666666666666	2	1	2	1	0.6	1150.0000023	1150.0000023	2066.6666708	1933.3333372	Minor	Wrong_doings	18	You have sheltered others from disasters	C1_8	1.0	Easy	I2_18	39	Mageirocophobia is a fear of deathly disease	0.611111111111111	Yes	RIGHT	588.7714000000415	RIGHT	287.74910000004184	LEFT	2583.92409999999	LEFT	2957.397300000025	13.0	0.6	Probable_Truth	RIGHT	RIGHT	3	798.2268000000659	12	2020-03-03 14:32:49.258779
93	Self	S200303	0.8333333333333334	2	1	2	1	0.6	1000.000002	1283.3333359	2500.000005	1500.000003	Minor	Good_deeds	43	You have said sorry when you were rude	C1_53	0.0	Hard	I2_59	13	Septicemia is a lung infection condition	0.944444444444444	Yes	RIGHT	539.7964000000002	RIGHT	288.0092999999988	RIGHT	927.9759000000922	RIGHT	2142.348200000015	13.6	0.6	Probable_Truth	LEFT	LEFT	1	1014.854899999932	13	2020-03-03 14:33:13.026431
5	Self	S200303	0.5	1	2	2	1	0.8	1350.0000027	1000.000002	1650.0000033	2350.0000047	Major	Good_deeds	26	You have returned your trays in food courts	C2_24	0.05	Hard	I1_33	51	Teddy Roosevelt was the youngest US President	0.888888888888889	No	RIGHT	464.5706000000018	RIGHT	711.2560000000485	RIGHT	1232.3347999999896	RIGHT	2115.9836000000496	14.4	0.8	Probable_Truth	RIGHT	RIGHT	4	1089.4594000000095	14	2020-03-03 14:33:37.562300
100	Computer	S200303	0.5	1	2	2	1	0.1	1433.3333362	1150.0000023	1783.3333369	1650.0000033	Minor	Wrong_doings	59	You have given directions to a lost tourist	C2_26	1.0	Easy	I1_32	31	The Earth turns the closest to the sun in May	0.833333333333333	Yes	LEFT	432.3029999999335	LEFT	866.2826999999425	RIGHT	879.9260999999206	LEFT	2543.042000000014	14.4	0.1	Probable_Lie	LEFT	LEFT	6	824.1128969336914	15	2020-03-03 14:34:01.682396
107	Computer	S200303	0.5	2	1	1	2	0.2	1350.0000027	1150.0000023	2216.6666711000003	1650.0000033	Major	Wrong_doings	17	You have bribed someone to improve a grade	C1_17	0.0	Hard	I2_2	53	Fibers in oranges can be used to make fabric	0.777777777777778	Yes	LEFT	810.6172000000242	RIGHT	439.2143000000033	LEFT	1352.582200000029	RIGHT	2974.0556000000424	14.4	0.2	Probable_Truth	RIGHT	LEFT	2	958.9525139862184	16	2020-03-03 14:34:27.146777
101	Computer	S200303	0.5	1	2	2	1	0.6	1216.6666691	1500.000003	1500.000003	1783.3333369	Major	Good_deeds	26	You have returned your trays in food courts	C2_24	0.05	Hard	I1_33	51	Teddy Roosevelt was the youngest US President	0.888888888888889	No	LEFT	376.96660000005977	RIGHT	556.2085999999908	RIGHT	968.0137999999944	RIGHT	1138.00040000001	14.4	0.6	Probable_Truth	LEFT	LEFT	1	856.731020411916	17	2020-03-03 14:34:49.603080
24	Self	S200303	0.6666666666666666	2	1	1	2	0.3	1433.3333362	1433.3333362	2066.6666708	1650.0000033	Major	Wrong_doings	23	You have engaged in arson	C1_3	0.0	Hard	I2_12	56	Beef comes from cows	0.0555555555555556	No	RIGHT	1005.8258999999908	LEFT	344.6980999999596	LEFT	1150.149700000043	RIGHT	1288.044599999921	14.1	0.3	Probable_Lie	LEFT	LEFT	5	598.5279999999875	18	2020-03-03 14:35:13.146363
69	Self	S200303	0.6666666666666666	1	2	2	1	0.2	1066.6666688	1000.000002	2350.0000047	1500.000003	Major	Wrong_doings	9	You have given up your seat in the MRT	C2_36	0.2	Hard	I1_29	35	Mozambique is the world's poorest country	0.888888888888889	No	RIGHT	248.2078999998976	RIGHT	492.7954999998292	RIGHT	805.9261999999308	RIGHT	2932.862100000193	14.3	0.2	Probable_Truth	LEFT	LEFT	2	724.3862999999919	19	2020-03-03 14:35:36.843114
117	Computer	S200303	0.6666666666666666	1	2	2	1	0.3	1000.000002	1283.3333359	2350.0000047	2066.6666708	Major	Good_deeds	6	You have faked an illness	C1_12	0.0	Hard	I2_39	47	Most plants emit oxygen in the day	0.722222222222222	Yes	LEFT	320.2342000001863	RIGHT	655.4553999999371	LEFT	1096.2160999999924	RIGHT	3956.9113000000016	14.3	0.3	Probable_Truth	LEFT	LEFT	2	718.2801713393894	20	2020-03-03 14:36:02.859285
55	Self	S200303	0.5	1	2	2	1	0.6	1283.3333359	1150.0000023	1500.000003	2216.6666711000003	Minor	Wrong_doings	37	You have illegally stayed in a country	C1_24	1.0	Easy	I2_45	12	The human's inner ear is larger than a pencil eraser	0.0	Yes	RIGHT	472.42370000003575	LEFT	996.0355999999138	LEFT	1144.896499999959	LEFT	3009.8097000000053	13.7	0.6	Probable_Lie	RIGHT	RIGHT	1	1430.264999999963	21	2020-03-03 14:36:28.634737
30	Self	S200303	0.6666666666666666	2	1	2	1	0.2	1216.6666691	1283.3333359	1500.000003	2500.000005	Minor	Wrong_doings	3	You have fabricated facts about yourself	C2_23	0.65	Easy	I1_42	12	It sometimes snows in Singapore	0.0	Yes	RIGHT	349.94589999996606	RIGHT	255.15650000011192	RIGHT	1720.261599999958	LEFT	1092.7080999999816	13.9	0.2	Probable_Truth	LEFT	LEFT	2	915.3698000000076	22	2020-03-03 14:36:52.042644
26	Self	S200303	0.6666666666666666	2	1	1	2	0.7	1000.000002	1350.0000027	2350.0000047	2350.0000047	Major	Wrong_doings	30	You have let a homeless man into your house	C1_46	1.0	Hard	I2_53	53	Astatine is the rarest element in the Earth's crust	0.0	No	RIGHT	1347.936000000118	RIGHT	255.54239999996756	LEFT	1793.2810000002064	RIGHT	1848.980700000084	14.599999999999998	0.7	Probable_Truth	LEFT	LEFT	2	819.738099999995	23	2020-03-03 14:37:17.731047
37	Self	S200303	0.8333333333333334	1	2	2	1	0.7	1000.000002	1433.3333362	2216.6666711000003	2216.6666711000003	Major	Wrong_doings	45	You have been arrested	C1_47	0.05	Easy	I2_34	44	There are 10 continents in the World	0.0555555555555556	No	RIGHT	255.0195999999687	RIGHT	359.8818000000392	LEFT	872.2615000001497	LEFT	983.9876000000912	15.299999999999995	0.7	Probable_Truth	LEFT	LEFT	1	689.6277999999256	24	2020-03-03 14:37:40.329635
91	Self	S200303	0.8333333333333334	2	1	1	2	0.7	1350.0000027	1500.000003	2350.0000047	2066.6666708	Major	Wrong_doings	27	You have organized a violent protest	C2_20	0.05	Easy	I1_24	57	Earth's atmosphere extends up to 10,000km into space	0.0	Yes	RIGHT	825.8184999999685	LEFT	424.7834999998759	LEFT	1064.1235999999026	RIGHT	2278.2090000000608	14.599999999999998	0.7	Probable_Lie	RIGHT	RIGHT	1	778.1053000001066	25	2020-03-03 14:38:05.538887
70	Self	S200303	0.6666666666666666	1	2	2	1	0.3	1216.6666691	1066.6666688	1650.0000033	2500.000005	Minor	Good_deeds	36	You have intentionally let others cut in line	C2_29	0.95	Easy	I2_3	42	There is typically 0.6 grams of mercury in glass thermometer	0.0	Yes	RIGHT	336.9350000000395	RIGHT	583.0707000000075	RIGHT	2583.3834000000024	RIGHT	2238.5941000000003	14.9	0.3	Probable_Truth	RIGHT	RIGHT	3	745.9847000000082	26	2020-03-03 14:38:31.035180
81	Self	S200303	0.8333333333333334	1	2	1	2	0.5	1066.6666688	1150.0000023	1933.3333372	1783.3333369	Minor	Wrong_doings	13	You have donated blood every 6 months for many years	C1_13	0.0	Easy	I1_31	45	There are 7 days in a week	0.944444444444444	No	RIGHT	360.1396999999906	LEFT	877.507999999807	LEFT	1475.6074000001718	RIGHT	750.4673999999341	14.4	0.5	Probable_Lie	RIGHT	RIGHT	1	940.8931999998912	27	2020-03-03 14:38:53.946805
124	Computer	S200303	0.6666666666666666	2	1	2	1	0.8	1350.0000027	1500.000003	1933.3333372	2066.6666708	Minor	Good_deeds	14	You have assisted in a crime	C1_14	0.0	Easy	I2_56	25	The first Olympic Games was held in the 5th century B.C	0.0555555555555556	No	LEFT	910.6440000000476	RIGHT	485.6175999998413	LEFT	975.7544999999936	RIGHT	1719.5083999999952	14.4	0.8	Probable_Truth	RIGHT	RIGHT	3	806.5453015795434	28	2020-03-03 14:39:18.258506
142	Computer	S200303	0.8333333333333334	2	1	2	1	0.3	1350.0000027	1066.6666688	2066.6666708	1650.0000033	Minor	Wrong_doings	5	You have been sued	C2_34	0.65	Easy	I2_41	41	December is the last month of the year	0.666666666666667	Yes	LEFT	1220.929999999953	LEFT	296.346099999937	LEFT	999.4732999998632	RIGHT	968.7315999999556	14.4	0.3	Probable_Lie	RIGHT	RIGHT	1	702.9701580850424	29	2020-03-03 14:39:41.147092
138	Computer	S200303	0.8333333333333334	2	1	1	2	0.8	1150.0000023	1150.0000023	1933.3333372	2500.000005	Minor	Good_deeds	34	You have attended all lectures as a student	C2_58	0.1	Hard	I1_3	49	The Franco-Prussian War occurred in the 19th century	0.0	Yes	LEFT	642.2426999999971	RIGHT	719.9186999998801	LEFT	2146.979399999964	LEFT	2663.417199999913	14.4	0.8	Probable_Truth	LEFT	LEFT	1	669.8797635877002	30	2020-03-03 14:40:07.289465
72	Self	S200303	0.6666666666666666	2	1	1	2	0.2	1500.000003	1000.000002	2350.0000047	1500.000003	Minor	Wrong_doings	13	You have taken part in violent demonstration	C1_15	0.75	Hard	I1_26	33	Marijuana is legal in Singapore	0.0555555555555556	Yes	RIGHT	562.9567999999381	RIGHT	239.9321999998847	LEFT	1189.366899999868	RIGHT	873.2582000000093	14.599999999999998	0.2	Probable_Truth	LEFT	LEFT	1	732.4521000000459	31	2020-03-03 14:40:29.810592
104	Computer	S200303	0.5	2	1	1	2	0.4	1150.0000023	1216.6666691	2350.0000047	1783.3333369	Minor	Good_deeds	51	You have been physically hurt to protect others	C2_16	0.85	Hard	I1_15	8	Mexico's National Day is September 16	0.0	No	LEFT	792.4669999999878	LEFT	712.6145999998243	Time_Max_Exceeded	5000.28199999997	LEFT	88.84710000006635	14.599999999999998	0.4	Probable_Lie	LEFT	RIGHT	2	854.4119040121552	32	2020-03-03 14:40:56.322740
11	Self	S200303	0.5	2	1	1	2	0.7	1500.000003	1216.6666691	2350.0000047	1650.0000033	Major	Wrong_doings	17	You have bribed someone to improve a grade	C1_17	0.0	Hard	I2_2	53	Fibers in oranges can be used to make fabric	0.777777777777778	Yes	RIGHT	450.72989999994206	RIGHT	279.7542999999223	LEFT	969.1491999999472	RIGHT	1374.0473000000293	15.299999999999995	0.7	Probable_Truth	LEFT	RIGHT	6	1331.4703000000918	33	2020-03-03 14:41:20.017734
19	Self	S200303	0.6666666666666666	1	2	1	2	0.7	1150.0000023	1150.0000023	2066.6666708	2500.000005	Major	Wrong_doings	60	You have queued to enter the MRT train	C2_6	0.9	Hard	I2_58	40	It is night time now	0.944444444444444	No	RIGHT	383.79180000015367	LEFT	790.2682999999797	RIGHT	1332.9969999999776	LEFT	1072.9507000000922	14.599999999999998	0.7	Probable_Lie	LEFT	LEFT	5	589.9173999998766	34	2020-03-03 14:41:43.627819
127	Computer	S200303	0.6666666666666666	2	1	2	1	0.7	1216.6666691	1350.0000027	2500.000005	1783.3333369	Minor	Good_deeds	50	You have followed instructions	C2_30	0.5	Hard	I2_60	42	Dutch is the 6th Europe's most widely spoken language	0.888888888888889	Yes	LEFT	891.1626000001434	RIGHT	408.6923999998362	RIGHT	848.1408000000101	LEFT	2234.9406999999246	14.599999999999998	0.7	Probable_Truth	RIGHT	LEFT	1	543.5609153667573	35	2020-03-03 14:42:07.977506
78	Self	S200303	0.6666666666666666	2	1	2	1	0.1	1066.6666688	1433.3333362	2500.000005	1783.3333369	Major	Good_deeds	38	You have given way to the handicapped	C2_13	0.15	Hard	I1_5	60	Hot chocolate was created by the Mayan culture	0.666666666666667	No	RIGHT	957.5437999999394	LEFT	665.5762000000323	RIGHT	1127.255699999978	RIGHT	1615.6243999998878	14.499999999999998	0.1	Probable_Lie	LEFT	LEFT	5	487.3024000000896	36	2020-03-03 14:42:32.186563
82	Self	S200303	0.8333333333333334	1	2	1	2	0.7	1216.6666691	1066.6666688	2216.6666711000003	2500.000005	Major	Good_deeds	38	You have extorted money from anyone	C2_10	0.65	Hard	I1_8	13	The Seine river is 50 feet above sea level	0.0	Yes	RIGHT	312.3923000000559	RIGHT	865.4311000000234	LEFT	1099.2819999999028	RIGHT	1558.5475000000315	15.199999999999998	0.7	Probable_Truth	LEFT	LEFT	1	628.4522999999353	37	2020-03-03 14:42:56.226844
15	Self	S200303	0.5	2	1	2	1	0.8	1000.000002	1500.000003	1783.3333369	2216.6666711000003	Minor	Wrong_doings	35	You have used heroin	C2_31	0.7	Hard	I2_8	15	Today is Sunday	0.888888888888889	Yes	RIGHT	555.431100000078	RIGHT	415.4509000002236	LEFT	936.0778000000208	LEFT	1225.3855999999814	15.999999999999998	0.8	Probable_Truth	LEFT	RIGHT	6	954.4947000001685	38	2020-03-03 14:43:19.385340
113	Computer	S200303	0.6666666666666666	1	2	1	2	0.8	1216.6666691	1000.000002	1933.3333372	1650.0000033	Major	Wrong_doings	22	You have cursed at others	C1_40	0.85	Easy	I1_2	11	Bears have the biggest eyes among mammals	0.722222222222222	No	LEFT	336.1522999998669	RIGHT	812.7962999999454	LEFT	1376.850500000046	RIGHT	2725.550999999996	15.999999999999998	0.8	Probable_Truth	RIGHT	RIGHT	5	727.6698055490164	39	2020-03-03 14:43:43.737897
122	Computer	S200303	0.6666666666666666	2	1	1	2	0.3	1500.000003	1283.3333359	2216.6666711000003	1650.0000033	Major	Wrong_doings	30	You have let a homeless man into your house	C1_46	1.0	Hard	I2_53	53	Astatine is the rarest element in the Earth's crust	0.0	No	LEFT	562.6575000001139	LEFT	249.37050000016825	LEFT	1071.164200000112	RIGHT	1039.7887999999966	15.999999999999998	0.3	Probable_Lie	RIGHT	RIGHT	2	698.8106107355903	40	2020-03-03 14:44:06.578344
58	Self	S200303	0.5	2	1	1	2	0.8	1500.000003	1500.000003	1933.3333372	2500.000005	Minor	Wrong_doings	2	You have shown your appreciation to your teachers	C1_31	0.55	Easy	I1_36	54	South East Asia is currently free from polio	0.833333333333333	No	RIGHT	964.3991000000368	RIGHT	495.9127999998145	RIGHT	1228.9409999998495	LEFT	2902.672799999891	16.799999999999997	0.8	Probable_Truth	RIGHT	LEFT	1	1137.247699999989	41	2020-03-03 14:44:33.315286
35	Self	S200303	0.8333333333333334	1	2	1	2	0.8	1216.6666691	1500.000003	2500.000005	2350.0000047	Minor	Good_deeds	44	You have sign up to sponsor a needy child	C2_45	0.55	Hard	I1_41	27	A triangle has three sides	0.833333333333333	Yes	RIGHT	336.1755999999332	LEFT	601.920600000085	LEFT	2388.8705000001664	RIGHT	839.42130000014	15.999999999999996	0.8	Probable_Lie	RIGHT	RIGHT	1	882.6229999999669	42	2020-03-03 14:44:58.506626
139	Computer	S200303	0.8333333333333334	2	1	1	2	0.2	1066.6666688	1000.000002	2350.0000047	1933.3333372	Major	Good_deeds	59	You have taken responsibility for your actions	C1_16	0.0	Easy	I1_21	36	Africa is the continent with the least rainfall	0.611111111111111	Yes	LEFT	1080.5993999999828	RIGHT	391.9227999999748	RIGHT	1052.699500000017	RIGHT	2864.3807000000834	15.999999999999996	0.2	Probable_Truth	RIGHT	RIGHT	3	647.8861980106876	43	2020-03-03 14:45:23.467286
41	Self	S200303	0.8333333333333334	2	1	1	2	0.7	1066.6666688	1350.0000027	2066.6666708	2216.6666711000003	Minor	Good_deeds	16	You have eaten something in the MRT train	C1_5	0.95	Easy	I2_36	52	Arabi is the oldest surviving breed of horse	0.0555555555555556	No	RIGHT	318.5809999999947	RIGHT	256.17560000000594	RIGHT	1369.6813999999904	RIGHT	1688.2966999999098	16.699999999999996	0.7	Probable_Truth	RIGHT	RIGHT	5	1555.6692000000112	44	2020-03-03 14:45:47.929705
45	Self	S200303	0.8333333333333334	2	1	2	1	0.1	1350.0000027	1500.000003	1500.000003	2350.0000047	Major	Wrong_doings	3	You have deceived a loved one	C2_3	0.85	Hard	I2_22	43	It is snowing outside now	0.0	No	RIGHT	853.3191000001352	RIGHT	239.69080000006213	RIGHT	2087.744499999872	LEFT	809.6742999998696	16.799999999999997	0.1	Probable_Truth	LEFT	LEFT	1	735.8174999999392	45	2020-03-03 14:46:11.930894
46	Self	S200303	0.8333333333333334	2	1	2	1	0.3	1000.000002	1150.0000023	1933.3333372	1650.0000033	Minor	Wrong_doings	5	You have been sued	C2_34	0.65	Easy	I2_41	41	December is the last month of the year	0.666666666666667	Yes	RIGHT	794.4852999999057	RIGHT	455.5877999998757	LEFT	782.3696999998901	RIGHT	1063.9781999998377	17.099999999999998	0.3	Probable_Truth	LEFT	LEFT	1	738.6235999999826	46	2020-03-03 14:46:34.073522
50	Self	S200303	0.5	1	2	1	2	0.1	1216.6666691	1350.0000027	2500.000005	1783.3333369	Minor	Good_deeds	48	You have held the elevator doors for others	C2_37	0.0	Hard	I2_23	44	It takes 112 years to build the Pisa Tower	0.777777777777778	No	RIGHT	262.9689000000326	LEFT	813.1166999999095	RIGHT	1034.9846999999954	RIGHT	1727.2663000001105	16.999999999999996	0.1	Probable_Lie	RIGHT	LEFT	4	987.3841999999512	47	2020-03-03 14:46:58.321366
7	Self	S200303	0.5	1	2	2	1	0.2	1000.000002	1283.3333359	2066.6666708	1650.0000033	Minor	Wrong_doings	24	You have cheated on a national exam	C2_43	0.05	Easy	I2_51	32	There are 6000 spoken languages in the World	0.0	Yes	RIGHT	224.72050000010316	RIGHT	350.2052999999705	LEFT	983.9571999998498	RIGHT	2025.1073000001725	17.199999999999996	0.2	Probable_Truth	LEFT	RIGHT	5	921.5200000001004	48	2020-03-03 14:48:14.050223
9	Self	S200303	0.5	2	1	1	2	0.1	1433.3333362	1283.3333359	2216.6666711000003	1783.3333369	Minor	Wrong_doings	40	You have thrown your trash into the bin	C1_51	0.0	Easy	I2_1	1	Beer is an alcoholic drink	1.0	Yes	RIGHT	785.1027000001523	LEFT	232.85210000017287	RIGHT	1185.953100000006	RIGHT	752.3882999998932	17.099999999999994	0.1	Probable_Lie	LEFT	RIGHT	3	1173.0296000000635	49	2020-03-03 14:48:37.465716
115	Computer	S200303	0.6666666666666666	1	2	1	2	0.7	1433.3333362	1066.6666688	1650.0000033	1783.3333369	Major	Wrong_doings	60	You have queued to enter the MRT train	C2_6	0.9	Hard	I2_58	40	It is night time now	0.944444444444444	No	LEFT	255.3987999999663	RIGHT	514.9371999998493	RIGHT	804.5893999999407	LEFT	784.706099999994	17.099999999999994	0.7	Probable_Truth	LEFT	LEFT	2	548.4738707352637	50	2020-03-03 14:48:58.874160
136	Computer	S200303	0.8333333333333334	2	1	1	2	0.6	1000.000002	1216.6666691	1650.0000033	2350.0000047	Minor	Wrong_doings	50	You have stopped using products tested on animals	C1_50	0.0	Hard	I2_49	22	Milwaukee Art Museum is located in California	0.888888888888889	No	LEFT	749.3795000000318	RIGHT	287.54719999983536	LEFT	1675.7488000000649	RIGHT	2014.418300000216	17.099999999999994	0.6	Probable_Truth	LEFT	LEFT	1	911.03679989682	51	2020-03-03 14:49:23.307925
0	Self	S200303	0.5	1	2	1	2	0.5	1216.6666691	1216.6666691	2350.0000047	2216.6666711000003	Major	Wrong_doings	34	You have volunteered every week for many years	C1_34	1.0	Easy	I1_6	46	Singapore ranked 8th in World's smallest countries	0.0	No	RIGHT	273.2316000001447	LEFT	1073.710199999823	LEFT	2158.321200000046	RIGHT	2055.8760999999777	16.599999999999994	0.5	Probable_Lie	RIGHT	RIGHT	2	919.3185999999968	52	2020-03-03 14:49:49.362545
83	Self	S200303	0.8333333333333334	1	2	1	2	0.2	1283.3333359	1433.3333362	2350.0000047	1650.0000033	Major	Wrong_doings	10	You have helped a friend in need	C2_38	0.95	Hard	I2_6	8	Pyramid of Giza is 468 feet tall	0.0	No	RIGHT	280.65590000005614	RIGHT	859.406300000046	RIGHT	758.5372000000916	RIGHT	1142.994900000076	16.799999999999994	0.2	Probable_Truth	RIGHT	RIGHT	4	901.7847000000074	53	2020-03-03 14:50:12.594196
125	Computer	S200303	0.6666666666666666	2	1	2	1	0.2	1000.000002	1433.3333362	1500.000003	1500.000003	Minor	Good_deeds	47	You have watched an M18 movie when you were underage	C2_50	0.0	Easy	I1_46	46	The sun rises at night	0.722222222222222	Yes	LEFT	602.0562999999584	LEFT	208.9917999999216	RIGHT	1887.4329000000216	LEFT	1606.9738999999572	16.799999999999994	0.2	Probable_Lie	RIGHT	RIGHT	2	987.4588083703323	54	2020-03-03 14:50:35.881676
43	Self	S200303	0.8333333333333334	2	1	1	2	0.8	1150.0000023	1433.3333362	2216.6666711000003	1500.000003	Major	Good_deeds	59	You have taken responsibility for your actions	C1_16	0.0	Easy	I1_21	36	Africa is the continent with the least rainfall	0.611111111111111	Yes	LEFT	712.1968999999808	LEFT	984.3868000000384	RIGHT	3167.733700000099	RIGHT	1376.180000000204	16.799999999999994	0.8	Probable_Lie	RIGHT	RIGHT	1	755.5311999999503	55	2020-03-03 14:51:01.746302
18	Self	S200303	0.6666666666666666	1	2	1	2	0.2	1500.000003	1500.000003	1500.000003	1650.0000033	Minor	Good_deeds	40	You have made counterfeit money	C2_46	0.05	Hard	I1_48	17	Cleopatra was born in Greece	0.0	No	RIGHT	640.4837000000043	LEFT	581.4751999998862	LEFT	1079.762200000005	RIGHT	1598.8317999999708	16.599999999999994	0.2	Probable_Lie	LEFT	LEFT	5	648.4463000001597	56	2020-03-03 14:51:25.018080
53	Self	S200303	0.5	1	2	2	1	0.2	1350.0000027	1000.000002	2350.0000047	2350.0000047	Major	Wrong_doings	11	You have held the door open for a stranger	C1_57	0.25	Easy	I1_12	5	It is 20th Century now	0.666666666666667	Yes	RIGHT	417.1728999999687	LEFT	739.389299999857	RIGHT	808.0666000000747	LEFT	1101.331000000073	16.399999999999995	0.2	Probable_Lie	RIGHT	RIGHT	1	764.2238000000816	57	2020-03-03 14:51:48.465569
86	Self	S200303	0.8333333333333334	1	2	2	1	0.8	1500.000003	1500.000003	1500.000003	2216.6666711000003	Minor	Good_deeds	49	You have stolen something	C2_7	0.95	Easy	I2_27	24	A caterpillar has more muscle than a human	0.722222222222222	Yes	RIGHT	241.0116999999445	RIGHT	269.9669000000995	LEFT	888.3230999999796	LEFT	1574.322200000097	17.199999999999996	0.8	Probable_Truth	LEFT	LEFT	1	757.6120999999603	58	2020-03-03 14:52:11.490136
123	Computer	S200303	0.6666666666666666	2	1	1	2	0.5	1150.0000023	1216.6666691	2066.6666708	2350.0000047	Major	Wrong_doings	46	You have helped others to pick up their belongings	C2_47	0.95	Easy	I1_9	60	The Moon orbits around the Earth	0.888888888888889	No	LEFT	639.0464999999494	RIGHT	263.0566999998792	RIGHT	871.4359999999033	RIGHT	1519.6131000002424	17.199999999999996	0.5	Probable_Truth	RIGHT	LEFT	2	554.6199583977	59	2020-03-03 14:52:34.689609
49	Self	S200303	0.5	1	2	1	2	0.5	1433.3333362	1500.000003	2216.6666711000003	1500.000003	Minor	Good_deeds	1	You have bought cigarettes for a minor	C2_1	0.0	Hard	I2_25	23	Feijoa is a type of grape	0.0	Yes	RIGHT	169.30719999982102	RIGHT	383.5115999995651	LEFT	933.2503999999062	LEFT	1584.1327999996793	17.699999999999996	0.5	Probable_Truth	RIGHT	RIGHT	4	901.5779000001204	60	2020-03-03 14:52:57.881579
62	Self	S200303	0.5	2	1	2	1	0.5	1433.3333362	1433.3333362	2500.000005	2350.0000047	Minor	Wrong_doings	17	You have donated a pay cheque to charity	C2_39	0.55	Easy	I1_19	36	Kangaroos live in Africa	0.166666666666667	No	RIGHT	733.3963000000949	RIGHT	120.28680000003078	LEFT	1493.9707999997154	LEFT	1004.8538999999436	18.2	0.5	Probable_Truth	LEFT	RIGHT	4	830.6982999997672	61	2020-03-03 14:53:22.353771
106	Computer	S200303	0.5	2	1	1	2	0.8	1066.6666688	1433.3333362	1650.0000033	2216.6666711000003	Minor	Good_deeds	28	You have started a hotline for victims of bully	C1_35	0.0	Easy	I2_48	50	Nanyang Technological University is in Australia	0.0	Yes	LEFT	670.3327999998692	RIGHT	111.66709999997693	LEFT	1344.966199999817	LEFT	966.6340999997374	18.2	0.8	Probable_Truth	RIGHT	LEFT	3	850.0910305609866	62	2020-03-03 14:53:45.234498
48	Self	S200303	0.5	1	2	1	2	0.7	1150.0000023	1433.3333362	1783.3333369	2066.6666708	Major	Wrong_doings	20	You have lost everything just to help others	C1_20	0.65	Hard	I1_4	37	The hyoid bone is the only jointless bone	1.0	Yes	RIGHT	200.60460000013336	RIGHT	290.0767999999516	LEFT	1405.232000000069	RIGHT	1871.4502999996512	18.899999999999995	0.7	Probable_Truth	LEFT	RIGHT	6	831.031400000029	63	2020-03-03 14:54:08.841562
17	Self	S200303	0.6666666666666666	1	2	1	2	0.6	1066.6666688	1066.6666688	1650.0000033	1500.000003	Major	Wrong_doings	22	You have cursed at others	C1_40	0.85	Easy	I1_2	11	Bears have the biggest eyes among mammals	0.722222222222222	No	RIGHT	111.60999999992782	RIGHT	295.47520000005534	RIGHT	1366.1807000003137	RIGHT	1991.9026000002304	19.5	0.6	Probable_Truth	LEFT	LEFT	1	627.1255999999994	64	2020-03-03 14:54:31.089483
95	Self	S200303	0.8333333333333334	2	1	2	1	0.1	1283.3333359	1150.0000023	1500.000003	1650.0000033	Major	Wrong_doings	20	You have coveted things that belong to others	C1_29	0.85	Easy	I2_30	16	Cernan was the second last man to walk on the Moon	0.833333333333333	No	RIGHT	277.25950000012745	RIGHT	161.20749999981854	RIGHT	1415.7036000001426	LEFT	3032.6760999996623	19.6	0.1	Probable_Truth	RIGHT	RIGHT	4	676.558400000431	65	2020-03-03 14:54:54.810026
110	Computer	S200303	0.5	2	1	2	1	0.3	1433.3333362	1000.000002	2066.6666708	2350.0000047	Major	Good_deeds	16	You have failed to keep promises	C1_1	1.0	Easy	I1_50	1	"Statue of Liberty is 151 feet tall"	0.0	No	LEFT	718.2831999998598	LEFT	119.33040000030816	RIGHT	872.1959999998035	RIGHT	1844.931199999792	19.6	0.3	Probable_Lie	LEFT	LEFT	5	938.4287254285764	66	2020-03-03 14:55:18.714161
134	Computer	S200303	0.8333333333333334	1	2	2	1	0.3	1216.6666691	1216.6666691	2066.6666708	2066.6666708	Minor	Wrong_doings	19	You have drunk alcohol when you were underage	C1_6	1.0	Easy	I1_28	38	Slavery was abolished in Cuba in 1886	0.944444444444444	Yes	LEFT	248.41360000027635	RIGHT	763.8979000003019	RIGHT	1079.9206000001504	RIGHT	1832.4326000001747	19.6	0.3	Probable_Lie	LEFT	LEFT	4	867.4080670206693	67	2020-03-03 14:55:42.641674
13	Self	S200303	0.5	2	1	2	1	0.2	1350.0000027	1150.0000023	2500.000005	2350.0000047	Major	Wrong_doings	31	You have cursed at your loved ones	C2_40	1.0	Easy	I1_1	2	Malay is one of the races in Singapore	0.611111111111111	No	RIGHT	747.9002999998556	LEFT	144.80529999991631	LEFT	1984.653200000139	RIGHT	820.1359999998203	19.4	0.2	Probable_Lie	RIGHT	RIGHT	2	1171.0422999999537	68	2020-03-03 14:56:07.433484
132	Computer	S200303	0.8333333333333334	1	2	2	1	0.2	1350.0000027	1500.000003	1500.000003	2216.6666711000003	Major	Wrong_doings	6	You have watched a pirated movie	C1_30	0.0	Easy	I1_27	40	Some owl species hunt fish	0.764705882352941	No	LEFT	384.1811000002053	LEFT	950.8267999999588	RIGHT	1095.5457000000024	RIGHT	1752.3094000002857	19.4	0.2	Probable_Lie	RIGHT	LEFT	5	612.2753967587206	69	2020-03-03 14:56:31.369567
8	Self	S200303	0.5	2	1	1	2	0.3	1216.6666691	1066.6666688	1500.000003	1933.3333372	Minor	Good_deeds	51	You have been physically hurt to protect others	C2_16	0.85	Hard	I1_15	8	Mexico's National Day is September 16	0.0	No	RIGHT	845.0929999999062	LEFT	167.44249999965177	LEFT	1212.927900000068	RIGHT	1086.4267000001746	19.1	0.3	Probable_Lie	LEFT	RIGHT	2	678.0355000000782	70	2020-03-03 14:56:53.650236
67	Self	S200303	0.6666666666666666	1	2	1	2	0.6	1283.3333359	1500.000003	1933.3333372	1783.3333369	Minor	Good_deeds	54	You have borrowed things and never returned	C1_11	0.0	Easy	I1_35	35	Obama is the USA president now	0.0	No	RIGHT	96.96029999986422	RIGHT	292.76759999993374	LEFT	1738.1359000000884	RIGHT	751.7453000000387	19.7	0.6	Probable_Truth	RIGHT	RIGHT	5	727.4036000003434	71	2020-03-03 14:57:16.330089
96	Computer	S200303	0.5	1	2	1	2	0.8	1500.000003	1066.6666688	2500.000005	2500.000005	Major	Wrong_doings	34	You have volunteered every week for many years	C1_34	1.0	Easy	I1_6	46	Singapore ranked 8th in World's smallest countries	0.0	No	LEFT	264.3598999998176	LEFT	1152.276300000267	LEFT	967.0279000001756	RIGHT	896.429999999782	19.7	0.8	Probable_Lie	LEFT	RIGHT	1	999.4881719559515	72	2020-03-03 14:57:40.745742
85	Self	S200303	0.8333333333333334	1	2	2	1	0.3	1000.000002	1216.6666691	2500.000005	2066.6666708	Major	Good_deeds	28	You have taken part in burglary	C1_49	1.0	Hard	I2_24	31	Polish is 20th most spoken language in the World	0.888888888888889	Yes	RIGHT	406.1492000000726	RIGHT	1149.2448000003606	LEFT	1359.5580999999584	LEFT	1910.3282000000945	20.0	0.3	Probable_Truth	RIGHT	RIGHT	2	751.1384000004	73	2020-03-03 14:58:05.681707
2	Self	S200303	0.5	1	2	1	2	0.6	1500.000003	1350.0000027	1783.3333369	1783.3333369	Minor	Wrong_doings	43	You have signed up as a bone marrow donor	C1_39	0.1	Hard	I2_31	6	Today is a weekday	0.833333333333333	Yes	RIGHT	216.4956000001439	RIGHT	441.8651000000864	LEFT	1042.288699999972	RIGHT	904.3328000002476	20.6	0.6	Probable_Truth	RIGHT	RIGHT	6	940.0330000003124	74	2020-03-03 14:58:28.217392
40	Self	S200303	0.8333333333333334	2	1	1	2	0.6	1283.3333359	1000.000002	1650.0000033	2066.6666708	Minor	Wrong_doings	50	You have stopped using products tested on animals	C1_50	0.0	Hard	I2_49	22	Milwaukee Art Museum is located in California	0.888888888888889	No	RIGHT	661.9694000000891	RIGHT	88.47949999972116	LEFT	933.5277000000132	RIGHT	791.1544999997204	21.200000000000003	0.6	Probable_Lie	LEFT	LEFT	2	662.5518000000739	75	2020-03-03 14:58:49.929517
20	Self	S200303	0.6666666666666666	1	2	2	1	0.1	1283.3333359	1000.000002	2216.6666711000003	1933.3333372	Minor	Good_deeds	60	You have kept your promises	C2_14	0.0	Easy	I1_11	58	It takes 500 days to travel from Earth to Mars	0.0	Yes	RIGHT	640.8359000001838	LEFT	840.0848999999653	RIGHT	951.7800999997236	LEFT	2117.013600000064	21.1	0.1	Probable_Lie	RIGHT	RIGHT	2	871.6098999998394	76	2020-03-03 14:59:14.354547
114	Computer	S200303	0.6666666666666666	1	2	1	2	0.4	1150.0000023	1500.000003	2500.000005	1500.000003	Minor	Good_deeds	40	You have made counterfeit money	C2_46	0.05	Hard	I1_48	17	Cleopatra was born in Greece	0.0	No	LEFT	232.7940000000126	RIGHT	857.8388999999333	LEFT	957.0511000001716	RIGHT	935.9933999999156	21.1	0.4	Probable_Truth	RIGHT	RIGHT	4	672.6647092124392	77	2020-03-03 14:59:37.225545
65	Self	S200303	0.6666666666666666	1	2	1	2	0.7	1350.0000027	1216.6666691	2216.6666711000003	2216.6666711000003	Major	Good_deeds	11	You have done something against your values	C1_42	0.9	Hard	I2_35	29	Singapore is a country	0.833333333333333	Yes	RIGHT	240.3561000000991	RIGHT	367.4273999999969	RIGHT	1832.3059000003925	RIGHT	839.8481000003812	21.8	0.7	Probable_Lie	LEFT	LEFT	4	959.1450000002624	78	2020-03-03 15:00:01.042369
57	Self	S200303	0.5	2	1	1	2	0.1	1283.3333359	1216.6666691	1500.000003	2216.6666711000003	Major	Wrong_doings	27	You have claimed doing things that you never did	C2_33	0.0	Hard	I2_50	43	China is a part of Asia	1.0	No	RIGHT	677.5554000000739	LEFT	79.38259999991715	LEFT	2048.903899999914	RIGHT	1111.1691000000974	21.7	0.1	Probable_Lie	LEFT	RIGHT	2	860.8247000001938	79	2020-03-03 15:00:24.609550
28	Self	S200303	0.6666666666666666	2	1	2	1	0.8	1500.000003	1150.0000023	1783.3333369	1933.3333372	Minor	Good_deeds	14	You have assisted in a crime	C1_14	0.0	Easy	I2_56	25	The first Olympic Games was held in the 5th century B.C	0.0555555555555556	No	RIGHT	402.4063000001661	RIGHT	112.26929999975256	LEFT	800.2261999999973	RIGHT	1082.917499999894	22.5	0.8	Probable_Lie	LEFT	LEFT	4	733.5296000001108	80	2020-03-03 15:00:46.681775
103	Computer	S200303	0.5	1	2	2	1	0.2	1150.0000023	1000.000002	2066.6666708	2350.0000047	Minor	Wrong_doings	24	You have cheated on a national exam	C2_43	0.05	Easy	I2_51	32	There are 6000 spoken languages in the World	0.0	Yes	LEFT	119.97930000006818	RIGHT	1057.5359999998	LEFT	759.8963000000367	LEFT	1257.3898999999074	22.5	0.2	Probable_Truth	LEFT	LEFT	2	938.8823260025116	81	2020-03-03 15:01:09.945705
99	Computer	S200303	0.5	1	2	1	2	0.3	1350.0000027	1216.6666691	1650.0000033	2066.6666708	Major	Good_deeds	39	You have pretended to be busy to avoid a social situation	C2_59	0.95	Hard	I1_17	4	Singapore has four seasons	0.777777777777778	Yes	LEFT	72.07019999987097	LEFT	505.5385999999089	RIGHT	1333.703300000252	LEFT	767.4906000002011	22.5	0.3	Probable_Lie	LEFT	RIGHT	3	739.1415065181724	82	2020-03-03 15:01:32.209776
116	Computer	S200303	0.6666666666666666	1	2	2	1	0.6	1283.3333359	1150.0000023	2066.6666708	2216.6666711000003	Minor	Good_deeds	60	You have kept your promises	C2_14	0.0	Easy	I1_11	58	It takes 500 days to travel from Earth to Mars	0.0	Yes	LEFT	88.17199999975855	RIGHT	688.8089999997646	RIGHT	944.1365000002406	LEFT	991.1777000002076	22.5	0.6	Probable_Truth	RIGHT	RIGHT	4	634.4868670105154	83	2020-03-03 15:01:54.841723
61	Self	S200303	0.5	2	1	2	1	0.4	1150.0000023	1150.0000023	1783.3333369	1783.3333369	Major	Good_deeds	19	You have gossiped about your best friend	C2_17	0.2	Hard	I2_28	23	Algeria is Africa's second largest country	0.777777777777778	Yes	RIGHT	393.5394999998607	RIGHT	104.430400000183	LEFT	1201.44640000035	LEFT	1882.2771999998624	22.9	0.4	Probable_Truth	LEFT	RIGHT	5	835.892000000058	84	2020-03-03 15:02:17.697880
92	Self	S200303	0.8333333333333334	2	1	2	1	0.5	1216.6666691	1000.000002	2216.6666711000003	2350.0000047	Major	Wrong_doings	29	You have told someone's secret to others	C2_52	0.95	Hard	I2_55	24	Chickens lay eggs	0.0	Yes	RIGHT	751.8813000001501	LEFT	137.53589999987526	RIGHT	1687.950099999853	RIGHT	1033.8933000002726	22.4	0.5	Probable_Lie	RIGHT	RIGHT	1	552.6939000001221	85	2020-03-03 15:02:41.217820
131	Computer	S200303	0.8333333333333334	1	2	1	2	0.4	1066.6666688	1433.3333362	1933.3333372	1650.0000033	Minor	Good_deeds	44	You have sign up to sponsor a needy child	C2_45	0.55	Hard	I1_41	27	A triangle has three sides	0.833333333333333	Yes	LEFT	184.1709999998784	RIGHT	1341.708700000254	LEFT	1007.152700000006	RIGHT	919.5787999997264	22.4	0.4	Probable_Truth	RIGHT	LEFT	1	508.31305930833526	86	2020-03-03 15:03:03.825917
88	Self	S200303	0.8333333333333334	2	1	1	2	0.3	1066.6666688	1433.3333362	1933.3333372	1933.3333372	Minor	Good_deeds	48	You have rescued others from a catastrophe	C2_48	0.0	Easy	I2_16	59	Vegetarians can eat vegetable products	0.0	Yes	RIGHT	747.9051000000254	RIGHT	832.2636000002603	LEFT	1004.0437000002383	RIGHT	1303.304399999888	22.7	0.3	Probable_Truth	LEFT	LEFT	1	762.2097000003123	87	2020-03-03 15:03:27.416837
12	Self	S200303	0.5	2	1	2	1	0.5	1150.0000023	1350.0000027	1650.0000033	2066.6666708	Major	Good_deeds	1	You have offered a listening ear to a friend	C2_28	0.45	Hard	I1_53	48	Saturn's rings are between 30 and 300 feet thick	0.0	No	RIGHT	1166.71580000002	LEFT	248.74150000005105	RIGHT	815.5811999999969	LEFT	2398.312199999964	22.2	0.5	Probable_Lie	RIGHT	LEFT	4	932.0450000000164	88	2020-03-03 15:03:51.768611
38	Self	S200303	0.8333333333333334	1	2	2	1	0.1	1150.0000023	1216.6666691	2350.0000047	1500.000003	Minor	Wrong_doings	19	You have drunk alcohol when you were underage	C1_6	1.0	Easy	I1_28	38	Slavery was abolished in Cuba in 1886	0.944444444444444	Yes	RIGHT	455.6684999997742	RIGHT	298.28409999981886	RIGHT	998.8815000001524	RIGHT	1716.3683000003402	22.3	0.1	Probable_Truth	LEFT	LEFT	1	610.2436000001035	89	2020-03-03 15:04:14.641169
47	Self	S200303	0.8333333333333334	2	1	2	1	0.2	1433.3333362	1066.6666688	2500.000005	2500.000005	Major	Good_deeds	25	You have helped your parents when asked to	C2_25	1.0	Hard	I1_52	21	Last day of the year is 30th December	0.888888888888889	No	RIGHT	604.9345999999787	RIGHT	249.2309999997815	RIGHT	855.873800000154	LEFT	1837.2979000000669	22.5	0.2	Probable_Truth	RIGHT	RIGHT	3	730.7777000000897	90	2020-03-03 15:04:38.993776
59	Self	S200303	0.5	2	1	1	2	0.3	1350.0000027	1283.3333359	2350.0000047	2066.6666708	Minor	Good_deeds	33	You have participated in a scamming business	C2_2	0.05	Easy	I2_52	28	The current century is 21st	0.111111111111111	Yes	RIGHT	779.792499999985	LEFT	200.0692000001436	LEFT	1015.6923999998072	RIGHT	823.4072000000197	22.2	0.3	Probable_Lie	LEFT	RIGHT	1	853.1534999997348	91	2020-03-03 15:05:02.289867
141	Computer	S200303	0.8333333333333334	2	1	2	1	0.1	1283.3333359	1433.3333362	2500.000005	2066.6666708	Major	Wrong_doings	3	You have deceived a loved one	C2_3	0.85	Hard	I2_22	43	It is snowing outside now	0.0	No	LEFT	1099.7287999998662	RIGHT	264.2745000002833	LEFT	1063.4267999998883	LEFT	766.682899999978	22.2	0.1	Probable_Truth	RIGHT	RIGHT	3	785.2238647742827	92	2020-03-03 15:05:26.122288
97	Computer	S200303	0.5	1	2	1	2	0.4	1000.000002	1433.3333362	2216.6666711000003	1933.3333372	Minor	Good_deeds	23	You have engaged in drink-driving	C1_23	0.7	Hard	I2_4	33	Singapore is a poor country	0.0	No	LEFT	175.93289999967965	LEFT	426.99179999999615	LEFT	1518.4135999998034	LEFT	1319.284200000311	22.2	0.4	Probable_Lie	RIGHT	RIGHT	1	960.2265941417422	93	2020-03-03 15:05:49.681585
60	Self	S200303	0.5	2	1	2	1	0.2	1000.000002	1066.6666688	2066.6666708	1500.000003	Major	Good_deeds	45	You have kidnapped someone	C1_45	1.0	Easy	I2_43	52	Cheese is an Asian staple	0.944444444444444	Yes	RIGHT	998.502599999938	LEFT	415.9119000000828	LEFT	767.3510999998143	LEFT	1500.7884000001468	22.0	0.2	Probable_Lie	LEFT	RIGHT	3	811.2748000003194	94	2020-03-03 15:06:12.384911
111	Computer	S200303	0.5	2	1	2	1	0.7	1283.3333359	1283.3333359	1500.000003	1933.3333372	Minor	Wrong_doings	35	You have used heroin	C2_31	0.7	Hard	I2_8	15	Today is Sunday	0.888888888888889	Yes	LEFT	625.04540000009	RIGHT	257.296100000076	LEFT	799.86289999988	LEFT	1036.2208999999891	22.0	0.7	Probable_Truth	LEFT	LEFT	1	708.3796902708473	95	2020-03-03 15:06:34.369396
23	Self	S200303	0.6666666666666666	1	2	2	1	0.8	1350.0000027	1216.6666691	2350.0000047	2066.6666708	Major	Good_deeds	46	You have bribed a police officer	C1_60	0.45	Hard	I2_17	2	A square has 3 corners	0.0	Yes	RIGHT	297.09290000027977	LEFT	875.7660999999644	LEFT	839.1393000001699	LEFT	1549.5259000003898	21.2	0.8	Probable_Lie	LEFT	LEFT	5	654.3910000000324	96	2020-03-03 15:07:31.738152
73	Self	S200303	0.6666666666666666	2	1	1	2	0.5	1216.6666691	1066.6666688	2216.6666711000003	1650.0000033	Minor	Wrong_doings	8	You have violated a traffic law	C2_56	0.9	Hard	I1_60	5	The hardest bone in human body is the jawbone	0.777777777777778	Yes	RIGHT	456.6116000000875	RIGHT	168.65240000015547	LEFT	1721.1140999997951	LEFT	2486.632600000121	21.7	0.5	Probable_Lie	LEFT	LEFT	4	684.5727999998417	97	2020-03-03 15:07:55.977361
137	Computer	S200303	0.8333333333333334	2	1	1	2	0.7	1500.000003	1350.0000027	1500.000003	1783.3333369	Minor	Good_deeds	16	You have eaten something in the MRT train	C1_5	0.95	Easy	I2_36	52	Arabi is the oldest surviving breed of horse	0.0555555555555556	No	LEFT	638.9542000001711	RIGHT	504.2193000003863	RIGHT	1226.784000000407	RIGHT	1439.4384999995964	21.7	0.7	Probable_Truth	RIGHT	RIGHT	3	792.1743219691691	98	2020-03-03 15:08:19.290213
66	Self	S200303	0.6666666666666666	1	2	1	2	0.1	1500.000003	1433.3333362	2500.000005	1933.3333372	Major	Wrong_doings	9	You have volunteered for a disaster-related humanitarian mission	C2_54	0.05	Hard	I1_14	11	There are 6 million animal species on Earth	0.0	Yes	RIGHT	361.5320999997493	RIGHT	1757.6226999999562	LEFT	1468.425400000342	RIGHT	2158.7924000000385	21.8	0.1	Probable_Truth	RIGHT	RIGHT	3	802.2413999997298	99	2020-03-03 15:08:45.777486
44	Self	S200303	0.8333333333333334	2	1	2	1	0.4	1216.6666691	1283.3333359	2350.0000047	1933.3333372	Major	Wrong_doings	58	You have engaged in money laundering	C1_59	0.2	Easy	I1_43	3	Red is a color	0.0	Yes	RIGHT	282.5636000002305	RIGHT	208.8728999997329	LEFT	766.0164999997505	RIGHT	983.570200000031	22.2	0.4	Probable_Truth	RIGHT	RIGHT	3	595.6284000003507	100	2020-03-03 15:09:07.968597
21	Self	S200303	0.6666666666666666	1	2	2	1	0.5	1216.6666691	1283.3333359	1783.3333369	2216.6666711000003	Major	Good_deeds	6	You have faked an illness	C1_12	0.0	Hard	I2_39	47	Most plants emit oxygen in the day	0.722222222222222	Yes	RIGHT	224.5006000002832	RIGHT	401.97230000012496	LEFT	1400.8960999999545	RIGHT	1209.2502000000422	22.7	0.5	Probable_Truth	LEFT	LEFT	1	729.7050000001946	101	2020-03-03 15:09:31.009883
42	Self	S200303	0.8333333333333334	2	1	1	2	0.5	1500.000003	1216.6666691	1783.3333369	1783.3333369	Minor	Good_deeds	34	You have attended all lectures as a student	C2_58	0.1	Hard	I1_3	49	The Franco-Prussian War occurred in the 19th century	0.0	Yes	RIGHT	675.6027000001268	RIGHT	297.1185000001242	LEFT	1660.280800000237	LEFT	1558.9439000000311	23.2	0.5	Probable_Truth	RIGHT	RIGHT	6	703.8118999998915	102	2020-03-03 15:09:54.763287
121	Computer	S200303	0.6666666666666666	2	1	1	2	0.4	1433.3333362	1066.6666688	1650.0000033	2500.000005	Major	Good_deeds	33	You have started an NGO using your savings	C1_33	0.0	Hard	I1_25	9	Acoustic Kitty refers to cat with implants	0.888888888888889	Yes	LEFT	581.3578000002053	RIGHT	104.39510000014708	LEFT	1069.0435999999863	LEFT	1495.9494999998242	23.2	0.4	Probable_Truth	RIGHT	LEFT	1	873.3521748085795	103	2020-03-03 15:10:18.096825
39	Self	S200303	0.8333333333333334	1	2	2	1	0.3	1433.3333362	1150.0000023	1783.3333369	1783.3333369	Minor	Good_deeds	57	You have helped with household chores	C2_19	1.0	Hard	I2_44	41	Animals are living things	0.111111111111111	Yes	RIGHT	623.6183999999412	RIGHT	529.6218000003137	RIGHT	1231.9041999999172	RIGHT	873.7719999999172	23.5	0.3	Probable_Truth	RIGHT	RIGHT	3	630.9997000003023	104	2020-03-03 15:10:40.715216
94	Self	S200303	0.8333333333333334	2	1	2	1	0.8	1433.3333362	1350.0000027	1783.3333369	1783.3333369	Major	Good_deeds	53	You have sorted your trash into recycling bin	C1_4	0.7	Easy	I1_57	38	February has 30 days	1.0	No	RIGHT	1002.523999999994	LEFT	503.5090999999738	RIGHT	790.9313999998631	LEFT	1066.7223000000376	22.7	0.8	Probable_Lie	RIGHT	RIGHT	1	534.1271000002052	105	2020-03-03 15:11:03.536738
16	Self	S200303	0.6666666666666666	1	2	1	2	0.4	1433.3333362	1350.0000027	1933.3333372	1783.3333369	Minor	Wrong_doings	14	You have adopted a zero-waste lifestyle	C2_60	1.0	Easy	I2_40	48	Nomophobia is the fear of being without a phone or computer	0.666666666666667	No	RIGHT	264.1054000000622	RIGHT	362.656700000116	LEFT	2298.5686000001806	RIGHT	1726.976999999806	23.1	0.4	Probable_Truth	RIGHT	RIGHT	5	743.7891999998101	106	2020-03-03 15:11:28.009382
64	Self	S200303	0.6666666666666666	1	2	1	2	0.8	1150.0000023	1150.0000023	1783.3333369	1650.0000033	Minor	Wrong_doings	42	You have engaged in underage smoking	C1_9	0.85	Hard	I1_58	14	Christmas Day is in March	0.888888888888889	No	RIGHT	1047.801299999719	LEFT	1427.2197000000233	LEFT	1415.4838999997992	LEFT	1031.7070000000967	22.3	0.8	Probable_Lie	RIGHT	RIGHT	2	701.0340000001634	107	2020-03-03 15:11:51.938020
130	Computer	S200303	0.8333333333333334	1	2	1	2	0.7	1433.3333362	1000.000002	1783.3333369	1933.3333372	Minor	Good_deeds	47	You have confessed to your mistake	C2_57	1.0	Hard	I2_38	28	The first Grammy awards was held in 1959	1.0	Yes	LEFT	272.0476999998027	RIGHT	1560.3022000000235	RIGHT	1950.3661000003376	RIGHT	735.4333000002953	22.3	0.7	Probable_Truth	RIGHT	LEFT	1	925.3198486997444	108	2020-03-03 15:12:16.088865
80	Self	S200303	0.8333333333333334	1	2	1	2	0.6	1150.0000023	1350.0000027	2066.6666708	1500.000003	Minor	Wrong_doings	7	You have stopped using plastics completely	C1_37	0.05	Easy	I1_10	6	Brazil is in South America	0.0555555555555556	No	RIGHT	129.03760000017428	RIGHT	462.52210000011473	LEFT	1165.8269999998083	RIGHT	951.636100000087	22.9	0.6	Probable_Truth	LEFT	LEFT	1	821.7144000000189	109	2020-03-03 15:12:38.256814
84	Self	S200303	0.8333333333333334	1	2	2	1	0.1	1433.3333362	1000.000002	1650.0000033	1933.3333372	Major	Good_deeds	53	You have made someone cry	C1_28	0.1	Easy	I1_45	27	There are 30 hours in a day	0.0	No	RIGHT	192.2244000002138	LEFT	1087.3224000001755	RIGHT	1296.2357999999767	LEFT	1908.0849000001765	22.8	0.1	Probable_Lie	LEFT	LEFT	6	662.8422000003411	110	2020-03-03 15:13:01.993221
76	Self	S200303	0.6666666666666666	2	1	2	1	0.8	1000.000002	1500.000003	1650.0000033	2216.6666711000003	Major	Good_deeds	36	You have downloaded pirated movies	C1_38	0.7	Easy	I2_21	21	The Amazon forest covers an area of 1 billion acres	0.944444444444444	No	RIGHT	1144.1129999998338	LEFT	111.5168999999696	RIGHT	1167.0570000001137	RIGHT	1319.8612999999568	22.0	0.8	Probable_Lie	LEFT	LEFT	5	763.9420000000428	111	2020-03-03 15:13:25.442285
89	Self	S200303	0.8333333333333334	2	1	1	2	0.2	1500.000003	1066.6666688	2066.6666708	2500.000005	Minor	Wrong_doings	4	You have been convicted in court	C2_27	0.0	Hard	I1_13	30	Penguin can fly with their wings	0.0555555555555556	No	RIGHT	702.1159999999327	RIGHT	232.3594999998022	LEFT	973.9369000003536	LEFT	848.9896999999473	22.2	0.2	Probable_Truth	LEFT	LEFT	1	682.710699999916	112	2020-03-03 15:13:48.584471
33	Self	S200303	0.8333333333333334	1	2	1	2	0.6	1066.6666688	1000.000002	1650.0000033	1650.0000033	Major	Wrong_doings	30	You have risked your life to save another person's life	C2_8	0.05	Easy	I2_54	34	North Korea is more developed than South Korea	0.0	No	RIGHT	207.52420000007987	RIGHT	448.3678000001418	LEFT	1095.3890999999203	LEFT	1328.2522000004064	22.8	0.6	Probable_Truth	RIGHT	RIGHT	2	686.5551999999298	113	2020-03-03 15:14:10.290088
29	Self	S200303	0.6666666666666666	2	1	2	1	0.4	1350.0000027	1216.6666691	2216.6666711000003	2216.6666711000003	Minor	Good_deeds	47	You have watched an M18 movie when you were underage	C2_50	0.0	Easy	I1_46	46	The sun rises at night	0.722222222222222	Yes	RIGHT	607.8456000000187	LEFT	177.02809999991587	RIGHT	854.4613999997637	LEFT	960.3071000001364	22.4	0.4	Probable_Lie	LEFT	LEFT	6	726.1959000002207	114	2020-03-03 15:14:33.192355
102	Computer	S200303	0.5	1	2	2	1	0.5	1283.3333359	1283.3333359	2350.0000047	1500.000003	Major	Good_deeds	7	You have used a fake name online	C1_7	0.15	Easy	I2_46	17	The Earth is round	0.0555555555555556	No	LEFT	271.6660999999476	LEFT	868.0573000001459	RIGHT	839.3513000000894	RIGHT	1199.0292999998928	22.4	0.5	Probable_Lie	RIGHT	LEFT	4	529.7468438191304	115	2020-03-03 15:14:55.889244
140	Computer	S200303	0.8333333333333334	2	1	2	1	0.4	1433.3333362	1283.3333359	1783.3333369	1500.000003	Major	Wrong_doings	58	You have engaged in money laundering	C1_59	0.2	Easy	I1_43	3	Red is a color	0.0	Yes	LEFT	841.2491999997656	RIGHT	96.74489999997604	LEFT	704.4968999998673	RIGHT	1199.022799999966	22.4	0.4	Probable_Truth	LEFT	LEFT	1	582.6487381523465	116	2020-03-03 15:15:17.881407
22	Self	S200303	0.6666666666666666	1	2	2	1	0.3	1000.000002	1433.3333362	2500.000005	2350.0000047	Minor	Wrong_doings	12	You have been restricting your electricity consumption	C1_22	0.85	Easy	I1_47	39	Carnivore refers to meat-eater	0.0555555555555556	Yes	RIGHT	558.6139000001822	RIGHT	956.688700000086	RIGHT	1454.587100000026	RIGHT	1061.3925000002382	22.7	0.3	Probable_Truth	RIGHT	RIGHT	5	919.7165000000496	117	2020-03-03 15:15:42.688429
71	Self	S200303	0.6666666666666666	1	2	2	1	0.5	1000.000002	1283.3333359	2066.6666708	2350.0000047	Minor	Good_deeds	29	You have provided shelter for stray animals	C1_58	0.05	Easy	I2_11	58	Statute of Liberty is in New York	0.833333333333333	Yes	RIGHT	182.76960000002876	RIGHT	423.4071000000768	LEFT	1270.6789999997454	RIGHT	1424.9582000002192	23.2	0.5	Probable_Truth	LEFT	LEFT	1	654.4904000002134	118	2020-03-03 15:16:05.920481
1	Self	S200303	0.5	1	2	1	2	0.3	1433.3333362	1066.6666688	1500.000003	1500.000003	Minor	Good_deeds	23	You have engaged in drink-driving	C1_23	0.7	Hard	I2_4	33	Singapore is a poor country	0.0	No	RIGHT	183.8176999999632	LEFT	757.4813000001086	LEFT	910.9926000000996	LEFT	808.7525999999343	22.9	0.3	Probable_Lie	RIGHT	RIGHT	2	866.1528000002363	119	2020-03-03 15:16:27.520532
129	Computer	S200303	0.8333333333333334	1	2	1	2	0.1	1500.000003	1150.0000023	1650.0000033	2350.0000047	Major	Wrong_doings	30	You have risked your life to save another person's life	C2_8	0.05	Easy	I2_54	34	North Korea is more developed than South Korea	0.0	No	LEFT	400.7673999999497	LEFT	649.7433999998066	LEFT	995.3785000002426	LEFT	775.3268000001299	22.9	0.1	Probable_Lie	LEFT	RIGHT	1	920.9607744080658	120	2020-03-03 15:16:50.481309
119	Computer	S200303	0.6666666666666666	1	2	2	1	0.2	1350.0000027	1350.0000027	1783.3333369	2350.0000047	Major	Good_deeds	46	You have bribed a police officer	C1_60	0.45	Hard	I2_17	2	A square has 3 corners	0.0	Yes	LEFT	280.16440000010334	LEFT	574.3458000001738	LEFT	656.4324999999371	LEFT	1019.6172999999362	22.9	0.2	Probable_Lie	LEFT	RIGHT	2	558.418027261926	121	2020-03-03 15:17:12.961532
143	Computer	S200303	0.8333333333333334	2	1	2	1	0.5	1216.6666691	1500.000003	2216.6666711000003	2216.6666711000003	Major	Good_deeds	25	You have helped your parents when asked to	C2_25	1.0	Hard	I1_52	21	Last day of the year is 30th December	0.888888888888889	No	LEFT	746.7930000002525	RIGHT	80.21959999996398	RIGHT	1344.3463000003248	LEFT	2142.6157999999305	22.9	0.5	Probable_Truth	LEFT	LEFT	1	638.2499112820846	122	2020-03-03 15:17:37.632388
14	Self	S200303	0.5	2	1	2	1	0.4	1066.6666688	1000.000002	2066.6666708	2500.000005	Major	Good_deeds	16	You have failed to keep promises	C1_1	1.0	Easy	I1_50	1	"Statue of Liberty is 151 feet tall"	0.0	No	RIGHT	1167.2796000002563	LEFT	208.2553000000189	RIGHT	920.1136000001496	LEFT	1333.4681999999702	22.5	0.4	Probable_Lie	RIGHT	LEFT	6	1586.6550000000643	123	2020-03-03 15:18:02.057406
79	Self	S200303	0.6666666666666666	2	1	2	1	0.7	1350.0000027	1283.3333359	1783.3333369	2500.000005	Minor	Good_deeds	15	You have started a movement to support a cause	C2_42	0.0	Easy	I2_26	26	The Eiffel Tower is in Paris	0.0	No	RIGHT	1179.062700000031	LEFT	192.6047000001745	LEFT	725.7692999996834	RIGHT	797.976700000163	21.8	0.7	Probable_Lie	RIGHT	RIGHT	2	598.3302999998159	124	2020-03-03 15:18:25.040625
87	Self	S200303	0.8333333333333334	1	2	2	1	0.4	1350.0000027	1283.3333359	1783.3333369	2350.0000047	Minor	Wrong_doings	37	You have complimented others for good work	C2_53	0.0	Hard	I2_13	10	French is Singapore's official language	0.944444444444444	Yes	RIGHT	177.2015999999894	RIGHT	297.8057999998782	RIGHT	1118.800100000044	LEFT	1273.7771000001885	22.2	0.4	Probable_Truth	LEFT	LEFT	1	652.4073000000499	125	2020-03-03 15:18:47.904391
56	Self	S200303	0.5	2	1	1	2	0.6	1066.6666688	1000.000002	2216.6666711000003	1650.0000033	Major	Wrong_doings	31	You have said thank you when you have received help	C1_27	1.0	Hard	I1_54	19	Afghan Hound is the first cloned cat	0.0	No	RIGHT	465.9744999999021	RIGHT	79.49290000033216	RIGHT	832.363400000304	LEFT	1381.8231999998716	22.8	0.6	Probable_Truth	LEFT	RIGHT	4	637.4421999998958	126	2020-03-03 15:19:09.808410
118	Computer	S200303	0.6666666666666666	1	2	2	1	0.5	1500.000003	1216.6666691	2216.6666711000003	2500.000005	Minor	Wrong_doings	12	You have been restricting your electricity consumption	C1_22	0.85	Easy	I1_47	39	Carnivore refers to meat-eater	0.0555555555555556	Yes	LEFT	192.5507999999354	RIGHT	566.3949000004322	RIGHT	943.6869999999544	RIGHT	965.5667000001812	22.8	0.5	Probable_Truth	RIGHT	RIGHT	3	554.1288789018129	127	2020-03-03 15:19:33.032560
54	Self	S200303	0.5	1	2	2	1	0.3	1066.6666688	1283.3333359	2066.6666708	2500.000005	Minor	Wrong_doings	24	You have cheated on a test	C1_48	0.95	Hard	I2_5	45	Singapore is in Africa	0.0	No	RIGHT	104.23050000008516	LEFT	774.9159999998483	LEFT	719.3881000002875	LEFT	974.0382999998474	22.5	0.3	Probable_Lie	LEFT	RIGHT	1	707.5216999996883	128	2020-03-03 15:19:55.802184
32	Self	S200303	0.8333333333333334	1	2	1	2	0.4	1500.000003	1350.0000027	1933.3333372	1933.3333372	Major	Good_deeds	8	You have blackmailed others for money	C1_44	0.0	Hard	I1_40	54	There are 20 bones in the human skull	0.0	No	RIGHT	448.1523999997989	LEFT	644.4362000002002	LEFT	1466.7044999996506	LEFT	1166.70860000022	22.1	0.4	Probable_Lie	RIGHT	RIGHT	1	819.3450000003395	129	2020-03-03 15:20:19.640580
98	Computer	S200303	0.5	1	2	1	2	0.7	1066.6666688	1350.0000027	1933.3333372	2216.6666711000003	Minor	Wrong_doings	43	You have signed up as a bone marrow donor	C1_39	0.1	Hard	I2_31	6	Today is a weekday	0.833333333333333	Yes	LEFT	112.7321000003576	RIGHT	501.258400000097	LEFT	793.2415999998739	RIGHT	1104.0045999998256	22.1	0.7	Probable_Truth	LEFT	LEFT	3	727.7133678642665	130	2020-03-03 15:20:42.024728
112	Computer	S200303	0.6666666666666666	1	2	1	2	0.1	1066.6666688	1433.3333362	1500.000003	1933.3333372	Minor	Wrong_doings	14	You have adopted a zero-waste lifestyle	C2_60	1.0	Easy	I2_40	48	Nomophobia is the fear of being without a phone or computer	0.666666666666667	No	LEFT	119.82919999991282	LEFT	757.3545999998714	LEFT	973.3906999999816	RIGHT	1143.3615999999347	22.1	0.1	Probable_Lie	RIGHT	RIGHT	2	575.7313055210827	131	2020-03-03 15:21:04.088951
128	Computer	S200303	0.8333333333333334	1	2	1	2	0.5	1283.3333359	1350.0000027	2350.0000047	1500.000003	Major	Good_deeds	8	You have blackmailed others for money	C1_44	0.0	Hard	I1_40	54	There are 20 bones in the human skull	0.0	No	LEFT	200.5698000002667	RIGHT	1471.5535000000273	LEFT	750.6244999999581	LEFT	879.4543999997586	22.1	0.5	Probable_Truth	LEFT	RIGHT	6	821.9829101864478	132	2020-03-03 15:21:27.256756
25	Self	S200303	0.6666666666666666	2	1	1	2	0.6	1066.6666688	1066.6666688	1650.0000033	2066.6666708	Major	Good_deeds	33	You have started an NGO using your savings	C1_33	0.0	Hard	I1_25	9	Acoustic Kitty refers to cat with implants	0.888888888888889	Yes	RIGHT	774.8405999996066	RIGHT	256.7104999998264	LEFT	990.9991999998056	LEFT	783.5566999997354	22.700000000000003	0.6	Probable_Truth	LEFT	LEFT	2	641.9124999997621	133	2020-03-03 15:21:49.128535
68	Self	S200303	0.6666666666666666	1	2	2	1	0.4	1433.3333362	1350.0000027	1500.000003	2066.6666708	Major	Wrong_doings	58	You have sold illegal drugs	C2_9	0.8	Easy	I2_42	3	Lehman Brothers went bankrupt on 20th September	0.0	No	RIGHT	161.1864000001333	RIGHT	269.45419999992737	LEFT	872.1535999998196	RIGHT	1975.8757999998124	23.1	0.4	Probable_Truth	RIGHT	RIGHT	3	1393.1219999999485	134	2020-03-03 15:22:12.720738
133	Computer	S200303	0.8333333333333334	1	2	2	1	0.8	1000.000002	1283.3333359	2500.000005	2500.000005	Major	Wrong_doings	45	You have been arrested	C1_47	0.05	Easy	I2_34	44	There are 10 continents in the World	0.0555555555555556	No	LEFT	216.6251999997257	RIGHT	413.8853999997991	LEFT	1742.5058000003446	LEFT	1788.342300000295	23.1	0.8	Probable_Truth	RIGHT	RIGHT	6	596.9550542326368	135	2020-03-03 15:22:37.336592
27	Self	S200303	0.6666666666666666	2	1	1	2	0.1	1150.0000023	1000.000002	2500.000005	1500.000003	Major	Wrong_doings	46	You have helped others to pick up their belongings	C2_47	0.95	Easy	I1_9	60	The Moon orbits around the Earth	0.888888888888889	No	RIGHT	477.7433999997811	RIGHT	63.66620000017065	RIGHT	1660.0782000000436	RIGHT	831.3517000001411	23.200000000000003	0.1	Probable_Truth	LEFT	LEFT	2	1074.8876000002383	136	2020-03-03 15:23:00.167313
63	Self	S200303	0.5	2	1	2	1	0.7	1216.6666691	1350.0000027	1650.0000033	1933.3333372	Minor	Good_deeds	39	You have taken months off to volunteer	C1_19	0.0	Hard	I1_23	50	R. Amundsen discovered the South Pole	0.0	Yes	RIGHT	783.3530000002611	LEFT	136.80070000009437	LEFT	1096.4304999997694	RIGHT	1293.8358999999764	22.500000000000004	0.7	Probable_Lie	RIGHT	RIGHT	2	1341.5454999999383	137	2020-03-03 15:23:23.544605
135	Computer	S200303	0.8333333333333334	1	2	2	1	0.6	1150.0000023	1066.6666688	2216.6666711000003	1783.3333369	Minor	Good_deeds	57	You have helped with household chores	C2_19	1.0	Hard	I2_44	41	Animals are living things	0.111111111111111	Yes	LEFT	208.323300000302	RIGHT	877.4290999999721	RIGHT	783.1943000001047	RIGHT	1131.9610000000466	22.500000000000004	0.6	Probable_Truth	LEFT	LEFT	1	517.1416048054791	138	2020-03-03 15:23:45.848624
51	Self	S200303	0.5	1	2	1	2	0.8	1000.000002	1066.6666688	1933.3333372	1933.3333372	Major	Good_deeds	35	You have lied to your parents	C2_11	0.95	Easy	I1_44	4	A dog has four legs	0.0	No	RIGHT	304.15629999970406	RIGHT	355.7310999999572	RIGHT	1420.6874999999854	RIGHT	792.6745999998275	23.300000000000004	0.8	Probable_Truth	RIGHT	RIGHT	5	797.5940000001174	139	2020-03-03 15:24:08.023538
90	Self	S200303	0.8333333333333334	2	1	1	2	0.4	1150.0000023	1216.6666691	1650.0000033	2216.6666711000003	Minor	Good_deeds	52	You have been donating all your excess food to a food bank	C1_43	0.8	Hard	I1_38	55	Airbags in cars are filled with sodium azide	0.666666666666667	No	RIGHT	350.3034999998817	RIGHT	102.51759999982824	LEFT	1519.0889000000425	LEFT	1871.693999999934	23.700000000000003	0.4	Probable_Truth	RIGHT	RIGHT	4	954.2328000002271	140	2020-03-03 15:24:31.633211
126	Computer	S200303	0.6666666666666666	2	1	2	1	0.1	1283.3333359	1000.000002	2350.0000047	2216.6666711000003	Minor	Wrong_doings	3	You have fabricated facts about yourself	C2_23	0.65	Easy	I1_42	12	It sometimes snows in Singapore	0.0	Yes	LEFT	2235.492400000112	RIGHT	183.60819999998057	LEFT	1271.0433000002013	LEFT	945.5806000000848	23.700000000000003	0.1	Probable_Truth	LEFT	RIGHT	6	925.5931335094556	141	2020-03-03 15:24:56.609209
36	Self	S200303	0.8333333333333334	1	2	2	1	0.2	1350.0000027	1283.3333359	1500.000003	2500.000005	Major	Wrong_doings	6	You have watched a pirated movie	C1_30	0.0	Easy	I1_27	40	Some owl species hunt fish	0.764705882352941	No	LEFT	528.4378000001198	RIGHT	1357.8644999997778	RIGHT	734.696299999996	RIGHT	1556.2735000003158	23.700000000000003	0.2	Probable_Truth	LEFT	LEFT	1	788.9752999999473	142	2020-03-03 15:25:20.784402
120	Computer	S200303	0.6666666666666666	2	1	1	2	0.6	1066.6666688	1150.0000023	1783.3333369	1933.3333372	Major	Wrong_doings	23	You have engaged in arson	C1_3	0.0	Hard	I2_12	56	Beef comes from cows	0.0555555555555556	No	LEFT	852.7795999998489	LEFT	205.9289999997418	LEFT	1006.769600000098	RIGHT	872.8055999999924	23.700000000000003	0.6	Probable_Lie	RIGHT	RIGHT	1	905.0899137811704	143	2020-03-03 15:25:43.128420
