index	Trial_Type	Participant_ID	Trial_Probability	Question_Position_Prediction_Correct	Question_Position_Prediction_Agent	Question_Position_Comparison_Self	Question_Position_Comparison_Irrelevant	Trial_Stake	Trial_Stake_Jitter	Trial_Type_Jitter	Trial_Result_Jitter	Balance_Update_Jitter	Question_Comparison_Condition	Question_Comparison_Type	Question_Comparison_Question	Question_Comparison_Label	Question_Comparison_Item	Question_Comparison_Proportion_Yes	Question_Factual_Condition	Question_Factual_Item	Question_Factual_Question	Question_Factual_Label	Question_Factual_Proportion_DontKnow	Question_Factual_Type	Answer_Prediction_Agent	Answer_Prediction_Agent_RT	Answer_Prediction_Correct	Answer_Prediction_Correct_RT	Answer_Self	Answer_Self_RT	Answer_Irrelevant	Answer_Irrelevant_RT	Trial_Balance	Trial_Balance_Effect	Trial_Condition	Trial_ProbableSide	Prediction_Choice	Prediction_Result	Prediction_RT	Trial_Order	Trial_Datetime
122	Computer	S210224	0.6666666666666666	2	1	1	2	0.1	1150.0000023	1500.000003	2216.6666711000003	1650.0000033	Minor	Good_deeds	14	You have attended all lectures as a student	C2_28	0.0	Easy	I1_28	60	A dog has four legs	0.0	Yes	LEFT	686.034100000029	LEFT	927.2430000000328	RIGHT	1495.8735999999817	RIGHT	998.1730000000084	10.0	0.1	Probable_Lie	RIGHT	RIGHT	1	711.9962829472958	0	2021-02-24 14:28:51.518471
64	Self	S210224	0.6666666666666666	1	2	1	2	0.4	1500.000003	1066.6666688	1933.3333372	1650.0000033	Major	Wrong_doings	23	You have watched an M18 movie when you were underage	C1_47	0.05	Easy	I1_26	13	Fishes can swim in water	0.777777777777778	No	RIGHT	622.9109000000221	RIGHT	548.9903999999797	LEFT	1631.6597999999658	RIGHT	1032.0125999999732	10.4	0.4	Probable_Truth	RIGHT	RIGHT	6	590.3511999999864	1	2021-02-24 14:29:14.672979
82	Self	S210224	0.8333333333333334	1	2	1	2	0.7	1066.6666688	1000.000002	2500.000005	2350.0000047	Minor	Good_deeds	35	You have lied to your parents	C2_11	1.0	Hard	I2_45	53	Statute of Liberty is in New York	0.0	No	RIGHT	457.0247999999992	RIGHT	477.642000000003	LEFT	1035.356399999955	RIGHT	1207.8865999999948	11.1	0.7	Probable_Truth	RIGHT	RIGHT	2	932.8899000000206	2	2021-02-24 14:29:38.286758
95	Self	S210224	0.8333333333333334	2	1	2	1	0.8	1000.000002	1216.6666691	1500.000003	2350.0000047	Minor	Wrong_doings	9	You have sold illegal drugs	C1_9	0.95	Hard	I1_52	14	Obama is the USA president now	0.888888888888889	Yes	RIGHT	668.161600000019	RIGHT	518.7477000000058	LEFT	903.9763000000108	LEFT	1436.055900000042	11.9	0.8	Probable_Truth	RIGHT	RIGHT	4	724.7057000000154	3	2021-02-24 14:30:01.184718
66	Self	S210224	0.6666666666666666	1	2	1	2	0.7	1433.3333362	1433.3333362	1500.000003	2350.0000047	Major	Good_deeds	42	You have helped others to pick up their belongings	C2_23	0.0	Hard	I1_41	60	Marijuana is legal in Singapore	0.0	Yes	RIGHT	463.67570000001024	RIGHT	564.4092	RIGHT	1298.612300000002	LEFT	1063.7968000000342	12.6	0.7	Probable_Truth	RIGHT	RIGHT	3	833.8052999999945	4	2021-02-24 14:30:24.704139
79	Self	S210224	0.6666666666666666	2	1	2	1	0.6	1066.6666688	1500.000003	2216.6666711000003	1933.3333372	Major	Wrong_doings	31	You have volunteered every week for many years	C1_19	0.1	Hard	I2_39	31	South East Asia is currently free from polio	0.0	Yes	LEFT	752.69899999995	LEFT	768.9204000000132	RIGHT	1247.1977000000152	RIGHT	3056.128400000034	12.6	0.6	Probable_Lie	RIGHT	RIGHT	2	761.5906999999993	5	2021-02-24 14:30:50.582518
81	Self	S210224	0.8333333333333334	1	2	1	2	0.6	1350.0000027	1283.3333359	2216.6666711000003	1650.0000033	Minor	Wrong_doings	40	You have taken part in violent demonstration	C2_1	0.0	Easy	I1_24	58	Septicemia is a lung infection condition	0.944444444444444	Yes	RIGHT	592.4939000000222	RIGHT	655.6924999999865	LEFT	1416.5956000000506	LEFT	1519.548400000076	13.2	0.6	Probable_Lie	LEFT	LEFT	5	950.9080999999924	6	2021-02-24 14:31:14.791941
5	Self	S210224	0.5	1	2	2	1	0.6	1500.000003	1500.000003	1500.000003	1650.0000033	Major	Wrong_doings	6	You have sheltered others from disasters	C2_48	0.15	Hard	I1_17	54	Singapore is a poor country	0.0555555555555556	Yes	RIGHT	608.4492000001092	LEFT	1134.1125000000147	RIGHT	1197.7679999999964	LEFT	1175.505199999975	12.6	0.6	Probable_Lie	LEFT	LEFT	5	1039.2868000000135	7	2021-02-24 14:31:38.670603
106	Computer	S210224	0.5	2	1	1	2	0.3	1150.0000023	1066.6666688	1933.3333372	2350.0000047	Major	Wrong_doings	60	You have queued to enter the MRT train	C2_30	1.0	Hard	I1_40	40	Summer is hotter than winter	0.888888888888889	Yes	LEFT	945.797999999968	LEFT	1152.3833000001105	RIGHT	1363.0957999999964	RIGHT	1640.7593000000134	12.6	0.3	Probable_Lie	RIGHT	LEFT	5	785.6385330190017	8	2021-02-24 14:32:03.624156
9	Self	S210224	0.5	2	1	1	2	0.4	1283.3333359	1066.6666688	1933.3333372	1500.000003	Major	Good_deeds	3	You have returned your trays in food courts	C2_60	0.05	Easy	I1_15	1	Animals are living things	0.0	Yes	RIGHT	707.3920000000271	RIGHT	384.00979999994433	RIGHT	1333.1801000000496	RIGHT	815.6893999999966	13.0	0.4	Probable_Truth	RIGHT	RIGHT	6	944.6281000000454	9	2021-02-24 14:32:26.166794
107	Computer	S210224	0.5	2	1	1	2	0.7	1283.3333359	1433.3333362	1783.3333369	2500.000005	Major	Good_deeds	45	You have fabricated facts about yourself	C1_3	0.5	Hard	I2_34	39	There are 30 hours in a day	0.0	No	LEFT	1229.115800000045	RIGHT	1248.3319000000392	LEFT	1398.0808000000025	LEFT	1119.7855000000343	13.0	0.7	Probable_Truth	RIGHT	LEFT	3	703.0626361997042	10	2021-02-24 14:32:51.430463
22	Self	S210224	0.6666666666666666	1	2	2	1	0.7	1150.0000023	1150.0000023	2066.6666708	2500.000005	Minor	Good_deeds	13	You have helped a friend in need	C2_17	0.85	Hard	I2_36	27	There are 10 continents in the World	0.666666666666667	Yes	RIGHT	468.8361999999415	RIGHT	579.0653000000248	RIGHT	828.5514000000376	LEFT	1535.4905000000372	13.7	0.7	Probable_Truth	RIGHT	RIGHT	4	789.8355999999467	11	2021-02-24 14:33:15.095367
141	Computer	S210224	0.8333333333333334	2	1	2	1	0.1	1500.000003	1350.0000027	2350.0000047	1783.3333369	Major	Good_deeds	58	You have provided shelter for stray animals	C1_12	1.0	Easy	I1_32	46	R. Amundsen discovered the South Pole	0.0	No	LEFT	766.8788000000859	RIGHT	752.9647000000068	RIGHT	983.7551000000532	LEFT	1802.9200999999373	13.7	0.1	Probable_Truth	RIGHT	LEFT	1	881.6684295007897	12	2021-02-24 14:33:39.846745
135	Computer	S210224	0.8333333333333334	1	2	2	1	0.2	1000.000002	1216.6666691	2500.000005	2350.0000047	Minor	Wrong_doings	34	You have gossiped about your best friend	C1_8	1.0	Hard	I2_8	35	Lehman Brothers went bankrupt on 20th September	0.722222222222222	No	LEFT	424.5392999999922	RIGHT	1200.1129999999876	LEFT	1008.3596999999144	RIGHT	3004.200200000014	13.7	0.2	Probable_Lie	LEFT	LEFT	3	767.1113366358031	13	2021-02-24 14:34:05.886581
96	Computer	S210224	0.5	1	2	1	2	0.7	1500.000003	1350.0000027	1650.0000033	2350.0000047	Minor	Good_deeds	10	You have said sorry when you were rude	C1_38	0.95	Easy	I2_28	46	Bears have the biggest eyes among mammals	0.944444444444444	Yes	LEFT	376.7178999999032	RIGHT	786.7233000000624	RIGHT	1780.0703999999996	LEFT	1951.9235999999864	13.7	0.7	Probable_Truth	LEFT	LEFT	3	956.0742044329317	14	2021-02-24 14:34:31.151210
129	Computer	S210224	0.8333333333333334	1	2	1	2	0.6	1283.3333359	1066.6666688	2066.6666708	2500.000005	Major	Wrong_doings	9	You have done something against your values	C1_34	0.25	Hard	I1_1	36	Cleopatra was born in Greece	0.0	No	LEFT	592.451600000004	LEFT	677.0975999999109	LEFT	1774.8187000000826	LEFT	1536.102000000028	13.7	0.6	Probable_Lie	RIGHT	RIGHT	1	886.1678847467772	15	2021-02-24 14:34:56.094788
102	Computer	S210224	0.5	1	2	2	1	0.3	1350.0000027	1433.3333362	2216.6666711000003	1933.3333372	Minor	Wrong_doings	38	You have stolen something	C2_10	0.95	Hard	I1_21	17	Algeria is Africa's second largest country	0.0	No	LEFT	408.2446999999547	LEFT	795.1036000000613	LEFT	1031.238900000062	LEFT	2075.7174000000305	13.7	0.3	Probable_Lie	LEFT	LEFT	6	970.4437388484124	16	2021-02-24 14:35:20.877369
93	Self	S210224	0.8333333333333334	2	1	2	1	0.7	1500.000003	1283.3333359	2066.6666708	1500.000003	Minor	Good_deeds	20	You have coveted things that belong to others	C2_16	0.7	Hard	I2_53	53	Singapore has four seasons	0.888888888888889	No	RIGHT	766.8901000000687	LEFT	479.9163000000135	LEFT	2575.7653999999093	LEFT	1151.766099999918	13.0	0.7	Probable_Lie	RIGHT	RIGHT	1	744.3107999999938	17	2021-02-24 14:35:45.517377
62	Self	S210224	0.5	2	1	2	1	0.4	1216.6666691	1066.6666688	1933.3333372	2350.0000047	Major	Wrong_doings	22	You have intentionally let others cut in line	C2_3	0.1	Hard	I1_50	19	Dutch is the 6th Europe's most widely spoken language	0.611111111111111	No	RIGHT	613.372100000106	RIGHT	400.8675999999696	RIGHT	4310.26989999998	LEFT	3122.862400000031	13.4	0.4	Probable_Truth	LEFT	LEFT	2	1019.4579000000203	18	2021-02-24 14:36:14.125944
105	Computer	S210224	0.5	2	1	1	2	0.5	1500.000003	1283.3333359	2066.6666708	1500.000003	Major	Good_deeds	3	You have returned your trays in food courts	C2_60	0.05	Easy	I1_15	1	Animals are living things	0.0	Yes	LEFT	768.1344000000081	LEFT	328.9365000000544	RIGHT	1756.9816000000174	RIGHT	687.3875999999655	13.4	0.5	Probable_Lie	LEFT	LEFT	4	853.2073949392293	19	2021-02-24 14:36:37.438799
69	Self	S210224	0.6666666666666666	1	2	2	1	0.5	1000.000002	1000.000002	2066.6666708	1783.3333369	Minor	Good_deeds	50	You have sign up to sponsor a needy child	C1_16	1.0	Hard	I2_60	42	Slavery was abolished in Cuba in 1886	0.0	No	RIGHT	328.4303000000364	LEFT	1246.8430000000126	RIGHT	2975.3162000000657	RIGHT	2704.4652000000724	12.9	0.5	Probable_Lie	LEFT	LEFT	6	783.3315000000312	20	2021-02-24 14:37:03.902759
10	Self	S210224	0.5	2	1	1	2	0.6	1433.3333362	1350.0000027	1650.0000033	2350.0000047	Major	Wrong_doings	60	You have queued to enter the MRT train	C2_30	1.0	Hard	I1_40	40	Summer is hotter than winter	0.888888888888889	Yes	RIGHT	1054.3261000000257	RIGHT	527.5854000000209	RIGHT	1108.9836999999534	RIGHT	1161.383300000011	13.5	0.6	Probable_Truth	RIGHT	LEFT	1	962.3834999999872	21	2021-02-24 14:37:28.071332
72	Self	S210224	0.6666666666666666	2	1	1	2	0.7	1500.000003	1433.3333362	2066.6666708	2350.0000047	Major	Wrong_doings	39	You have given directions to a lost tourist	C1_29	0.0	Easy	I1_31	6	Chickens lay eggs	0.0	Yes	RIGHT	910.655800000086	LEFT	328.420000000051	RIGHT	1204.9595999999383	RIGHT	832.4426000000358	12.8	0.7	Probable_Lie	RIGHT	RIGHT	1	884.1349000000491	22	2021-02-24 14:37:52.151087
87	Self	S210224	0.8333333333333334	1	2	2	1	0.8	1000.000002	1216.6666691	1783.3333369	2216.6666711000003	Major	Good_deeds	37	You have held the door open for a stranger	C1_49	0.0	Hard	I2_24	24	Penguin can fly with their wings	0.0	Yes	RIGHT	288.8607999999522	RIGHT	865.6111000000237	RIGHT	880.1740999999765	LEFT	1224.515399999973	13.6	0.8	Probable_Truth	RIGHT	RIGHT	5	646.6696999999613	23	2021-02-24 14:38:14.847025
53	Self	S210224	0.5	1	2	2	1	0.8	1150.0000023	1000.000002	1500.000003	2500.000005	Major	Wrong_doings	45	You have taken part in burglary	C1_28	0.2	Easy	I2_44	48	It is night time now	0.0	Yes	RIGHT	279.2981999999711	LEFT	1340.5968000000712	LEFT	1127.3659000000862	LEFT	1308.5524000000532	12.8	0.8	Probable_Lie	RIGHT	RIGHT	1	844.3262000000686	24	2021-02-24 14:38:38.469817
75	Self	S210224	0.6666666666666666	2	1	1	2	0.5	1150.0000023	1150.0000023	2350.0000047	1500.000003	Minor	Good_deeds	19	You have watched a pirated movie	C2_8	0.8	Easy	I1_38	25	There are 7 days in a week	0.944444444444444	No	RIGHT	780.2815999999666	LEFT	359.8250000000007	LEFT	1270.5280999999786	RIGHT	896.8376000000262	12.3	0.5	Probable_Lie	RIGHT	RIGHT	1	693.563700000027	25	2021-02-24 14:39:01.190727
115	Computer	S210224	0.6666666666666666	1	2	1	2	0.3	1350.0000027	1433.3333362	1500.000003	2500.000005	Major	Good_deeds	4	You have been convicted in court	C2_53	0.45	Easy	I1_23	42	Milwaukee Art Museum is located in California	0.0	Yes	LEFT	279.50079999993704	RIGHT	926.4769999999772	LEFT	996.8883000000232	LEFT	2503.9728000000423	12.3	0.3	Probable_Truth	LEFT	RIGHT	5	769.7480608359801	26	2021-02-24 14:39:26.023182
124	Computer	S210224	0.6666666666666666	2	1	2	1	0.8	1350.0000027	1066.6666688	1650.0000033	2066.6666708	Minor	Wrong_doings	28	You have cursed at others	C1_14	0.95	Easy	I1_44	31	The first Grammy awards was held in 1959	0.666666666666667	Yes	LEFT	799.9561999999969	RIGHT	399.8983000001317	LEFT	903.3121999998456	RIGHT	1544.8044999998274	12.3	0.8	Probable_Lie	LEFT	LEFT	3	645.163054299249	27	2021-02-24 14:39:49.021603
21	Self	S210224	0.6666666666666666	1	2	2	1	0.5	1433.3333362	1500.000003	1783.3333369	1650.0000033	Major	Good_deeds	35	You have claimed doing things that you never did	C1_4	1.0	Easy	I2_22	27	Airbags in cars are filled with sodium azide	0.0	No	RIGHT	264.0767000000324	RIGHT	536.976999999979	LEFT	2584.470700000111	LEFT	2199.7180999999277	12.8	0.5	Probable_Truth	LEFT	LEFT	1	718.3743000000504	28	2021-02-24 14:40:14.264893
94	Self	S210224	0.8333333333333334	2	1	2	1	0.1	1283.3333359	1150.0000023	2216.6666711000003	2066.6666708	Major	Good_deeds	46	You have started an NGO using your savings	C2_57	0.0	Hard	I1_6	16	Cernan was the second last man to walk on the Moon	0.666666666666667	Yes	RIGHT	664.928300000156	RIGHT	257.33790000003864	RIGHT	2263.6241000000155	LEFT	2022.3757999999636	12.9	0.1	Probable_Lie	LEFT	LEFT	5	574.7828999999456	29	2021-02-24 14:40:39.334304
133	Computer	S210224	0.8333333333333334	1	2	2	1	0.1	1433.3333362	1500.000003	1650.0000033	1783.3333369	Minor	Good_deeds	57	You have a non-judgmental attitude towards everyone	C2_9	0.55	Hard	I1_36	8	Saturn's rings are between 30 and 300 feet thick	0.777777777777778	No	LEFT	367.0203000001493	LEFT	622.6412999999411	RIGHT	2720.559200000025	LEFT	4203.115600000047	12.9	0.1	Probable_Lie	LEFT	RIGHT	1	984.20462710463	30	2021-02-24 14:41:07.165384
91	Self	S210224	0.8333333333333334	2	1	1	2	0.2	1066.6666688	1350.0000027	1650.0000033	2500.000005	Major	Good_deeds	16	You have helped with household chores	C2_20	1.0	Easy	I1_14	11	The first Olympic Games was held in the 5th century B.C	0.0	Yes	RIGHT	806.2032000000272	RIGHT	317.54090000004	RIGHT	1006.6664000000856	LEFT	3519.266600000037	13.1	0.2	Probable_Truth	LEFT	LEFT	1	887.5439999999344	31	2021-02-24 14:41:32.846877
47	Self	S210224	0.8333333333333334	2	1	2	1	0.6	1350.0000027	1433.3333362	2066.6666708	2350.0000047	Major	Good_deeds	12	You have faked an illness	C1_42	0.7	Easy	I2_43	12	Singapore ranked 8th in World's smallest countries	0.0	Yes	RIGHT	678.9702999999463	RIGHT	231.6412000000128	LEFT	1079.2255999999725	RIGHT	3033.5665000000063	13.7	0.6	Probable_Truth	LEFT	LEFT	1	703.0311000000893	32	2021-02-24 14:41:58.349806
80	Self	S210224	0.8333333333333334	1	2	1	2	0.2	1150.0000023	1433.3333362	2350.0000047	2500.000005	Major	Good_deeds	11	You have held the elevator doors for others	C2_37	0.95	Easy	I1_58	45	The Seine river is 50 feet above sea level	0.0	No	RIGHT	168.71609999998327	RIGHT	1186.2566999998307	RIGHT	1277.1889999999075	LEFT	1759.941799999979	13.9	0.2	Probable_Truth	LEFT	LEFT	1	782.9949999998007	33	2021-02-24 14:42:23.533284
61	Self	S210224	0.5	2	1	2	1	0.7	1350.0000027	1500.000003	2216.6666711000003	1783.3333369	Major	Good_deeds	50	You have stopped using products tested on animals	C2_54	0.0	Hard	I2_12	29	It takes 112 years to build the Pisa Tower	0.833333333333333	Yes	RIGHT	656.632400000035	RIGHT	192.38640000003213	LEFT	3071.6200000001663	RIGHT	1570.1211999999032	14.599999999999998	0.7	Probable_Truth	RIGHT	RIGHT	4	950.2074999998058	34	2021-02-24 14:42:49.397565
118	Computer	S210224	0.6666666666666666	1	2	2	1	0.4	1433.3333362	1216.6666691	2500.000005	1783.3333369	Minor	Good_deeds	13	You have helped a friend in need	C2_17	0.85	Hard	I2_36	27	There are 10 continents in the World	0.666666666666667	Yes	LEFT	257.4397999999292	RIGHT	1009.1342000000624	RIGHT	863.1634000000759	LEFT	1141.456000000062	14.599999999999998	0.4	Probable_Truth	RIGHT	LEFT	2	942.5683509322212	35	2021-02-24 14:43:13.118637
49	Self	S210224	0.5	1	2	1	2	0.3	1283.3333359	1216.6666691	2216.6666711000003	2216.6666711000003	Minor	Good_deeds	33	You have downloaded pirated movies	C2_45	0.05	Hard	I2_49	49	The Franco-Prussian War occurred in the 19th century	0.0	No	RIGHT	127.86499999992884	LEFT	1110.8580000000077	LEFT	1151.861300000064	RIGHT	2990.689199999906	14.299999999999995	0.3	Probable_Lie	LEFT	RIGHT	1	857.3003999999855	36	2021-02-24 14:43:38.870783
52	Self	S210224	0.5	1	2	2	1	0.2	1350.0000027	1150.0000023	2350.0000047	2066.6666708	Minor	Good_deeds	24	You have confessed to your mistake	C2_33	0.0	Hard	I1_2	33	Carnivore refers to meat-eater	0.0	No	RIGHT	400.3892999999152	LEFT	1146.8141999998809	RIGHT	1440.734200000179	RIGHT	2224.682499999972	14.099999999999998	0.2	Probable_Lie	LEFT	LEFT	4	705.1746000001913	37	2021-02-24 14:44:04.277358
121	Computer	S210224	0.6666666666666666	2	1	1	2	0.5	1066.6666688	1283.3333359	2066.6666708	2216.6666711000003	Major	Good_deeds	56	You have failed to keep promises	C2_6	0.85	Easy	I2_54	28	A square has 3 corners	0.0	Yes	LEFT	635.9849999998914	RIGHT	426.546000000144	LEFT	1261.9913999999426	LEFT	1240.3492999999344	14.099999999999998	0.5	Probable_Truth	LEFT	LEFT	1	507.50621219510896	38	2021-02-24 14:44:27.549557
89	Self	S210224	0.8333333333333334	2	1	1	2	0.3	1350.0000027	1500.000003	1783.3333369	1650.0000033	Major	Good_deeds	47	You have engaged in underage smoking	C1_11	0.0	Hard	I2_16	52	There are 6 million animal species on Earth	0.0	Yes	RIGHT	392.4328000000514	RIGHT	272.9842999999619	LEFT	1439.7068000000672	LEFT	2288.064100000156	14.4	0.3	Probable_Lie	LEFT	LEFT	2	664.1955000000053	39	2021-02-24 14:44:51.462530
139	Computer	S210224	0.8333333333333334	2	1	1	2	0.8	1283.3333359	1000.000002	2500.000005	1933.3333372	Minor	Good_deeds	53	You have taken responsibility for your actions	C2_58	0.0	Hard	I2_46	3	It is snowing outside now	0.666666666666667	Yes	LEFT	757.6470999999856	RIGHT	191.48859999995693	RIGHT	1198.4893999999713	LEFT	928.0968000000483	14.4	0.8	Probable_Lie	LEFT	LEFT	5	837.4725399537447	40	2021-02-24 14:45:14.653763
13	Self	S210224	0.5	2	1	2	1	0.8	1216.6666691	1500.000003	2066.6666708	1650.0000033	Major	Wrong_doings	29	You have risked your life to save another person's life	C1_44	0.8	Easy	I2_13	8	"Statue of Liberty is 151 feet tall"	0.611111111111111	No	RIGHT	684.0185999999449	LEFT	367.0302000000447	RIGHT	1799.0480999999363	RIGHT	1663.542199999938	13.599999999999998	0.8	Probable_Lie	RIGHT	LEFT	4	890.450699999974	41	2021-02-24 14:45:39.069550
104	Computer	S210224	0.5	2	1	1	2	0.8	1433.3333362	1216.6666691	1650.0000033	2216.6666711000003	Minor	Good_deeds	30	You have taken months off to volunteer	C2_29	0.05	Easy	I1_8	13	Some owl species hunt fish	0.888888888888889	No	LEFT	607.9893000000993	LEFT	287.5745999999708	LEFT	2224.9168999999256	RIGHT	1529.0529999999762	13.599999999999998	0.8	Probable_Lie	RIGHT	LEFT	6	891.2463059991694	42	2021-02-24 14:46:03.686523
88	Self	S210224	0.8333333333333334	2	1	1	2	0.4	1433.3333362	1433.3333362	2350.0000047	1783.3333369	Minor	Wrong_doings	11	You have lost everything just to help others	C2_47	0.05	Easy	I1_35	55	December is the last month of the year	0.0	No	RIGHT	450.3248999999414	RIGHT	136.48130000001402	LEFT	4019.364700000097	RIGHT	1279.3285000000196	13.999999999999998	0.4	Probable_Truth	RIGHT	RIGHT	3	876.50450000001	43	2021-02-24 14:46:30.021558
109	Computer	S210224	0.5	2	1	2	1	0.2	1066.6666688	1350.0000027	1500.000003	1783.3333369	Major	Wrong_doings	29	You have risked your life to save another person's life	C1_44	0.8	Easy	I2_13	8	"Statue of Liberty is 151 feet tall"	0.611111111111111	No	LEFT	853.6266999999498	LEFT	112.34869999998408	LEFT	1375.4002999999102	RIGHT	996.0998999999902	13.999999999999998	0.2	Probable_Lie	RIGHT	LEFT	5	612.4500639777425	44	2021-02-24 14:46:52.245439
19	Self	S210224	0.6666666666666666	1	2	1	2	0.4	1283.3333359	1350.0000027	1500.000003	2350.0000047	Major	Good_deeds	4	You have been convicted in court	C2_53	0.45	Easy	I1_23	42	Milwaukee Art Museum is located in California	0.0	Yes	RIGHT	239.9895999999444	RIGHT	980.84259999996	LEFT	1084.2557000000852	LEFT	959.761800000024	14.4	0.4	Probable_Truth	RIGHT	RIGHT	4	910.2828000000044	45	2021-02-24 14:47:15.477780
131	Computer	S210224	0.8333333333333334	1	2	1	2	0.5	1150.0000023	1150.0000023	2350.0000047	1500.000003	Major	Good_deeds	2	You have offered a listening ear to a friend	C1_57	0.85	Easy	I2_51	10	French is Singapore's official language	0.0555555555555556	Yes	LEFT	270.9674999998697	LEFT	514.3199999999979	RIGHT	1110.4620000000978	LEFT	1352.1393999999418	14.4	0.5	Probable_Lie	RIGHT	RIGHT	1	504.2798562371922	46	2021-02-24 14:47:37.949835
85	Self	S210224	0.8333333333333334	1	2	2	1	0.1	1283.3333359	1150.0000023	2066.6666708	1933.3333372	Minor	Wrong_doings	1	You have illegally stayed in a country	C2_35	0.05	Easy	I2_59	4	Singapore is in Africa	0.0555555555555556	No	RIGHT	247.91529999993145	LEFT	1229.5248000000356	LEFT	1223.162999999886	LEFT	877.1213999998508	14.3	0.1	Probable_Lie	LEFT	LEFT	6	745.5569999999625	47	2021-02-24 14:48:01.278203
134	Computer	S210224	0.8333333333333334	1	2	2	1	0.8	1066.6666688	1433.3333362	1500.000003	1933.3333372	Major	Good_deeds	8	You have signed up as a bone marrow donor	C2_52	0.1	Easy	I1_47	58	Today is Sunday	0.0	No	LEFT	304.52630000013414	RIGHT	834.6250999998119	RIGHT	1470.8120999998755	LEFT	1157.137799999873	14.3	0.8	Probable_Truth	RIGHT	RIGHT	3	735.3147183388883	48	2021-02-24 14:49:03.573999
2	Self	S210224	0.5	1	2	1	2	0.3	1066.6666688	1283.3333359	2350.0000047	2500.000005	Minor	Good_deeds	51	You have made someone cry	C1_30	0.0	Easy	I2_41	21	Last day of the year is 30th December	0.0555555555555556	No	RIGHT	303.0255000001034	RIGHT	450.25989999999183	LEFT	1927.158899999995	LEFT	2271.669299999985	14.6	0.3	Probable_Truth	RIGHT	LEFT	2	945.4605000000812	49	2021-02-24 14:49:29.244935
65	Self	S210224	0.6666666666666666	1	2	1	2	0.1	1216.6666691	1150.0000023	1783.3333369	1933.3333372	Minor	Wrong_doings	16	You have been sued	C1_5	0.65	Easy	I2_38	26	Astatine is the rarest element in the Earth's crust	0.833333333333333	No	RIGHT	432.6427000000877	LEFT	1002.8368000000684	LEFT	1090.7854999998108	RIGHT	3031.877199999826	14.5	0.1	Probable_Lie	LEFT	LEFT	6	720.6169999999474	50	2021-02-24 14:49:54.181674
41	Self	S210224	0.8333333333333334	2	1	1	2	0.1	1433.3333362	1283.3333359	2500.000005	1933.3333372	Major	Wrong_doings	26	You have helped your parents when asked to	C2_26	0.95	Hard	I2_18	32	Today is a weekday	0.833333333333333	No	RIGHT	317.0282999999472	RIGHT	240.66839999977677	RIGHT	3333.307300000115	RIGHT	1151.1556999998902	14.6	0.1	Probable_Lie	LEFT	LEFT	2	790.0122999999439	51	2021-02-24 14:50:19.734238
0	Self	S210224	0.5	1	2	1	2	0.4	1000.000002	1150.0000023	1650.0000033	1783.3333369	Minor	Good_deeds	10	You have said sorry when you were rude	C1_38	0.95	Easy	I2_28	46	Bears have the biggest eyes among mammals	0.944444444444444	Yes	RIGHT	304.65219999996407	RIGHT	365.3870999999072	RIGHT	1160.5445000000143	LEFT	1159.763699999985	15.0	0.4	Probable_Truth	LEFT	LEFT	3	1013.8947000000372	52	2021-02-24 14:50:41.902073
46	Self	S210224	0.8333333333333334	2	1	2	1	0.5	1216.6666691	1216.6666691	2350.0000047	1783.3333369	Major	Wrong_doings	42	You have bribed someone to improve a grade	C1_17	0.2	Easy	I1_45	18	Mageirocophobia is a fear of deathly disease	0.944444444444444	No	RIGHT	322.01530000020284	RIGHT	88.02979999995841	LEFT	1260.8657000000676	LEFT	2716.850999999906	15.5	0.5	Probable_Truth	LEFT	LEFT	1	786.4764999999352	53	2021-02-24 14:51:06.220690
78	Self	S210224	0.6666666666666666	2	1	2	1	0.2	1216.6666691	1216.6666691	1500.000003	2066.6666708	Minor	Good_deeds	27	You have donated blood every 6 months for many years	C2_27	0.15	Hard	I2_6	9	It sometimes snows in Singapore	0.944444444444444	Yes	RIGHT	996.2924999999814	LEFT	257.01299999991534	RIGHT	2048.3888999999635	LEFT	1053.416900000002	15.3	0.2	Probable_Lie	RIGHT	RIGHT	1	602.2462999999334	54	2021-02-24 14:51:29.758251
48	Self	S210224	0.5	1	2	1	2	0.1	1066.6666688	1066.6666688	2066.6666708	1650.0000033	Major	Wrong_doings	31	You have drunk alcohol when you were underage	C2_18	1.0	Easy	I1_33	2	There are 6000 spoken languages in the World	1.0	No	RIGHT	81.73340000007556	LEFT	1078.5941999999975	RIGHT	2614.1580000000886	LEFT	2025.0161999999816	15.2	0.1	Probable_Lie	LEFT	RIGHT	1	903.4176000000116	55	2021-02-24 14:51:54.884505
39	Self	S210224	0.8333333333333334	1	2	2	1	0.3	1150.0000023	1350.0000027	2500.000005	1933.3333372	Minor	Wrong_doings	34	You have gossiped about your best friend	C1_8	1.0	Hard	I2_8	35	Lehman Brothers went bankrupt on 20th September	0.722222222222222	No	RIGHT	185.46420000006947	RIGHT	269.38380000001416	LEFT	1535.9805999999026	RIGHT	1387.9128000000946	15.500000000000002	0.3	Probable_Truth	LEFT	LEFT	1	777.9657999999472	56	2021-02-24 14:52:18.550066
40	Self	S210224	0.8333333333333334	2	1	1	2	0.3	1283.3333359	1150.0000023	2216.6666711000003	1500.000003	Minor	Wrong_doings	34	You have been donating all your excess food to a food bank	C2_34	0.9	Easy	I2_21	43	Hot chocolate was created by the Mayan culture	1.0	No	RIGHT	966.8616999999812	LEFT	256.2808000000132	RIGHT	2660.605999999916	LEFT	1951.283500000045	15.2	0.3	Probable_Lie	RIGHT	RIGHT	1	694.6540999999797	57	2021-02-24 14:52:43.805739
143	Computer	S210224	0.8333333333333334	2	1	2	1	0.7	1350.0000027	1283.3333359	1650.0000033	2350.0000047	Major	Good_deeds	12	You have faked an illness	C1_42	0.7	Easy	I2_43	12	Singapore ranked 8th in World's smallest countries	0.0	Yes	LEFT	770.3912000001765	LEFT	401.4608999998472	LEFT	1055.0774999999248	RIGHT	1627.8623000000607	15.2	0.7	Probable_Lie	LEFT	RIGHT	1	940.2821692457	58	2021-02-24 14:53:07.797482
51	Self	S210224	0.5	1	2	1	2	0.6	1500.000003	1350.0000027	1933.3333372	2350.0000047	Minor	Wrong_doings	28	You have bought cigarettes for a minor	C1_24	0.0	Easy	I1_48	44	There are 20 bones in the human skull	0.888888888888889	Yes	RIGHT	151.63589999997384	LEFT	813.1142000002001	LEFT	1235.7701000000816	LEFT	1478.611199999932	14.6	0.6	Probable_Lie	RIGHT	RIGHT	2	1126.0059999999612	59	2021-02-24 14:53:32.310528
29	Self	S210224	0.6666666666666666	2	1	2	1	0.4	1283.3333359	1500.000003	2500.000005	2066.6666708	Major	Good_deeds	38	You have complimented others for good work	C1_43	0.85	Hard	I1_60	54	The Eiffel Tower is in Paris	0.833333333333333	Yes	RIGHT	788.2202000000689	LEFT	415.7620000000861	RIGHT	1029.320400000188	RIGHT	1487.0528000001286	14.2	0.4	Probable_Lie	LEFT	LEFT	5	734.912900000154	60	2021-02-24 14:53:56.693270
71	Self	S210224	0.6666666666666666	1	2	2	1	0.6	1283.3333359	1500.000003	2216.6666711000003	2066.6666708	Minor	Good_deeds	25	You have been restricting your electricity consumption	C2_25	0.0	Easy	I1_37	37	The Amazon forest covers an area of 1 billion acres	0.888888888888889	No	RIGHT	303.6608999998407	RIGHT	374.91910000017015	RIGHT	1936.4817000000585	RIGHT	1463.371000000052	14.8	0.6	Probable_Truth	RIGHT	RIGHT	5	761.8167999999059	61	2021-02-24 14:54:21.173286
84	Self	S210224	0.8333333333333334	1	2	2	1	0.5	1433.3333362	1350.0000027	1500.000003	1783.3333369	Major	Wrong_doings	49	You have stopped using plastics completely	C1_15	0.65	Hard	I1_53	5	Beer is an alcoholic drink	0.777777777777778	Yes	RIGHT	278.3931000001303	RIGHT	349.3309999998928	LEFT	2007.882699999982	RIGHT	1218.2133999999678	15.3	0.5	Probable_Truth	RIGHT	RIGHT	3	666.7939999999817	62	2021-02-24 14:54:44.333273
25	Self	S210224	0.6666666666666666	2	1	1	2	0.7	1216.6666691	1066.6666688	1500.000003	1933.3333372	Major	Good_deeds	56	You have failed to keep promises	C2_6	0.85	Easy	I2_54	28	A square has 3 corners	0.0	Yes	RIGHT	221.4681999998902	RIGHT	174.1537000000335	LEFT	1253.4577000001264	LEFT	815.3535999999804	16.0	0.7	Probable_Truth	RIGHT	RIGHT	3	692.5830000000133	63	2021-02-24 14:55:05.782159
44	Self	S210224	0.8333333333333334	2	1	2	1	0.4	1000.000002	1350.0000027	1500.000003	1650.0000033	Minor	Wrong_doings	17	You have bribed a police officer	C2_14	0.0	Hard	I1_12	21	It is 20th Century now	0.0	Yes	RIGHT	1004.7770999999556	RIGHT	231.8446000001586	LEFT	830.9937000001355	LEFT	1822.9910000000016	16.4	0.4	Probable_Truth	RIGHT	RIGHT	4	776.8293000001449	64	2021-02-24 14:55:28.524442
58	Self	S210224	0.5	2	1	1	2	0.5	1283.3333359	1283.3333359	1500.000003	1650.0000033	Minor	Good_deeds	33	You have let a homeless man into your house	C1_33	0.65	Easy	I2_26	26	Malay is one of the races in Singapore	0.111111111111111	No	RIGHT	332.86070000008294	RIGHT	286.3537999999153	LEFT	1609.5465000000786	RIGHT	1383.0911000000017	16.9	0.5	Probable_Truth	RIGHT	LEFT	3	1007.1694000000662	65	2021-02-24 14:55:51.438052
31	Self	S210224	0.6666666666666666	2	1	2	1	0.3	1433.3333362	1000.000002	1783.3333369	2350.0000047	Minor	Wrong_doings	6	You have switched off appliances when not in use	C2_56	0.0	Hard	I2_31	25	Mozambique is the world's poorest country	0.944444444444444	No	RIGHT	267.13999999992666	RIGHT	24.878099999796177	RIGHT	1703.6002999998343	RIGHT	3018.535099999781	17.2	0.3	Probable_Truth	RIGHT	RIGHT	4	620.2087000001484	66	2021-02-24 14:56:16.212698
50	Self	S210224	0.5	1	2	1	2	0.4	1216.6666691	1433.3333362	1783.3333369	1783.3333369	Minor	Good_deeds	36	You have started a movement to support a cause	C1_31	0.7	Hard	I2_2	5	There are 9 rings in the Olympic flag	0.888888888888889	Yes	RIGHT	111.48789999992914	LEFT	937.918800000034	RIGHT	2671.5311999998903	LEFT	1447.9645999999775	16.8	0.4	Probable_Lie	RIGHT	RIGHT	2	2652.254800000037	67	2021-02-24 14:56:42.828524
120	Computer	S210224	0.6666666666666666	2	1	1	2	0.4	1216.6666691	1350.0000027	2500.000005	2500.000005	Major	Good_deeds	59	You have used heroin	C2_38	0.05	Easy	I2_25	11	Teddy Roosevelt was the youngest US President	0.0	No	LEFT	466.9633999997132	LEFT	370.2737000003253	LEFT	867.6414999999906	LEFT	2400.1650000000154	16.8	0.4	Probable_Lie	RIGHT	RIGHT	2	926.5356346506868	68	2021-02-24 14:57:08.004265
38	Self	S210224	0.8333333333333334	1	2	2	1	0.1	1350.0000027	1150.0000023	2216.6666711000003	2066.6666708	Major	Good_deeds	8	You have signed up as a bone marrow donor	C2_52	0.1	Easy	I1_47	58	Today is Sunday	0.0	No	RIGHT	279.72460000000865	RIGHT	255.540099999962	RIGHT	1231.2329999999747	LEFT	853.7105000000338	16.900000000000002	0.1	Probable_Truth	RIGHT	RIGHT	6	665.2633000003334	69	2021-02-24 14:57:30.652290
112	Computer	S210224	0.6666666666666666	1	2	1	2	0.2	1216.6666691	1350.0000027	2066.6666708	1933.3333372	Minor	Wrong_doings	17	You have violated a traffic law	C2_46	0.55	Hard	I2_30	23	Red is a color	0.611111111111111	No	LEFT	79.25449999993361	RIGHT	1366.8597999999292	LEFT	1531.261099999938	RIGHT	784.3087000001105	16.900000000000002	0.2	Probable_Truth	LEFT	LEFT	1	853.1886006796452	70	2021-02-24 14:57:54.404327
136	Computer	S210224	0.8333333333333334	2	1	1	2	0.4	1150.0000023	1433.3333362	1933.3333372	2500.000005	Minor	Wrong_doings	34	You have been donating all your excess food to a food bank	C2_34	0.9	Easy	I2_21	43	Hot chocolate was created by the Mayan culture	1.0	No	LEFT	860.9416999997848	LEFT	351.80369999989125	RIGHT	1533.708899999965	LEFT	879.9839000002976	16.900000000000002	0.4	Probable_Lie	RIGHT	RIGHT	1	687.8290634626917	71	2021-02-24 14:58:18.301275
34	Self	S210224	0.8333333333333334	1	2	1	2	0.6	1283.3333359	1500.000003	2066.6666708	2500.000005	Minor	Good_deeds	40	You have participated in a scamming business	C1_27	0.0	Easy	I2_35	1	The Earth turns the closest to the sun in May	0.888888888888889	Yes	RIGHT	128.77639999987878	LEFT	869.9133999998594	LEFT	1510.0077000001877	LEFT	4160.329999999703	16.3	0.6	Probable_Lie	RIGHT	RIGHT	1	641.8560000001889	72	2021-02-24 14:58:45.533018
60	Self	S210224	0.5	2	1	2	1	0.6	1000.000002	1150.0000023	1650.0000033	2500.000005	Minor	Wrong_doings	24	You have deceived a loved one	C2_39	0.0	Easy	I2_52	57	The hardest bone in human body is the jawbone	0.0	No	RIGHT	1079.218200000014	RIGHT	304.31910000015705	LEFT	1808.4826999997856	RIGHT	2974.028299999645	16.900000000000002	0.6	Probable_Truth	RIGHT	LEFT	2	1081.9099999998798	73	2021-02-24 14:59:11.652592
113	Computer	S210224	0.6666666666666666	1	2	1	2	0.7	1066.6666688	1500.000003	1933.3333372	2066.6666708	Major	Wrong_doings	46	You have extorted money from anyone	C1_35	0.05	Easy	I1_27	30	A caterpillar has more muscle than a human	0.722222222222222	No	LEFT	264.00150000017675	LEFT	457.008500000029	LEFT	952.7999000001728	RIGHT	1999.6429000002536	16.900000000000002	0.7	Probable_Lie	RIGHT	LEFT	5	973.94068946051	74	2021-02-24 14:59:35.429223
127	Computer	S210224	0.6666666666666666	2	1	2	1	0.7	1283.3333359	1150.0000023	1500.000003	1783.3333369	Minor	Wrong_doings	6	You have switched off appliances when not in use	C2_56	0.0	Hard	I2_31	25	Mozambique is the world's poorest country	0.944444444444444	No	LEFT	581.2182999998186	LEFT	424.15230000005977	RIGHT	1728.296599999794	LEFT	2146.1076000000503	16.900000000000002	0.7	Probable_Lie	RIGHT	LEFT	4	710.3065403495169	75	2021-02-24 14:59:59.318026
20	Self	S210224	0.6666666666666666	1	2	2	1	0.3	1066.6666688	1216.6666691	2216.6666711000003	2216.6666711000003	Major	Wrong_doings	53	You have volunteered for a disaster-related humanitarian mission	C1_58	0.0	Easy	I2_27	36	Africa is the continent with the least rainfall	0.111111111111111	Yes	RIGHT	296.94150000023	RIGHT	272.5485999999364	LEFT	2031.6361000000145	LEFT	1967.876100000012	17.200000000000003	0.3	Probable_Lie	LEFT	LEFT	3	723.4667999996418	76	2021-02-24 15:00:23.900717
45	Self	S210224	0.8333333333333334	2	1	2	1	0.2	1066.6666688	1500.000003	1783.3333369	2500.000005	Major	Good_deeds	58	You have provided shelter for stray animals	C1_12	1.0	Easy	I1_32	46	R. Amundsen discovered the South Pole	0.0	No	RIGHT	503.93020000001343	RIGHT	295.6938000002083	RIGHT	1191.7419000001246	LEFT	1261.16090000005	17.400000000000002	0.2	Probable_Truth	LEFT	LEFT	1	656.481900000017	77	2021-02-24 15:00:47.237012
77	Self	S210224	0.6666666666666666	2	1	2	1	0.3	1283.3333359	1066.6666688	1933.3333372	1783.3333369	Minor	Wrong_doings	37	You have organized a violent protest	C2_31	1.0	Easy	I1_25	39	Pyramid of Giza is 468 feet tall	0.0	Yes	RIGHT	980.0571999999192	LEFT	32.4601000002076	LEFT	1166.4903999999297	RIGHT	1601.1661000002275	17.1	0.3	Probable_Lie	LEFT	LEFT	5	684.5210000001316	78	2021-02-24 15:01:10.341029
132	Computer	S210224	0.8333333333333334	1	2	2	1	0.7	1216.6666691	1283.3333359	2216.6666711000003	2066.6666708	Minor	Wrong_doings	27	You have sorted your trash into recycling bin	C2_2	0.9	Hard	I1_10	51	Most plants emit oxygen in the day	0.0	Yes	LEFT	289.64829999995345	LEFT	313.6663000000226	LEFT	1559.729900000093	RIGHT	1669.0042999998695	17.1	0.7	Probable_Lie	LEFT	RIGHT	1	697.8198931554693	79	2021-02-24 15:01:34.229970
117	Computer	S210224	0.6666666666666666	1	2	2	1	0.8	1500.000003	1150.0000023	1783.3333369	2216.6666711000003	Major	Good_deeds	35	You have claimed doing things that you never did	C1_4	1.0	Easy	I2_22	27	Airbags in cars are filled with sodium azide	0.0	No	LEFT	63.89769999987038	LEFT	869.0742000003411	LEFT	1751.6433999999208	LEFT	2491.079599999921	17.1	0.8	Probable_Lie	RIGHT	RIGHT	1	557.9215670907206	80	2021-02-24 15:01:59.172533
36	Self	S210224	0.8333333333333334	1	2	2	1	0.4	1000.000002	1283.3333359	1783.3333369	2216.6666711000003	Minor	Wrong_doings	27	You have sorted your trash into recycling bin	C2_2	0.9	Hard	I1_10	51	Most plants emit oxygen in the day	0.0	Yes	RIGHT	344.1754000000401	RIGHT	579.8408000000563	LEFT	2480.0030000001243	RIGHT	1866.1028999999871	17.5	0.4	Probable_Truth	LEFT	LEFT	1	1138.197499999933	81	2021-02-24 15:02:24.436770
7	Self	S210224	0.5	1	2	2	1	0.8	1150.0000023	1350.0000027	1933.3333372	1933.3333372	Minor	Wrong_doings	36	You have started a hotline for victims of bully	C1_51	0.65	Easy	I2_56	56	Acoustic Kitty refers to cat with implants	0.888888888888889	No	RIGHT	336.44939999976486	RIGHT	315.965000000233	LEFT	2599.035699999604	LEFT	2742.1650999999656	18.3	0.8	Probable_Truth	LEFT	RIGHT	6	1065.8971000002566	82	2021-02-24 15:02:50.437721
8	Self	S210224	0.5	2	1	1	2	0.1	1000.000002	1000.000002	2350.0000047	2500.000005	Minor	Good_deeds	30	You have taken months off to volunteer	C2_29	0.05	Easy	I1_8	13	Some owl species hunt fish	0.888888888888889	No	RIGHT	562.1258000001035	LEFT	120.89609999975436	LEFT	1146.7907999999625	RIGHT	871.959699999934	18.2	0.1	Probable_Lie	LEFT	RIGHT	1	867.7585999998882	83	2021-02-24 15:03:13.436721
110	Computer	S210224	0.5	2	1	2	1	0.4	1350.0000027	1000.000002	2500.000005	1650.0000033	Minor	Good_deeds	59	You have cheated on a national exam	C1_45	0.05	Hard	I1_39	15	Fibers in oranges can be used to make fabric	0.0	Yes	LEFT	1397.805900000094	LEFT	1032.653499999924	LEFT	1071.7039999999542	RIGHT	3599.988800000119	18.2	0.4	Probable_Lie	RIGHT	LEFT	5	680.0149928997371	84	2021-02-24 15:03:40.293028
125	Computer	S210224	0.6666666666666666	2	1	2	1	0.3	1433.3333362	1216.6666691	1933.3333372	1500.000003	Major	Good_deeds	38	You have complimented others for good work	C1_43	0.85	Hard	I1_60	54	The Eiffel Tower is in Paris	0.833333333333333	Yes	LEFT	692.2208999999384	RIGHT	128.40319999986605	RIGHT	880.1951000000372	RIGHT	1550.832299999911	18.2	0.3	Probable_Truth	RIGHT	RIGHT	4	600.1127060278949	85	2021-02-24 15:04:02.797206
43	Self	S210224	0.8333333333333334	2	1	1	2	0.7	1500.000003	1000.000002	1650.0000033	2216.6666711000003	Minor	Good_deeds	53	You have taken responsibility for your actions	C2_58	0.0	Hard	I2_46	3	It is snowing outside now	0.666666666666667	Yes	RIGHT	1399.4932000000515	LEFT	512.478099999953	RIGHT	2025.3262999999608	LEFT	848.6878999997316	17.5	0.7	Probable_Lie	RIGHT	RIGHT	1	666.6260999995757	86	2021-02-24 15:04:27.189842
42	Self	S210224	0.8333333333333334	2	1	1	2	0.8	1150.0000023	1066.6666688	1933.3333372	2066.6666708	Minor	Good_deeds	14	You have used a fake name online	C1_53	0.0	Hard	I1_3	45	Brazil is in South America	0.0555555555555556	Yes	RIGHT	500.3280999999333	RIGHT	296.23590000028344	LEFT	1350.598799999716	RIGHT	2448.101499999666	18.3	0.8	Probable_Truth	RIGHT	RIGHT	2	783.7001000002601	87	2021-02-24 15:04:51.358535
116	Computer	S210224	0.6666666666666666	1	2	2	1	0.6	1283.3333359	1000.000002	2216.6666711000003	1650.0000033	Major	Wrong_doings	53	You have volunteered for a disaster-related humanitarian mission	C1_58	0.0	Easy	I2_27	36	Africa is the continent with the least rainfall	0.111111111111111	Yes	LEFT	334.1190999999526	LEFT	1100.6090000000768	LEFT	1739.9364999996578	LEFT	1495.343300000059	18.3	0.6	Probable_Lie	RIGHT	LEFT	5	806.7080540183213	88	2021-02-24 15:05:15.556552
101	Computer	S210224	0.5	1	2	2	1	0.4	1283.3333359	1216.6666691	2066.6666708	2216.6666711000003	Major	Wrong_doings	6	You have sheltered others from disasters	C2_48	0.15	Hard	I1_17	54	Singapore is a poor country	0.0555555555555556	Yes	LEFT	256.33960000004663	RIGHT	843.4541000001445	LEFT	3471.914199999901	LEFT	977.3528999999144	18.3	0.4	Probable_Truth	RIGHT	RIGHT	4	657.6756389528573	89	2021-02-24 15:05:41.107566
123	Computer	S210224	0.6666666666666666	2	1	1	2	0.6	1000.000002	1433.3333362	2350.0000047	2350.0000047	Major	Wrong_doings	1	You have assisted in a crime	C1_1	0.9	Hard	I2_3	44	The human's inner ear is larger than a pencil eraser	0.833333333333333	No	LEFT	921.3110999999116	RIGHT	241.8838999997206	LEFT	892.3959000003379	RIGHT	2998.7676999999167	18.3	0.6	Probable_Truth	RIGHT	RIGHT	6	850.4111872247543	90	2021-02-24 15:06:06.716869
140	Computer	S210224	0.8333333333333334	2	1	2	1	0.6	1000.000002	1066.6666688	2066.6666708	1500.000003	Minor	Wrong_doings	17	You have bribed a police officer	C2_14	0.0	Hard	I1_12	21	It is 20th Century now	0.0	Yes	LEFT	580.2448999997978	LEFT	248.90740000000733	LEFT	800.376099999994	LEFT	1655.7603999999628	18.3	0.6	Probable_Lie	LEFT	RIGHT	1	832.9442774168142	91	2021-02-24 15:06:29.036309
103	Computer	S210224	0.5	1	2	2	1	0.2	1066.6666688	1500.000003	2500.000005	2066.6666708	Minor	Wrong_doings	36	You have started a hotline for victims of bully	C1_51	0.65	Easy	I2_56	56	Acoustic Kitty refers to cat with implants	0.888888888888889	No	LEFT	272.9796999997234	RIGHT	881.282999999712	LEFT	1119.1532000002553	LEFT	1111.12009999988	18.3	0.2	Probable_Truth	LEFT	LEFT	3	614.7209666074714	92	2021-02-24 15:06:52.740475
108	Computer	S210224	0.5	2	1	2	1	0.1	1000.000002	1150.0000023	2350.0000047	2066.6666708	Minor	Wrong_doings	7	You have engaged in arson	C2_59	0.0	Hard	I2_1	34	Polish is 20th most spoken language in the World	0.833333333333333	Yes	LEFT	423.884100000123	LEFT	185.49890000031155	LEFT	1231.338200000209	LEFT	1333.9632000001984	18.3	0.1	Probable_Lie	RIGHT	RIGHT	1	789.2683380895932	93	2021-02-24 15:07:15.837253
3	Self	S210224	0.5	1	2	1	2	0.5	1283.3333359	1433.3333362	2500.000005	2216.6666711000003	Major	Wrong_doings	48	You have blackmailed others for money	C2_36	0.0	Hard	I2_40	28	The current century is 21st	0.722222222222222	Yes	RIGHT	247.92539999998556	LEFT	989.0448999999536	LEFT	938.233500000024	RIGHT	1087.5670000000357	17.8	0.5	Probable_Lie	RIGHT	LEFT	5	867.4943999999414	94	2021-02-24 15:07:39.971910
6	Self	S210224	0.5	1	2	2	1	0.1	1433.3333362	1000.000002	2216.6666711000003	1500.000003	Minor	Wrong_doings	38	You have stolen something	C2_10	0.95	Hard	I1_21	17	Algeria is Africa's second largest country	0.0	No	RIGHT	296.2508000000525	LEFT	872.0046000003094	LEFT	791.490199999771	LEFT	2389.310700000351	17.7	0.1	Probable_Lie	RIGHT	RIGHT	3	600.2871000000596	95	2021-02-24 15:08:03.643598
32	Self	S210224	0.8333333333333334	1	2	1	2	0.5	1500.000003	1066.6666688	2350.0000047	2350.0000047	Major	Wrong_doings	52	You have bought cocaine	C2_40	0.0	Easy	I2_58	47	China is a part of Asia	0.777777777777778	Yes	RIGHT	213.86440000014773	RIGHT	371.3985999997931	LEFT	932.6467999999296	RIGHT	1344.553399999768	18.2	0.5	Probable_Lie	RIGHT	RIGHT	1	648.3494999997674	96	2021-02-24 15:09:07.252834
90	Self	S210224	0.8333333333333334	2	1	1	2	0.6	1216.6666691	1066.6666688	1933.3333372	2216.6666711000003	Minor	Wrong_doings	57	You have cursed at your loved ones	C1_48	0.0	Easy	I2_11	6	Earth's atmosphere extends up to 10,000km into space	0.0	No	RIGHT	419.79540000011184	RIGHT	127.96990000015283	LEFT	1007.564999999886	RIGHT	2431.0669999999845	18.8	0.6	Probable_Truth	LEFT	LEFT	1	737.9842000000281	97	2021-02-24 15:09:30.987854
26	Self	S210224	0.6666666666666666	2	1	1	2	0.6	1500.000003	1216.6666691	1933.3333372	2500.000005	Minor	Good_deeds	14	You have attended all lectures as a student	C2_28	0.0	Easy	I1_28	60	A dog has four legs	0.0	Yes	RIGHT	613.6058000001867	LEFT	257.4446999997235	RIGHT	1028.481800000009	RIGHT	743.5491000001093	18.2	0.6	Probable_Lie	LEFT	LEFT	6	723.4633999996731	98	2021-02-24 15:09:54.076039
100	Computer	S210224	0.5	1	2	2	1	0.5	1433.3333362	1000.000002	2350.0000047	1500.000003	Major	Good_deeds	30	You have given up your seat in the MRT	C1_6	0.95	Hard	I1_54	41	Arabi is the oldest surviving breed of horse	0.666666666666667	No	LEFT	238.20800000021336	LEFT	582.5125999999727	RIGHT	1271.6973999999936	RIGHT	1493.8372000001436	18.2	0.5	Probable_Lie	LEFT	RIGHT	1	856.5805367985968	99	2021-02-24 15:10:17.373164
70	Self	S210224	0.6666666666666666	1	2	2	1	0.2	1350.0000027	1350.0000027	1650.0000033	2216.6666711000003	Major	Good_deeds	47	You have given way to the handicapped	C2_42	1.0	Easy	I2_33	38	A triangle has three sides	0.0	Yes	RIGHT	256.98460000012346	RIGHT	320.4342000003635	RIGHT	1008.9433000002828	RIGHT	992.5080000002708	18.4	0.2	Probable_Truth	RIGHT	RIGHT	3	720.8501000000069	100	2021-02-24 15:10:39.812846
30	Self	S210224	0.6666666666666666	2	1	2	1	0.5	1000.000002	1150.0000023	1650.0000033	1650.0000033	Minor	Wrong_doings	43	You have rescued others from a catastrophe	C1_59	0.2	Hard	I1_11	3	North Korea is more developed than South Korea	0.0555555555555556	No	RIGHT	495.0513999997384	RIGHT	168.52689999996073	LEFT	2718.5254000000896	LEFT	1535.3178999998818	18.9	0.5	Probable_Truth	RIGHT	RIGHT	5	728.4435000001395	101	2021-02-24 15:11:03.484385
16	Self	S210224	0.6666666666666666	1	2	1	2	0.6	1500.000003	1000.000002	2500.000005	1933.3333372	Minor	Wrong_doings	17	You have violated a traffic law	C2_46	0.55	Hard	I2_30	23	Red is a color	0.611111111111111	No	RIGHT	383.4891000001335	RIGHT	562.2666999997818	LEFT	1118.3909000001222	RIGHT	680.5383000000802	19.5	0.6	Probable_Truth	LEFT	LEFT	1	625.6113999997979	102	2021-02-24 15:11:26.364146
119	Computer	S210224	0.6666666666666666	1	2	2	1	0.1	1000.000002	1283.3333359	2350.0000047	2350.0000047	Minor	Good_deeds	58	You have kept your promises	C1_13	0.75	Hard	I1_42	43	Beef comes from cows	0.166666666666667	No	LEFT	38.91780000003564	RIGHT	602.9465999999957	RIGHT	871.1480999995729	RIGHT	972.873400000026	19.5	0.1	Probable_Truth	LEFT	LEFT	2	653.3945042008197	103	2021-02-24 15:11:49.051471
130	Computer	S210224	0.8333333333333334	1	2	1	2	0.4	1500.000003	1350.0000027	1933.3333372	2216.6666711000003	Minor	Good_deeds	40	You have participated in a scamming business	C1_27	0.0	Easy	I2_35	1	The Earth turns the closest to the sun in May	0.888888888888889	Yes	LEFT	24.54840000018521	LEFT	801.1554000004253	LEFT	1992.3956000002363	LEFT	1143.2211999999708	19.5	0.4	Probable_Truth	LEFT	RIGHT	2	740.8506797631745	104	2021-02-24 15:12:13.316997
4	Self	S210224	0.5	1	2	2	1	0.2	1350.0000027	1216.6666691	1783.3333369	2350.0000047	Major	Good_deeds	30	You have given up your seat in the MRT	C1_6	0.95	Hard	I1_54	41	Arabi is the oldest surviving breed of horse	0.666666666666667	No	RIGHT	280.84739999985686	RIGHT	418.48720000007233	RIGHT	647.3512000002302	RIGHT	995.8338999999796	19.7	0.2	Probable_Truth	RIGHT	RIGHT	5	712.6961000003575	105	2021-02-24 15:12:35.643743
33	Self	S210224	0.8333333333333334	1	2	1	2	0.8	1216.6666691	1433.3333362	1933.3333372	1500.000003	Major	Wrong_doings	9	You have done something against your values	C1_34	0.25	Hard	I1_1	36	Cleopatra was born in Greece	0.0	No	RIGHT	280.2866000001813	RIGHT	357.2354000002633	LEFT	1037.772799999857	LEFT	758.6093999998411	20.5	0.8	Probable_Truth	RIGHT	RIGHT	4	725.2782999998999	106	2021-02-24 15:12:57.461018
137	Computer	S210224	0.8333333333333334	2	1	1	2	0.2	1216.6666691	1500.000003	1500.000003	1650.0000033	Major	Wrong_doings	26	You have helped your parents when asked to	C2_26	0.95	Hard	I2_18	32	Today is a weekday	0.833333333333333	No	RIGHT	499.0282999997362	RIGHT	695.2290000003813	RIGHT	1545.812300000307	RIGHT	888.9874999999847	20.7	0.2	Probable_Truth	RIGHT	RIGHT	2	575.4262690797416	107	2021-02-24 15:13:20.091591
92	Self	S210224	0.8333333333333334	2	1	2	1	0.5	1150.0000023	1000.000002	2500.000005	1933.3333372	Major	Wrong_doings	48	You have followed instructions	C1_46	0.7	Easy	I2_55	35	Singapore is a country	1.0	No	RIGHT	510.2160999999796	RIGHT	263.0354999996598	RIGHT	863.6031999999432	RIGHT	886.4330999999765	21.2	0.5	Probable_Truth	LEFT	LEFT	1	645.8800999998857	108	2021-02-24 15:13:42.419630
99	Computer	S210224	0.5	1	2	1	2	0.6	1000.000002	1150.0000023	1783.3333369	2500.000005	Major	Wrong_doings	48	You have blackmailed others for money	C2_36	0.0	Hard	I2_40	28	The current century is 21st	0.722222222222222	Yes	LEFT	111.78789999985383	LEFT	391.9996999998148	LEFT	915.0706000000356	RIGHT	1167.9082000000562	21.2	0.6	Probable_Lie	RIGHT	LEFT	6	917.5677383290029	109	2021-02-24 15:14:04.932847
86	Self	S210224	0.8333333333333334	1	2	2	1	0.3	1216.6666691	1500.000003	1650.0000033	1500.000003	Major	Wrong_doings	20	You have cheated on a test	C1_40	0.95	Easy	I1_4	59	Feijoa is a type of grape	0.944444444444444	Yes	RIGHT	57.357300000148825	LEFT	751.0260000003655	LEFT	934.8110999999336	LEFT	1749.7441999998955	20.9	0.3	Probable_Lie	RIGHT	RIGHT	1	614.4437000002654	110	2021-02-24 15:14:27.483713
24	Self	S210224	0.6666666666666666	2	1	1	2	0.8	1150.0000023	1433.3333362	2350.0000047	2216.6666711000003	Major	Good_deeds	59	You have used heroin	C2_38	0.05	Easy	I2_25	11	Teddy Roosevelt was the youngest US President	0.0	No	RIGHT	267.7518999998938	RIGHT	223.50980000010168	LEFT	787.0580999997401	LEFT	847.7426999997988	21.7	0.8	Probable_Truth	RIGHT	RIGHT	5	607.7899000001707	111	2021-02-24 15:14:49.940328
83	Self	S210224	0.8333333333333334	1	2	1	2	0.4	1500.000003	1066.6666688	1933.3333372	2066.6666708	Minor	Good_deeds	15	You have adopted a zero-waste lifestyle	C1_20	0.0	Hard	I2_5	24	The hyoid bone is the only jointless bone	0.944444444444444	No	RIGHT	120.06609999980355	RIGHT	315.3078000000278	LEFT	1806.654299999991	LEFT	1383.894499999769	22.1	0.4	Probable_Truth	LEFT	LEFT	1	647.6419999999052	112	2021-02-24 15:15:13.355566
35	Self	S210224	0.8333333333333334	1	2	1	2	0.2	1433.3333362	1000.000002	1650.0000033	1650.0000033	Major	Good_deeds	2	You have offered a listening ear to a friend	C1_57	0.85	Easy	I2_51	10	French is Singapore's official language	0.0555555555555556	Yes	RIGHT	408.65290000010646	RIGHT	343.78990000004706	RIGHT	1087.5790000000052	LEFT	904.721399999744	22.3	0.2	Probable_Truth	RIGHT	RIGHT	2	653.6009999999806	113	2021-02-24 15:15:35.060059
142	Computer	S210224	0.8333333333333334	2	1	2	1	0.5	1433.3333362	1216.6666691	2216.6666711000003	2216.6666711000003	Major	Wrong_doings	42	You have bribed someone to improve a grade	C1_17	0.2	Easy	I1_45	18	Mageirocophobia is a fear of deathly disease	0.944444444444444	No	LEFT	863.8820999999552	RIGHT	232.3449000000437	LEFT	943.5247000001254	LEFT	2239.2353999998704	22.3	0.5	Probable_Truth	RIGHT	RIGHT	3	736.3353622839916	114	2021-02-24 15:15:59.732919
67	Self	S210224	0.6666666666666666	1	2	1	2	0.8	1150.0000023	1283.3333359	2500.000005	2500.000005	Major	Wrong_doings	60	You have engaged in money laundering	C2_50	0.45	Hard	I1_13	33	There is typically 0.6 grams of mercury in glass thermometer	1.0	Yes	RIGHT	318.560300000172	RIGHT	412.7788000000692	LEFT	998.5569999998916	LEFT	1887.533099999928	23.1	0.8	Probable_Lie	LEFT	LEFT	3	626.0569000000942	115	2021-02-24 15:16:23.987987
37	Self	S210224	0.8333333333333334	1	2	2	1	0.7	1066.6666688	1216.6666691	1500.000003	1783.3333369	Minor	Good_deeds	57	You have a non-judgmental attitude towards everyone	C2_9	0.55	Hard	I1_36	8	Saturn's rings are between 30 and 300 feet thick	0.777777777777778	No	RIGHT	223.8665999998375	RIGHT	308.179999999993	RIGHT	1776.2434000001122	RIGHT	1514.2065000000002	23.8	0.7	Probable_Truth	LEFT	LEFT	1	667.4860999996781	116	2021-02-24 15:16:46.620023
14	Self	S210224	0.5	2	1	2	1	0.5	1500.000003	1283.3333359	2500.000005	1933.3333372	Minor	Good_deeds	59	You have cheated on a national exam	C1_45	0.05	Hard	I1_39	15	Fibers in oranges can be used to make fabric	0.0	Yes	RIGHT	300.66919999990205	RIGHT	256.67410000005475	LEFT	967.6107000000228	RIGHT	1509.2641000001097	24.3	0.5	Probable_Truth	LEFT	RIGHT	4	800.8463000001029	117	2021-02-24 15:17:10.244158
55	Self	S210224	0.5	1	2	2	1	0.7	1000.000002	1500.000003	1650.0000033	1933.3333372	Major	Wrong_doings	19	You have donated a pay cheque to charity	C2_19	0.55	Easy	I2_4	2	Mexico's National Day is September 16	0.0555555555555556	Yes	RIGHT	224.74160000001572	RIGHT	247.6545999998052	RIGHT	2952.110100000027	LEFT	1597.5730999998632	25.0	0.7	Probable_Truth	RIGHT	RIGHT	5	795.5439000002116	118	2021-02-24 15:17:34.716174
111	Computer	S210224	0.5	2	1	2	1	0.6	1216.6666691	1500.000003	2216.6666711000003	1933.3333372	Minor	Wrong_doings	44	You have borrowed things and never returned	C1_7	1.0	Easy	I2_48	48	Nanyang Technological University is in Australia	0.0	No	LEFT	471.0103999996136	LEFT	221.4208000000326	LEFT	1437.412100000074	LEFT	1689.9465999999848	25.0	0.6	Probable_Lie	LEFT	LEFT	5	765.8945410791192	119	2021-02-24 15:17:58.747719
68	Self	S210224	0.6666666666666666	1	2	2	1	0.3	1066.6666688	1216.6666691	2350.0000047	1500.000003	Minor	Wrong_doings	5	You have eaten something in the MRT train	C1_60	0.85	Hard	I2_42	41	February has 30 days	0.0	Yes	RIGHT	112.937299999885	LEFT	707.0481000000655	LEFT	1176.2337999998635	LEFT	998.3837999998286	24.7	0.3	Probable_Lie	RIGHT	RIGHT	2	801.8170000000282	120	2021-02-24 15:18:21.251332
12	Self	S210224	0.5	2	1	2	1	0.3	1150.0000023	1433.3333362	1500.000003	2066.6666708	Minor	Wrong_doings	7	You have engaged in arson	C2_59	0.0	Hard	I2_1	34	Polish is 20th most spoken language in the World	0.833333333333333	Yes	RIGHT	261.5209999999024	RIGHT	287.6365000001897	LEFT	1199.602900000173	LEFT	1134.9006999998892	25.0	0.3	Probable_Truth	LEFT	RIGHT	4	672.1966000000066	121	2021-02-24 15:18:43.530887
28	Self	S210224	0.6666666666666666	2	1	2	1	0.1	1066.6666688	1350.0000027	2066.6666708	1783.3333369	Minor	Wrong_doings	28	You have cursed at others	C1_14	0.95	Easy	I1_44	31	The first Grammy awards was held in 1959	0.666666666666667	Yes	RIGHT	286.7607000002863	RIGHT	112.41440000003422	LEFT	727.8211999996529	RIGHT	1529.6250000001237	25.1	0.1	Probable_Lie	LEFT	LEFT	4	679.3692000001101	122	2021-02-24 15:19:05.707836
63	Self	S210224	0.5	2	1	2	1	0.8	1500.000003	1433.3333362	2066.6666708	2066.6666708	Major	Good_deeds	3	You have made counterfeit money	C1_50	0.05	Hard	I1_29	52	Christmas Day is in March	0.0	Yes	RIGHT	518.7938999997641	RIGHT	199.656799999957	LEFT	1031.3175000001138	LEFT	1232.5261000000864	25.9	0.8	Probable_Lie	LEFT	RIGHT	1	586.0805000002074	123	2021-02-24 15:19:28.915700
57	Self	S210224	0.5	2	1	1	2	0.3	1066.6666688	1350.0000027	2500.000005	2216.6666711000003	Minor	Wrong_doings	54	You have pretended to be busy to avoid a social situation	C2_24	0.95	Easy	I1_57	23	Vegetarians can eat vegetable products	0.888888888888889	No	RIGHT	886.4287000001241	LEFT	256.71420000026046	LEFT	2769.25459999984	RIGHT	2311.348099999577	25.6	0.3	Probable_Lie	LEFT	LEFT	6	803.6941000000297	124	2021-02-24 15:19:55.651474
1	Self	S210224	0.5	1	2	1	2	0.7	1216.6666691	1066.6666688	2066.6666708	2066.6666708	Major	Good_deeds	7	You have been arrested	C2_7	0.0	Easy	I1_46	40	The Moon orbits around the Earth	0.0555555555555556	Yes	RIGHT	696.3040000000547	RIGHT	262.1580999998514	LEFT	892.0408999997562	RIGHT	1400.0107000001665	26.3	0.7	Probable_Truth	RIGHT	LEFT	3	742.6487000002453	125	2021-02-24 15:20:18.644115
73	Self	S210224	0.6666666666666666	2	1	1	2	0.1	1350.0000027	1283.3333359	1650.0000033	2500.000005	Major	Good_deeds	29	You have kidnapped someone	C2_43	1.0	Hard	I1_9	17	The sun rises at night	0.722222222222222	No	RIGHT	687.8529000000526	RIGHT	191.9012999996994	LEFT	797.5537000002078	LEFT	1184.2043000001468	26.4	0.1	Probable_Lie	LEFT	LEFT	3	701.3884999996662	126	2021-02-24 15:20:41.563625
15	Self	S210224	0.5	2	1	2	1	0.2	1066.6666688	1216.6666691	1783.3333369	2216.6666711000003	Minor	Wrong_doings	44	You have borrowed things and never returned	C1_7	1.0	Easy	I2_48	48	Nanyang Technological University is in Australia	0.0	No	RIGHT	506.84620000038194	LEFT	264.42249999990963	LEFT	1423.1893999999556	LEFT	897.4259999999958	26.2	0.2	Probable_Lie	RIGHT	RIGHT	1	649.542399999973	127	2021-02-24 15:21:04.163123
97	Computer	S210224	0.5	1	2	1	2	0.1	1150.0000023	1283.3333359	1933.3333372	1783.3333369	Major	Good_deeds	7	You have been arrested	C2_7	0.0	Easy	I1_46	40	The Moon orbits around the Earth	0.0555555555555556	Yes	LEFT	352.4616999998216	LEFT	1402.9743999999482	LEFT	1123.8248999998175	RIGHT	1040.6848000002356	26.2	0.1	Probable_Lie	LEFT	LEFT	5	672.4843411731526	128	2021-02-24 15:21:27.467822
11	Self	S210224	0.5	2	1	1	2	0.7	1350.0000027	1150.0000023	2216.6666711000003	1783.3333369	Major	Good_deeds	45	You have fabricated facts about yourself	C1_3	0.5	Hard	I2_34	39	There are 30 hours in a day	0.0	No	RIGHT	839.7372000003998	LEFT	200.3661000003376	LEFT	993.4727999998358	LEFT	823.6612999999124	25.5	0.7	Probable_Lie	LEFT	LEFT	6	787.158300000101	129	2021-02-24 15:21:50.187639
98	Computer	S210224	0.5	1	2	1	2	0.8	1216.6666691	1066.6666688	1500.000003	1650.0000033	Minor	Good_deeds	51	You have made someone cry	C1_30	0.0	Easy	I2_41	21	Last day of the year is 30th December	0.0555555555555556	No	LEFT	223.57160000001383	RIGHT	445.106499999838	LEFT	1193.4249000000818	LEFT	936.3960999999108	25.5	0.8	Probable_Truth	RIGHT	LEFT	3	890.0182943005361	130	2021-02-24 15:22:11.876157
76	Self	S210224	0.6666666666666666	2	1	2	1	0.8	1000.000002	1000.000002	1783.3333369	2216.6666711000003	Major	Good_deeds	8	You have thrown your trash into the bin	C1_39	1.0	Easy	I2_17	50	It takes 500 days to travel from Earth to Mars	0.0555555555555556	No	RIGHT	289.07580000031885	RIGHT	168.0458999999246	RIGHT	1590.817700000116	LEFT	2440.752099999827	26.3	0.8	Probable_Lie	LEFT	LEFT	5	648.3549999998104	131	2021-02-24 15:22:35.587806
126	Computer	S210224	0.6666666666666666	2	1	2	1	0.2	1500.000003	1000.000002	1783.3333369	1933.3333372	Minor	Wrong_doings	43	You have rescued others from a catastrophe	C1_59	0.2	Hard	I1_11	3	North Korea is more developed than South Korea	0.0555555555555556	No	LEFT	1026.892300000327	LEFT	1359.7016999997322	LEFT	1172.9922999998053	LEFT	933.2158000001982	26.3	0.2	Probable_Lie	RIGHT	LEFT	4	806.7846224717964	132	2021-02-24 15:22:59.667784
27	Self	S210224	0.6666666666666666	2	1	1	2	0.2	1350.0000027	1283.3333359	2216.6666711000003	1500.000003	Major	Wrong_doings	1	You have assisted in a crime	C1_1	0.9	Hard	I2_3	44	The human's inner ear is larger than a pencil eraser	0.833333333333333	No	RIGHT	551.6292000002068	RIGHT	209.0488999997433	LEFT	804.8859000000448	RIGHT	1367.533099999946	26.5	0.2	Probable_Lie	LEFT	LEFT	3	619.6952999998757	133	2021-02-24 15:23:22.148583
23	Self	S210224	0.6666666666666666	1	2	2	1	0.2	1216.6666691	1283.3333359	1933.3333372	2066.6666708	Minor	Good_deeds	58	You have kept your promises	C1_13	0.75	Hard	I1_42	43	Beef comes from cows	0.166666666666667	No	RIGHT	288.92510000014227	RIGHT	420.1994000000013	RIGHT	736.7365999998583	RIGHT	910.7410000001436	26.7	0.2	Probable_Truth	LEFT	LEFT	2	816.5718000000197	134	2021-02-24 15:23:44.395641
18	Self	S210224	0.6666666666666666	1	2	1	2	0.1	1350.0000027	1433.3333362	2350.0000047	1500.000003	Minor	Wrong_doings	13	You have been physically hurt to protect others	C2_13	0.05	Hard	I1_43	22	Kangaroos live in Africa	0.833333333333333	Yes	RIGHT	319.8019999999815	RIGHT	450.8725000000595	LEFT	1565.359400000034	LEFT	1535.4551000000356	26.8	0.1	Probable_Truth	RIGHT	RIGHT	4	589.8708999998235	135	2021-02-24 15:24:08.067346
128	Computer	S210224	0.8333333333333334	1	2	1	2	0.3	1350.0000027	1000.000002	1783.3333369	1650.0000033	Major	Wrong_doings	52	You have bought cocaine	C2_40	0.0	Easy	I2_58	47	China is a part of Asia	0.777777777777778	Yes	LEFT	113.0047999999988	LEFT	299.06460000029256	LEFT	824.4417999999314	RIGHT	943.5822999998892	26.8	0.3	Probable_Lie	RIGHT	LEFT	4	813.6334500704401	136	2021-02-24 15:24:29.419834
17	Self	S210224	0.6666666666666666	1	2	1	2	0.8	1000.000002	1066.6666688	1650.0000033	1783.3333369	Major	Wrong_doings	46	You have extorted money from anyone	C1_35	0.05	Easy	I1_27	30	A caterpillar has more muscle than a human	0.722222222222222	No	RIGHT	175.99070000005668	RIGHT	288.3547000001272	LEFT	946.6651000002456	RIGHT	1287.876100000176	27.6	0.8	Probable_Truth	LEFT	LEFT	1	953.2013999996708	137	2021-02-24 15:24:51.147403
54	Self	S210224	0.5	1	2	2	1	0.5	1433.3333362	1283.3333359	2500.000005	1500.000003	Major	Good_deeds	18	You have said thank you when you have received help	C1_36	1.0	Hard	I1_5	4	The Earth is round	0.764705882352941	No	RIGHT	215.07169999995315	RIGHT	276.8415999998979	RIGHT	2263.1476000001385	RIGHT	893.8392999998541	28.1	0.5	Probable_Truth	LEFT	RIGHT	6	872.4658000001	138	2021-02-24 15:25:14.963915
114	Computer	S210224	0.6666666666666666	1	2	1	2	0.5	1150.0000023	1066.6666688	1650.0000033	1500.000003	Minor	Wrong_doings	13	You have been physically hurt to protect others	C2_13	0.05	Hard	I1_43	22	Kangaroos live in Africa	0.833333333333333	Yes	LEFT	64.86789999962639	RIGHT	513.5657999999239	LEFT	1647.1277999999074	LEFT	824.0897999999106	28.1	0.5	Probable_Truth	LEFT	LEFT	2	826.0150518264563	139	2021-02-24 15:25:36.779347
59	Self	S210224	0.5	2	1	1	2	0.2	1150.0000023	1216.6666691	1783.3333369	1500.000003	Minor	Wrong_doings	39	You have shown your appreciation to your teachers	C1_22	0.85	Easy	I1_19	50	Cheese is an Asian staple	1.0	Yes	RIGHT	570.0541999999587	LEFT	119.28770000031363	RIGHT	1824.261000000206	LEFT	1792.555099999845	27.9	0.2	Probable_Lie	LEFT	LEFT	6	691.3914000001569	140	2021-02-24 15:26:00.004180
56	Self	S210224	0.5	2	1	1	2	0.1	1433.3333362	1000.000002	2350.0000047	1933.3333372	Major	Good_deeds	23	You have engaged in drink-driving	C1_23	1.0	Hard	I2_23	12	Afghan Hound is the first cloned cat	0.0	Yes	RIGHT	268.2171999999809	RIGHT	87.65739999989819	LEFT	1901.0287000000967	LEFT	1542.5639999998566	28.000000000000004	0.1	Probable_Truth	RIGHT	LEFT	1	795.8099000002221	141	2021-02-24 15:26:23.898926
138	Computer	S210224	0.8333333333333334	2	1	1	2	0.3	1066.6666688	1150.0000023	1783.3333369	2066.6666708	Minor	Good_deeds	14	You have used a fake name online	C1_53	0.0	Hard	I1_3	45	Brazil is in South America	0.0555555555555556	Yes	LEFT	707.0920000001024	RIGHT	151.8274999998539	LEFT	1191.1589999999703	RIGHT	1191.9216999999662	28.000000000000004	0.3	Probable_Truth	LEFT	LEFT	1	657.7194601149895	142	2021-02-24 15:26:46.427078
74	Self	S210224	0.6666666666666666	2	1	1	2	0.4	1433.3333362	1350.0000027	2500.000005	1650.0000033	Minor	Wrong_doings	43	You have told someone's secret to others	C1_37	0.0	Hard	I2_50	38	Nomophobia is the fear of being without a phone or computer	0.777777777777778	No	RIGHT	1052.2935999997571	LEFT	240.41299999998955	LEFT	2702.5244999999813	LEFT	1878.044999999929	27.600000000000005	0.4	Probable_Lie	LEFT	LEFT	6	1095.6778999998278	143	2021-02-24 15:27:12.906436
