"Participant"	"Task"	"Stimulus_Side"	"Response"	"RT"	"ITI"	"Previous_Response"	"Previous_RT"	"Stop_Signal"	"Stop_Signal_RT"	"Conflict"	"Cue_Response"	"Cue_Response_RT"	"Trial_Onset"	"Trial_End"	"Trial_Order"	"Duration"
"S210224"	"Conflict_Resolution"	"RIGHT"	"RIGHT"	842.896999999994	983.3333353	n/a	n/a	n/a	n/a	"True"	n/a	n/a	"2021-02-24 14:05:15.967896"	"2021-02-24 14:05:17.019473"	1	6.12111183333333
"S210224"	"Conflict_Resolution"	"RIGHT"	"RIGHT"	573.201999999924	1366.6666694	n/a	n/a	n/a	n/a	"True"	n/a	n/a	"2021-02-24 14:05:18.405598"	"2021-02-24 14:05:19.185601"	2	6.12111183333333
"S210224"	"Conflict_Resolution"	"LEFT"	"LEFT"	589.680599999951	1416.6666695	n/a	n/a	n/a	n/a	"True"	n/a	n/a	"2021-02-24 14:05:20.620788"	"2021-02-24 14:05:21.419299"	3	6.12111183333333
"S210224"	"Conflict_Resolution"	"LEFT"	"LEFT"	575.266800000009	916.6666685	n/a	n/a	n/a	n/a	"True"	n/a	n/a	"2021-02-24 14:05:22.354885"	"2021-02-24 14:05:23.137439"	4	6.12111183333333
"S210224"	"Conflict_Resolution"	"RIGHT"	"RIGHT"	417.322100000092	1483.3333363	n/a	n/a	n/a	n/a	"False"	n/a	n/a	"2021-02-24 14:05:24.641401"	"2021-02-24 14:05:25.265840"	5	6.12111183333333
"S210224"	"Conflict_Resolution"	"RIGHT"	"RIGHT"	471.692699999949	550.0000011	n/a	n/a	n/a	n/a	"False"	n/a	n/a	"2021-02-24 14:05:25.835049"	"2021-02-24 14:05:26.514816"	6	6.12111183333333
"S210224"	"Conflict_Resolution"	"LEFT"	"LEFT"	541.92379999995	733.3333348	n/a	n/a	n/a	n/a	"False"	n/a	n/a	"2021-02-24 14:05:27.268832"	"2021-02-24 14:05:28.018720"	7	6.12111183333333
"S210224"	"Conflict_Resolution"	"RIGHT"	"RIGHT"	514.338100000032	1416.6666695	n/a	n/a	n/a	n/a	"True"	n/a	n/a	"2021-02-24 14:05:29.455781"	"2021-02-24 14:05:30.179271"	8	6.12111183333333
"S210224"	"Conflict_Resolution"	"LEFT"	"LEFT"	561.707500000011	633.3333346	n/a	n/a	n/a	n/a	"True"	n/a	n/a	"2021-02-24 14:05:30.832480"	"2021-02-24 14:05:31.601592"	9	6.12111183333333
"S210224"	"Conflict_Resolution"	"RIGHT"	"RIGHT"	562.359599999922	1033.3333354	n/a	n/a	n/a	n/a	"True"	n/a	n/a	"2021-02-24 14:05:32.656265"	"2021-02-24 14:05:33.426411"	10	6.12111183333333
"S210224"	"Conflict_Resolution"	"LEFT"	"LEFT"	569.443099999944	850.0000017	n/a	n/a	n/a	n/a	"True"	n/a	n/a	"2021-02-24 14:05:34.297019"	"2021-02-24 14:05:35.074950"	11	6.12111183333333
"S210224"	"Conflict_Resolution"	"RIGHT"	"RIGHT"	416.133700000046	1050.0000021	n/a	n/a	n/a	n/a	"False"	n/a	n/a	"2021-02-24 14:05:36.145854"	"2021-02-24 14:05:36.770446"	12	6.12111183333333
"S210224"	"Conflict_Resolution"	"LEFT"	"LEFT"	491.694100000018	1016.6666687	n/a	n/a	n/a	n/a	"True"	n/a	n/a	"2021-02-24 14:05:37.806639"	"2021-02-24 14:05:38.507343"	13	6.12111183333333
"S210224"	"Conflict_Resolution"	"LEFT"	"LEFT"	506.146600000079	1450.0000029	n/a	n/a	n/a	n/a	"True"	n/a	n/a	"2021-02-24 14:05:39.976831"	"2021-02-24 14:05:40.690553"	14	6.12111183333333
"S210224"	"Conflict_Resolution"	"LEFT"	"LEFT"	495.449599999915	516.6666677	n/a	n/a	n/a	n/a	"True"	n/a	n/a	"2021-02-24 14:05:41.226613"	"2021-02-24 14:05:41.929469"	15	6.12111183333333
"S210224"	"Conflict_Resolution"	"LEFT"	"LEFT"	492.525200000046	1000.000002	n/a	n/a	n/a	n/a	"True"	n/a	n/a	"2021-02-24 14:05:42.949832"	"2021-02-24 14:05:43.650525"	16	6.12111183333333
"S210224"	"Conflict_Resolution"	"LEFT"	"LEFT"	394.024700000045	1200.0000024	n/a	n/a	n/a	n/a	"False"	n/a	n/a	"2021-02-24 14:05:44.872157"	"2021-02-24 14:05:45.474323"	17	6.12111183333333
"S210224"	"Conflict_Resolution"	"RIGHT"	"RIGHT"	452.765699999986	1216.6666691	n/a	n/a	n/a	n/a	"False"	n/a	n/a	"2021-02-24 14:05:46.709653"	"2021-02-24 14:05:47.371969"	18	6.12111183333333
"S210224"	"Conflict_Resolution"	"RIGHT"	"RIGHT"	440.395400000057	650.0000013	n/a	n/a	n/a	n/a	"False"	n/a	n/a	"2021-02-24 14:05:48.042346"	"2021-02-24 14:05:48.689426"	19	6.12111183333333
"S210224"	"Conflict_Resolution"	"LEFT"	"LEFT"	496.788599999945	1350.0000027	n/a	n/a	n/a	n/a	"True"	n/a	n/a	"2021-02-24 14:05:50.057894"	"2021-02-24 14:05:50.765107"	20	6.12111183333333
"S210224"	"Conflict_Resolution"	"RIGHT"	"RIGHT"	566.981899999973	883.3333351	n/a	n/a	n/a	n/a	"True"	n/a	n/a	"2021-02-24 14:05:51.667848"	"2021-02-24 14:05:52.442485"	21	6.12111183333333
"S210224"	"Conflict_Resolution"	"RIGHT"	"RIGHT"	407.842200000005	1316.6666693	n/a	n/a	n/a	n/a	"False"	n/a	n/a	"2021-02-24 14:05:53.778959"	"2021-02-24 14:05:54.394118"	22	6.12111183333333
"S210224"	"Conflict_Resolution"	"RIGHT"	"RIGHT"	653.070000000071	1000.000002	n/a	n/a	n/a	n/a	"True"	n/a	n/a	"2021-02-24 14:05:55.413740"	"2021-02-24 14:05:56.274759"	23	6.12111183333333
"S210224"	"Conflict_Resolution"	"LEFT"	"LEFT"	437.386999999944	950.0000019	n/a	n/a	n/a	n/a	"False"	n/a	n/a	"2021-02-24 14:05:57.244993"	"2021-02-24 14:05:57.891270"	24	6.12111183333333
"S210224"	"Conflict_Resolution"	"LEFT"	"LEFT"	432.124499999986	683.3333347	n/a	n/a	n/a	n/a	"False"	n/a	n/a	"2021-02-24 14:05:58.594471"	"2021-02-24 14:05:59.234762"	25	6.12111183333333
"S210224"	"Conflict_Resolution"	"LEFT"	"LEFT"	427.94200000003	1416.6666695	n/a	n/a	n/a	n/a	"False"	n/a	n/a	"2021-02-24 14:06:00.670548"	"2021-02-24 14:06:01.305516"	26	6.12111183333333
"S210224"	"Conflict_Resolution"	"LEFT"	"LEFT"	410.003899999992	1266.6666692	n/a	n/a	n/a	n/a	"False"	n/a	n/a	"2021-02-24 14:06:02.592161"	"2021-02-24 14:06:03.210615"	27	6.12111183333333
"S210224"	"Conflict_Resolution"	"RIGHT"	"RIGHT"	435.690000000022	833.333335	n/a	n/a	n/a	n/a	"False"	n/a	n/a	"2021-02-24 14:06:04.062158"	"2021-02-24 14:06:04.708751"	28	6.12111183333333
"S210224"	"Conflict_Resolution"	"LEFT"	"LEFT"	489.226799999983	1266.6666692	n/a	n/a	n/a	n/a	"True"	n/a	n/a	"2021-02-24 14:06:05.992906"	"2021-02-24 14:06:06.690663"	29	6.12111183333333
"S210224"	"Conflict_Resolution"	"RIGHT"	"RIGHT"	504.514200000017	933.3333352	n/a	n/a	n/a	n/a	"True"	n/a	n/a	"2021-02-24 14:06:07.641552"	"2021-02-24 14:06:08.353861"	30	6.12111183333333
"S210224"	"Conflict_Resolution"	"RIGHT"	"RIGHT"	476.794499999983	850.0000017	n/a	n/a	n/a	n/a	"False"	n/a	n/a	"2021-02-24 14:06:09.221553"	"2021-02-24 14:06:09.906574"	31	6.12111183333333
"S210224"	"Conflict_Resolution"	"LEFT"	"LEFT"	431.493199999977	716.6666681	n/a	n/a	n/a	n/a	"False"	n/a	n/a	"2021-02-24 14:06:10.643129"	"2021-02-24 14:06:11.281719"	32	6.12111183333333
"S210224"	"Conflict_Resolution"	"RIGHT"	"RIGHT"	521.056599999952	1083.3333355	n/a	n/a	n/a	n/a	"True"	n/a	n/a	"2021-02-24 14:06:12.385698"	"2021-02-24 14:06:13.114898"	33	6.12111183333333
"S210224"	"Conflict_Resolution"	"RIGHT"	"RIGHT"	447.116400000027	533.3333344	n/a	n/a	n/a	n/a	"False"	n/a	n/a	"2021-02-24 14:06:13.667388"	"2021-02-24 14:06:14.322774"	34	6.12111183333333
"S210224"	"Conflict_Resolution"	"LEFT"	"LEFT"	495.681699999977	1500.000003	n/a	n/a	n/a	n/a	"True"	n/a	n/a	"2021-02-24 14:06:15.843007"	"2021-02-24 14:06:16.545673"	35	6.12111183333333
"S210224"	"Conflict_Resolution"	"RIGHT"	"RIGHT"	430.890099999942	1366.6666694	n/a	n/a	n/a	n/a	"False"	n/a	n/a	"2021-02-24 14:06:17.931128"	"2021-02-24 14:06:18.569562"	36	6.12111183333333
"S210224"	"Conflict_Resolution"	"RIGHT"	"LEFT"	393.151699999976	1100.0000022	n/a	n/a	n/a	n/a	"True"	n/a	n/a	"2021-02-24 14:06:19.689942"	"2021-02-24 14:06:20.292895"	37	6.12111183333333
"S210224"	"Conflict_Resolution"	"RIGHT"	"RIGHT"	615.450399999986	1283.3333359	n/a	n/a	n/a	n/a	"True"	n/a	n/a	"2021-02-24 14:06:21.594654"	"2021-02-24 14:06:22.417809"	38	6.12111183333333
"S210224"	"Conflict_Resolution"	"LEFT"	"LEFT"	508.00229999993	1400.0000028	n/a	n/a	n/a	n/a	"False"	n/a	n/a	"2021-02-24 14:06:23.838156"	"2021-02-24 14:06:24.555278"	39	6.12111183333333
"S210224"	"Conflict_Resolution"	"RIGHT"	"RIGHT"	563.713699999994	650.0000013	n/a	n/a	n/a	n/a	"True"	n/a	n/a	"2021-02-24 14:06:25.224003"	"2021-02-24 14:06:25.996391"	40	6.12111183333333
"S210224"	"Conflict_Resolution"	"LEFT"	"LEFT"	422.676700000011	900.0000018	n/a	n/a	n/a	n/a	"False"	n/a	n/a	"2021-02-24 14:06:26.916362"	"2021-02-24 14:06:27.547674"	41	6.12111183333333
"S210224"	"Conflict_Resolution"	"RIGHT"	"RIGHT"	493.300300000101	900.0000018	n/a	n/a	n/a	n/a	"True"	n/a	n/a	"2021-02-24 14:06:28.468954"	"2021-02-24 14:06:29.169813"	42	6.12111183333333
"S210224"	"Conflict_Resolution"	"LEFT"	"LEFT"	454.889499999922	1350.0000027	n/a	n/a	n/a	n/a	"False"	n/a	n/a	"2021-02-24 14:06:30.539152"	"2021-02-24 14:06:31.201713"	43	6.12111183333333
"S210224"	"Conflict_Resolution"	"LEFT"	"LEFT"	409.410800000046	1066.6666688	n/a	n/a	n/a	n/a	"False"	n/a	n/a	"2021-02-24 14:06:32.289185"	"2021-02-24 14:06:32.907397"	44	6.12111183333333
"S210224"	"Conflict_Resolution"	"RIGHT"	"RIGHT"	473.218900000006	1383.3333361	n/a	n/a	n/a	n/a	"True"	n/a	n/a	"2021-02-24 14:06:34.312857"	"2021-02-24 14:06:34.995405"	45	6.12111183333333
"S210224"	"Conflict_Resolution"	"RIGHT"	"RIGHT"	481.793699999912	800.0000016	n/a	n/a	n/a	n/a	"False"	n/a	n/a	"2021-02-24 14:06:35.816190"	"2021-02-24 14:06:36.506578"	46	6.12111183333333
"S210224"	"Conflict_Resolution"	"LEFT"	"LEFT"	613.133999999945	1150.0000023	n/a	n/a	n/a	n/a	"True"	n/a	n/a	"2021-02-24 14:06:37.677026"	"2021-02-24 14:06:38.497531"	47	6.12111183333333
"S210224"	"Conflict_Resolution"	"RIGHT"	"RIGHT"	459.660299999996	1050.0000021	n/a	n/a	n/a	n/a	"True"	n/a	n/a	"2021-02-24 14:06:39.567180"	"2021-02-24 14:06:40.233841"	48	6.12111183333333
"S210224"	"Conflict_Resolution"	"RIGHT"	"RIGHT"	438.512500000002	1133.3333356	n/a	n/a	n/a	n/a	"False"	n/a	n/a	"2021-02-24 14:06:41.387570"	"2021-02-24 14:06:42.033527"	49	6.12111183333333
"S210224"	"Conflict_Resolution"	"LEFT"	"LEFT"	531.928799999946	583.3333345	n/a	n/a	n/a	n/a	"True"	n/a	n/a	"2021-02-24 14:06:42.637910"	"2021-02-24 14:06:43.379279"	50	6.12111183333333
"S210224"	"Conflict_Resolution"	"RIGHT"	"RIGHT"	434.420499999987	1433.3333362	n/a	n/a	n/a	n/a	"True"	n/a	n/a	"2021-02-24 14:06:44.831763"	"2021-02-24 14:06:45.475022"	51	6.12111183333333
"S210224"	"Conflict_Resolution"	"LEFT"	"LEFT"	538.350100000002	1050.0000021	n/a	n/a	n/a	n/a	"True"	n/a	n/a	"2021-02-24 14:06:46.544159"	"2021-02-24 14:06:47.290435"	52	6.12111183333333
"S210224"	"Conflict_Resolution"	"RIGHT"	"RIGHT"	415.176499999916	950.0000019	n/a	n/a	n/a	n/a	"False"	n/a	n/a	"2021-02-24 14:06:48.259618"	"2021-02-24 14:06:48.883076"	53	6.12111183333333
"S210224"	"Conflict_Resolution"	"LEFT"	"LEFT"	502.257800000052	916.6666685	n/a	n/a	n/a	n/a	"False"	n/a	n/a	"2021-02-24 14:06:49.819701"	"2021-02-24 14:06:50.530146"	54	6.12111183333333
"S210224"	"Conflict_Resolution"	"RIGHT"	"RIGHT"	525.969499999974	783.3333349	n/a	n/a	n/a	n/a	"False"	n/a	n/a	"2021-02-24 14:06:51.331958"	"2021-02-24 14:06:52.066976"	55	6.12111183333333
"S210224"	"Conflict_Resolution"	"RIGHT"	"RIGHT"	475.80030000006	1000.000002	n/a	n/a	n/a	n/a	"False"	n/a	n/a	"2021-02-24 14:06:53.087062"	"2021-02-24 14:06:53.770188"	56	6.12111183333333
"S210224"	"Conflict_Resolution"	"LEFT"	"LEFT"	400.287899999967	1250.0000025	n/a	n/a	n/a	n/a	"False"	n/a	n/a	"2021-02-24 14:06:55.041609"	"2021-02-24 14:06:55.649675"	57	6.12111183333333
"S210224"	"Conflict_Resolution"	"RIGHT"	"RIGHT"	494.222299999933	1150.0000023	n/a	n/a	n/a	n/a	"False"	n/a	n/a	"2021-02-24 14:06:56.820031"	"2021-02-24 14:06:57.521968"	58	6.12111183333333
"S210224"	"Conflict_Resolution"	"LEFT"	"LEFT"	506.385499999965	1100.0000022	n/a	n/a	n/a	n/a	"True"	n/a	n/a	"2021-02-24 14:06:58.639722"	"2021-02-24 14:06:59.353779"	59	6.12111183333333
"S210224"	"Conflict_Resolution"	"RIGHT"	"RIGHT"	434.186999999952	1283.3333359	n/a	n/a	n/a	n/a	"False"	n/a	n/a	"2021-02-24 14:07:00.656368"	"2021-02-24 14:07:01.298416"	60	6.12111183333333
"S210224"	"Conflict_Resolution"	"RIGHT"	"RIGHT"	597.883400000001	733.3333348	n/a	n/a	n/a	n/a	"True"	n/a	n/a	"2021-02-24 14:07:02.052493"	"2021-02-24 14:07:02.858608"	61	6.12111183333333
"S210224"	"Conflict_Resolution"	"LEFT"	"LEFT"	446.52450000001	1316.6666693	n/a	n/a	n/a	n/a	"False"	n/a	n/a	"2021-02-24 14:07:04.195962"	"2021-02-24 14:07:04.852253"	62	6.12111183333333
"S210224"	"Conflict_Resolution"	"RIGHT"	"RIGHT"	385.039699999993	1033.3333354	n/a	n/a	n/a	n/a	"False"	n/a	n/a	"2021-02-24 14:07:05.905848"	"2021-02-24 14:07:06.499381"	63	6.12111183333333
"S210224"	"Conflict_Resolution"	"RIGHT"	"RIGHT"	584.469300000023	1266.6666692	n/a	n/a	n/a	n/a	"True"	n/a	n/a	"2021-02-24 14:07:07.785593"	"2021-02-24 14:07:08.578515"	64	6.12111183333333
"S210224"	"Conflict_Resolution"	"LEFT"	"LEFT"	419.988099999955	1450.0000029	n/a	n/a	n/a	n/a	"False"	n/a	n/a	"2021-02-24 14:07:10.046550"	"2021-02-24 14:07:10.676686"	65	6.12111183333333
"S210224"	"Conflict_Resolution"	"LEFT"	"LEFT"	606.6869	900.0000018	n/a	n/a	n/a	n/a	"True"	n/a	n/a	"2021-02-24 14:07:11.595195"	"2021-02-24 14:07:12.410202"	66	6.12111183333333
"S210224"	"Conflict_Resolution"	"RIGHT"	"RIGHT"	508.067399999959	583.3333345	n/a	n/a	n/a	n/a	"False"	n/a	n/a	"2021-02-24 14:07:13.014620"	"2021-02-24 14:07:13.730362"	67	6.12111183333333
"S210224"	"Conflict_Resolution"	"LEFT"	"LEFT"	548.790599999961	1366.6666694	n/a	n/a	n/a	n/a	"True"	n/a	n/a	"2021-02-24 14:07:15.117007"	"2021-02-24 14:07:15.874177"	68	6.12111183333333
"S210224"	"Conflict_Resolution"	"RIGHT"	"RIGHT"	557.103600000005	800.0000016	n/a	n/a	n/a	n/a	"True"	n/a	n/a	"2021-02-24 14:07:16.693617"	"2021-02-24 14:07:17.459961"	69	6.12111183333333
"S210224"	"Conflict_Resolution"	"RIGHT"	"RIGHT"	511.934099999962	900.0000018	n/a	n/a	n/a	n/a	"False"	n/a	n/a	"2021-02-24 14:07:18.379605"	"2021-02-24 14:07:19.100021"	70	6.12111183333333
"S210224"	"Conflict_Resolution"	"RIGHT"	"RIGHT"	579.661199999919	583.3333345	n/a	n/a	n/a	n/a	"True"	n/a	n/a	"2021-02-24 14:07:19.702411"	"2021-02-24 14:07:20.489553"	71	6.12111183333333
"S210224"	"Conflict_Resolution"	"RIGHT"	"RIGHT"	497.996700000044	1266.6666692	n/a	n/a	n/a	n/a	"False"	n/a	n/a	"2021-02-24 14:07:21.776168"	"2021-02-24 14:07:22.482727"	72	6.12111183333333
"S210224"	"Conflict_Resolution"	"LEFT"	"LEFT"	541.351400000053	1200.0000024	n/a	n/a	n/a	n/a	"True"	n/a	n/a	"2021-02-24 14:07:23.700873"	"2021-02-24 14:07:24.452288"	73	6.12111183333333
"S210224"	"Conflict_Resolution"	"LEFT"	"LEFT"	529.828100000032	616.6666679	n/a	n/a	n/a	n/a	"True"	n/a	n/a	"2021-02-24 14:07:25.088618"	"2021-02-24 14:07:25.825614"	74	6.12111183333333
"S210224"	"Conflict_Resolution"	"LEFT"	"LEFT"	553.12820000006	1300.0000026	n/a	n/a	n/a	n/a	"True"	n/a	n/a	"2021-02-24 14:07:27.145019"	"2021-02-24 14:07:27.905480"	75	6.12111183333333
"S210224"	"Conflict_Resolution"	"LEFT"	"LEFT"	944.050199999992	533.3333344	n/a	n/a	n/a	n/a	"False"	n/a	n/a	"2021-02-24 14:07:28.459064"	"2021-02-24 14:07:29.610558"	76	6.12111183333333
"S210224"	"Conflict_Resolution"	"LEFT"	"LEFT"	865.674499999955	866.6666684	n/a	n/a	n/a	n/a	"True"	n/a	n/a	"2021-02-24 14:07:30.496250"	"2021-02-24 14:07:31.569932"	77	6.12111183333333
"S210224"	"Conflict_Resolution"	"LEFT"	"LEFT"	537.021800000048	666.666668	n/a	n/a	n/a	n/a	"True"	n/a	n/a	"2021-02-24 14:07:32.257562"	"2021-02-24 14:07:33.002837"	78	6.12111183333333
"S210224"	"Conflict_Resolution"	"LEFT"	"LEFT"	531.805200000008	1016.6666687	n/a	n/a	n/a	n/a	"False"	n/a	n/a	"2021-02-24 14:07:34.038429"	"2021-02-24 14:07:34.779987"	79	6.12111183333333
"S210224"	"Conflict_Resolution"	"RIGHT"	"RIGHT"	618.641900000057	533.3333344	n/a	n/a	n/a	n/a	"True"	n/a	n/a	"2021-02-24 14:07:35.336032"	"2021-02-24 14:07:36.164133"	80	6.12111183333333
"S210224"	"Conflict_Resolution"	"LEFT"	"LEFT"	582.638900000006	1066.6666688	n/a	n/a	n/a	n/a	"True"	n/a	n/a	"2021-02-24 14:07:37.252020"	"2021-02-24 14:07:38.042367"	81	6.12111183333333
"S210224"	"Conflict_Resolution"	"RIGHT"	"RIGHT"	504.519200000004	683.3333347	n/a	n/a	n/a	n/a	"False"	n/a	n/a	"2021-02-24 14:07:38.746627"	"2021-02-24 14:07:39.460046"	82	6.12111183333333
"S210224"	"Conflict_Resolution"	"RIGHT"	"RIGHT"	507.298900000023	950.0000019	n/a	n/a	n/a	n/a	"True"	n/a	n/a	"2021-02-24 14:07:40.431433"	"2021-02-24 14:07:41.147167"	83	6.12111183333333
"S210224"	"Conflict_Resolution"	"LEFT"	"LEFT"	556.999700000006	783.3333349	n/a	n/a	n/a	n/a	"True"	n/a	n/a	"2021-02-24 14:07:41.949580"	"2021-02-24 14:07:42.713646"	84	6.12111183333333
"S210224"	"Conflict_Resolution"	"RIGHT"	"RIGHT"	535.380199999963	700.0000014	n/a	n/a	n/a	n/a	"True"	n/a	n/a	"2021-02-24 14:07:43.434685"	"2021-02-24 14:07:44.177454"	85	6.12111183333333
"S210224"	"Conflict_Resolution"	"RIGHT"	"RIGHT"	592.487199999937	783.3333349	n/a	n/a	n/a	n/a	"True"	n/a	n/a	"2021-02-24 14:07:44.978765"	"2021-02-24 14:07:45.783201"	86	6.12111183333333
"S210224"	"Conflict_Resolution"	"LEFT"	"LEFT"	401.158600000031	766.6666682	n/a	n/a	n/a	n/a	"False"	n/a	n/a	"2021-02-24 14:07:46.569544"	"2021-02-24 14:07:47.178532"	87	6.12111183333333
"S210224"	"Conflict_Resolution"	"LEFT"	"LEFT"	607.357200000024	533.3333344	n/a	n/a	n/a	n/a	"True"	n/a	n/a	"2021-02-24 14:07:47.730634"	"2021-02-24 14:07:48.546539"	88	6.12111183333333
"S210224"	"Conflict_Resolution"	"LEFT"	"LEFT"	502.20139999999	1300.0000026	n/a	n/a	n/a	n/a	"False"	n/a	n/a	"2021-02-24 14:07:49.868308"	"2021-02-24 14:07:50.578407"	89	6.12111183333333
"S210224"	"Conflict_Resolution"	"LEFT"	"LEFT"	547.786199999905	766.6666682	n/a	n/a	n/a	n/a	"True"	n/a	n/a	"2021-02-24 14:07:51.366121"	"2021-02-24 14:07:52.121907"	90	6.12111183333333
"S210224"	"Conflict_Resolution"	"LEFT"	"LEFT"	626.515800000107	1466.6666696	n/a	n/a	n/a	n/a	"True"	n/a	n/a	"2021-02-24 14:07:53.607283"	"2021-02-24 14:07:54.443040"	91	6.12111183333333
"S210224"	"Conflict_Resolution"	"RIGHT"	"RIGHT"	462.257299999919	1100.0000022	n/a	n/a	n/a	n/a	"False"	n/a	n/a	"2021-02-24 14:07:55.563830"	"2021-02-24 14:07:56.234731"	92	6.12111183333333
"S210224"	"Conflict_Resolution"	"LEFT"	"LEFT"	431.279700000005	1100.0000022	n/a	n/a	n/a	n/a	"False"	n/a	n/a	"2021-02-24 14:07:57.354817"	"2021-02-24 14:07:57.996418"	93	6.12111183333333
"S210224"	"Conflict_Resolution"	"LEFT"	"LEFT"	478.975900000023	850.0000017	n/a	n/a	n/a	n/a	"False"	n/a	n/a	"2021-02-24 14:07:58.866810"	"2021-02-24 14:07:59.554472"	94	6.12111183333333
"S210224"	"Conflict_Resolution"	"LEFT"	"LEFT"	452.638999999976	783.3333349	n/a	n/a	n/a	n/a	"False"	n/a	n/a	"2021-02-24 14:08:00.357195"	"2021-02-24 14:08:01.018944"	95	6.12111183333333
"S210224"	"Conflict_Resolution"	"LEFT"	"LEFT"	484.448900000075	1366.6666694	n/a	n/a	n/a	n/a	"False"	n/a	n/a	"2021-02-24 14:08:02.405791"	"2021-02-24 14:08:03.099363"	96	6.12111183333333
"S210224"	"Conflict_Resolution"	"LEFT"	"LEFT"	472.185400000058	816.6666683	n/a	n/a	n/a	n/a	"False"	n/a	n/a	"2021-02-24 14:08:03.938152"	"2021-02-24 14:08:04.617853"	97	6.12111183333333
"S210224"	"Conflict_Resolution"	"LEFT"	"LEFT"	456.274900000039	866.6666684	n/a	n/a	n/a	n/a	"False"	n/a	n/a	"2021-02-24 14:08:05.505982"	"2021-02-24 14:08:06.171332"	98	6.12111183333333
"S210224"	"Conflict_Resolution"	"LEFT"	"LEFT"	661.78960000002	966.6666686	n/a	n/a	n/a	n/a	"True"	n/a	n/a	"2021-02-24 14:08:07.156347"	"2021-02-24 14:08:08.027368"	99	6.12111183333333
"S210224"	"Conflict_Resolution"	"LEFT"	"LEFT"	461.80030000005	1500.000003	n/a	n/a	n/a	n/a	"False"	n/a	n/a	"2021-02-24 14:08:09.548236"	"2021-02-24 14:08:10.219277"	100	6.12111183333333
"S210224"	"Conflict_Resolution"	"LEFT"	"LEFT"	518.547200000057	1150.0000023	n/a	n/a	n/a	n/a	"False"	n/a	n/a	"2021-02-24 14:08:11.387527"	"2021-02-24 14:08:12.115022"	101	6.12111183333333
"S210224"	"Conflict_Resolution"	"RIGHT"	"RIGHT"	491.193399999929	1233.3333358	n/a	n/a	n/a	n/a	"False"	n/a	n/a	"2021-02-24 14:08:13.366663"	"2021-02-24 14:08:14.065886"	102	6.12111183333333
"S210224"	"Conflict_Resolution"	"LEFT"	"LEFT"	411.674800000128	1216.6666691	n/a	n/a	n/a	n/a	"False"	n/a	n/a	"2021-02-24 14:08:15.302887"	"2021-02-24 14:08:15.921977"	103	6.12111183333333
"S210224"	"Conflict_Resolution"	"RIGHT"	"RIGHT"	411.802200000011	1416.6666695	n/a	n/a	n/a	n/a	"False"	n/a	n/a	"2021-02-24 14:08:17.358785"	"2021-02-24 14:08:17.979262"	104	6.12111183333333
"S210224"	"Conflict_Resolution"	"RIGHT"	"RIGHT"	575.420900000154	750.0000015	n/a	n/a	n/a	n/a	"True"	n/a	n/a	"2021-02-24 14:08:18.747299"	"2021-02-24 14:08:19.531217"	105	6.12111183333333
"S210224"	"Conflict_Resolution"	"RIGHT"	"RIGHT"	552.426100000048	850.0000017	n/a	n/a	n/a	n/a	"True"	n/a	n/a	"2021-02-24 14:08:20.402079"	"2021-02-24 14:08:21.164127"	106	6.12111183333333
"S210224"	"Conflict_Resolution"	"RIGHT"	"RIGHT"	515.603000000056	550.0000011	n/a	n/a	n/a	n/a	"True"	n/a	n/a	"2021-02-24 14:08:21.734970"	"2021-02-24 14:08:22.459370"	107	6.12111183333333
"S210224"	"Conflict_Resolution"	"RIGHT"	"RIGHT"	512.019399999872	1483.3333363	n/a	n/a	n/a	n/a	"True"	n/a	n/a	"2021-02-24 14:08:23.962545"	"2021-02-24 14:08:24.681808"	108	6.12111183333333
"S210224"	"Conflict_Resolution"	"RIGHT"	"RIGHT"	510.781499999894	500.000001	n/a	n/a	n/a	n/a	"True"	n/a	n/a	"2021-02-24 14:08:25.203410"	"2021-02-24 14:08:25.922463"	109	6.12111183333333
"S210224"	"Conflict_Resolution"	"RIGHT"	"RIGHT"	575.253299999986	500.000001	n/a	n/a	n/a	n/a	"False"	n/a	n/a	"2021-02-24 14:08:26.443023"	"2021-02-24 14:08:27.225565"	110	6.12111183333333
"S210224"	"Conflict_Resolution"	"RIGHT"	"RIGHT"	493.352400000049	600.0000012	n/a	n/a	n/a	n/a	"True"	n/a	n/a	"2021-02-24 14:08:27.844956"	"2021-02-24 14:08:28.546080"	111	6.12111183333333
"S210224"	"Conflict_Resolution"	"RIGHT"	"RIGHT"	468.461800000114	983.3333353	n/a	n/a	n/a	n/a	"False"	n/a	n/a	"2021-02-24 14:08:29.549805"	"2021-02-24 14:08:30.228064"	112	6.12111183333333
"S210224"	"Conflict_Resolution"	"LEFT"	"LEFT"	465.050099999871	1000.000002	n/a	n/a	n/a	n/a	"False"	n/a	n/a	"2021-02-24 14:08:31.249409"	"2021-02-24 14:08:31.921715"	113	6.12111183333333
"S210224"	"Conflict_Resolution"	"LEFT"	"LEFT"	527.074899999889	516.6666677	n/a	n/a	n/a	n/a	"False"	n/a	n/a	"2021-02-24 14:08:32.458816"	"2021-02-24 14:08:33.194617"	114	6.12111183333333
"S210224"	"Conflict_Resolution"	"LEFT"	"LEFT"	390.375799999902	566.6666678	n/a	n/a	n/a	n/a	"False"	n/a	n/a	"2021-02-24 14:08:33.779663"	"2021-02-24 14:08:34.377586"	115	6.12111183333333
"S210224"	"Conflict_Resolution"	"LEFT"	"LEFT"	602.323800000022	716.6666681	n/a	n/a	n/a	n/a	"True"	n/a	n/a	"2021-02-24 14:08:35.111611"	"2021-02-24 14:08:35.922441"	116	6.12111183333333
"S210224"	"Conflict_Resolution"	"RIGHT"	"RIGHT"	446.152900000016	750.0000015	n/a	n/a	n/a	n/a	"False"	n/a	n/a	"2021-02-24 14:08:36.692337"	"2021-02-24 14:08:37.345560"	117	6.12111183333333
"S210224"	"Conflict_Resolution"	"RIGHT"	"RIGHT"	532.734199999823	1216.6666691	n/a	n/a	n/a	n/a	"True"	n/a	n/a	"2021-02-24 14:08:38.581971"	"2021-02-24 14:08:39.322930"	118	6.12111183333333
"S210224"	"Conflict_Resolution"	"LEFT"	"LEFT"	422.84050000012	1116.6666689	n/a	n/a	n/a	n/a	"False"	n/a	n/a	"2021-02-24 14:08:40.459686"	"2021-02-24 14:08:41.090444"	119	6.12111183333333
"S210224"	"Conflict_Resolution"	"LEFT"	"LEFT"	499.79489999987	1216.6666691	n/a	n/a	n/a	n/a	"True"	n/a	n/a	"2021-02-24 14:08:42.326660"	"2021-02-24 14:08:43.034767"	120	6.12111183333333
"S210224"	"Conflict_Resolution"	"RIGHT"	"RIGHT"	495.273300000008	1333.333336	n/a	n/a	n/a	n/a	"True"	n/a	n/a	"2021-02-24 14:08:44.387293"	"2021-02-24 14:08:45.090457"	121	6.12111183333333
"S210224"	"Conflict_Resolution"	"LEFT"	"LEFT"	579.791999999998	1400.0000028	n/a	n/a	n/a	n/a	"True"	n/a	n/a	"2021-02-24 14:08:46.510560"	"2021-02-24 14:08:47.299238"	122	6.12111183333333
"S210224"	"Conflict_Resolution"	"RIGHT"	"RIGHT"	518.604299999879	1150.0000023	n/a	n/a	n/a	n/a	"True"	n/a	n/a	"2021-02-24 14:08:48.468130"	"2021-02-24 14:08:49.193594"	123	6.12111183333333
"S210224"	"Conflict_Resolution"	"LEFT"	"LEFT"	484.751500000129	583.3333345	n/a	n/a	n/a	n/a	"False"	n/a	n/a	"2021-02-24 14:08:49.797024"	"2021-02-24 14:08:50.489912"	124	6.12111183333333
"S210224"	"Conflict_Resolution"	"RIGHT"	"RIGHT"	424.143799999911	700.0000014	n/a	n/a	n/a	n/a	"False"	n/a	n/a	"2021-02-24 14:08:51.209967"	"2021-02-24 14:08:51.842062"	125	6.12111183333333
"S210224"	"Conflict_Resolution"	"RIGHT"	"RIGHT"	473.519500000066	883.3333351	n/a	n/a	n/a	n/a	"False"	n/a	n/a	"2021-02-24 14:08:52.744747"	"2021-02-24 14:08:53.426489"	126	6.12111183333333
"S210224"	"Conflict_Resolution"	"LEFT"	"LEFT"	570.364800000107	816.6666683	n/a	n/a	n/a	n/a	"True"	n/a	n/a	"2021-02-24 14:08:54.263763"	"2021-02-24 14:08:55.041616"	127	6.12111183333333
"S210224"	"Conflict_Resolution"	"LEFT"	"LEFT"	448.429799999985	733.3333348	n/a	n/a	n/a	n/a	"True"	n/a	n/a	"2021-02-24 14:08:55.793627"	"2021-02-24 14:08:56.450284"	128	6.12111183333333
"S210224"	"Conflict_Resolution"	"LEFT"	"LEFT"	508.932299999969	566.6666678	n/a	n/a	n/a	n/a	"True"	n/a	n/a	"2021-02-24 14:08:57.037072"	"2021-02-24 14:08:57.755416"	129	6.12111183333333
"S210224"	"Conflict_Resolution"	"RIGHT"	"RIGHT"	569.8332999998	1466.6666696	n/a	n/a	n/a	n/a	"True"	n/a	n/a	"2021-02-24 14:08:59.240821"	"2021-02-24 14:09:00.019884"	130	6.12111183333333
"S210224"	"Conflict_Resolution"	"LEFT"	"LEFT"	689.105100000006	1250.0000025	n/a	n/a	n/a	n/a	"True"	n/a	n/a	"2021-02-24 14:09:01.288983"	"2021-02-24 14:09:02.187207"	131	6.12111183333333
"S210224"	"Conflict_Resolution"	"LEFT"	"LEFT"	488.122500000145	1050.0000021	n/a	n/a	n/a	n/a	"False"	n/a	n/a	"2021-02-24 14:09:03.258200"	"2021-02-24 14:09:03.955152"	132	6.12111183333333
"S210224"	"Conflict_Resolution"	"RIGHT"	"RIGHT"	689.867699999922	1233.3333358	n/a	n/a	n/a	n/a	"True"	n/a	n/a	"2021-02-24 14:09:05.208773"	"2021-02-24 14:09:06.106555"	133	6.12111183333333
"S210224"	"Conflict_Resolution"	"LEFT"	"LEFT"	432.378500000141	1466.6666696	n/a	n/a	n/a	n/a	"False"	n/a	n/a	"2021-02-24 14:09:07.594002"	"2021-02-24 14:09:08.233846"	134	6.12111183333333
"S210224"	"Conflict_Resolution"	"RIGHT"	"RIGHT"	416.920800000071	1083.3333355	n/a	n/a	n/a	n/a	"False"	n/a	n/a	"2021-02-24 14:09:09.337031"	"2021-02-24 14:09:09.961802"	135	6.12111183333333
"S210224"	"Conflict_Resolution"	"RIGHT"	"RIGHT"	462.059700000054	600.0000012	n/a	n/a	n/a	n/a	"False"	n/a	n/a	"2021-02-24 14:09:10.579731"	"2021-02-24 14:09:11.251616"	136	6.12111183333333
"S210224"	"Conflict_Resolution"	"RIGHT"	"RIGHT"	545.520600000145	633.3333346	n/a	n/a	n/a	n/a	"True"	n/a	n/a	"2021-02-24 14:09:11.904883"	"2021-02-24 14:09:12.663367"	137	6.12111183333333
"S210224"	"Conflict_Resolution"	"RIGHT"	"RIGHT"	454.37250000009	1433.3333362	n/a	n/a	n/a	n/a	"False"	n/a	n/a	"2021-02-24 14:09:14.116263"	"2021-02-24 14:09:14.778938"	138	6.12111183333333
"S210224"	"Conflict_Resolution"	"LEFT"	"LEFT"	485.491400000001	1316.6666693	n/a	n/a	n/a	n/a	"True"	n/a	n/a	"2021-02-24 14:09:16.116871"	"2021-02-24 14:09:16.810676"	139	6.12111183333333
"S210224"	"Conflict_Resolution"	"RIGHT"	"RIGHT"	468.605000000025	1183.3333357	n/a	n/a	n/a	n/a	"True"	n/a	n/a	"2021-02-24 14:09:18.014176"	"2021-02-24 14:09:18.690376"	140	6.12111183333333
"S210224"	"Conflict_Resolution"	"LEFT"	"LEFT"	573.536199999808	950.0000019	n/a	n/a	n/a	n/a	"True"	n/a	n/a	"2021-02-24 14:09:19.660316"	"2021-02-24 14:09:20.442942"	141	6.12111183333333
"S210224"	"Conflict_Resolution"	"RIGHT"	"RIGHT"	512.989800000014	833.333335	n/a	n/a	n/a	n/a	"True"	n/a	n/a	"2021-02-24 14:09:21.297220"	"2021-02-24 14:09:22.017714"	142	6.12111183333333
"S210224"	"Conflict_Resolution"	"LEFT"	"LEFT"	518.101699999988	1166.666669	n/a	n/a	n/a	n/a	"True"	n/a	n/a	"2021-02-24 14:09:23.204094"	"2021-02-24 14:09:23.930257"	143	6.12111183333333
"S210224"	"Conflict_Resolution"	"RIGHT"	"RIGHT"	427.672799999982	1383.3333361	n/a	n/a	n/a	n/a	"False"	n/a	n/a	"2021-02-24 14:09:25.334349"	"2021-02-24 14:09:25.969779"	144	6.12111183333333
"S210224"	"Conflict_Resolution"	"LEFT"	"LEFT"	521.011199999975	666.666668	n/a	n/a	n/a	n/a	"False"	n/a	n/a	"2021-02-24 14:09:26.657245"	"2021-02-24 14:09:27.385951"	145	6.12111183333333
"S210224"	"Conflict_Resolution"	"RIGHT"	"RIGHT"	520.10150000001	1133.3333356	n/a	n/a	n/a	n/a	"True"	n/a	n/a	"2021-02-24 14:09:28.538393"	"2021-02-24 14:09:29.266488"	146	6.12111183333333
"S210224"	"Conflict_Resolution"	"RIGHT"	"RIGHT"	391.207399999985	733.3333348	n/a	n/a	n/a	n/a	"False"	n/a	n/a	"2021-02-24 14:09:30.019261"	"2021-02-24 14:09:30.618762"	147	6.12111183333333
"S210224"	"Conflict_Resolution"	"LEFT"	"LEFT"	527.939099999912	683.3333347	n/a	n/a	n/a	n/a	"True"	n/a	n/a	"2021-02-24 14:09:31.321938"	"2021-02-24 14:09:32.057525"	148	6.12111183333333
"S210224"	"Conflict_Resolution"	"LEFT"	"LEFT"	607.815299999857	1116.6666689	n/a	n/a	n/a	n/a	"True"	n/a	n/a	"2021-02-24 14:09:33.194682"	"2021-02-24 14:09:34.011136"	149	6.12111183333333
"S210224"	"Conflict_Resolution"	"RIGHT"	"RIGHT"	541.502300000047	1316.6666693	n/a	n/a	n/a	n/a	"True"	n/a	n/a	"2021-02-24 14:09:35.348820"	"2021-02-24 14:09:36.098634"	150	6.12111183333333
"S210224"	"Conflict_Resolution"	"RIGHT"	"RIGHT"	474.239399999988	633.3333346	n/a	n/a	n/a	n/a	"False"	n/a	n/a	"2021-02-24 14:09:36.751906"	"2021-02-24 14:09:37.435153"	151	6.12111183333333
"S210224"	"Conflict_Resolution"	"RIGHT"	"RIGHT"	441.444099999899	1466.6666696	n/a	n/a	n/a	n/a	"False"	n/a	n/a	"2021-02-24 14:09:38.920556"	"2021-02-24 14:09:39.569444"	152	6.12111183333333
"S210224"	"Conflict_Resolution"	"RIGHT"	"RIGHT"	544.801000000007	683.3333347	n/a	n/a	n/a	n/a	"True"	n/a	n/a	"2021-02-24 14:09:40.273772"	"2021-02-24 14:09:41.029211"	153	6.12111183333333
"S210224"	"Conflict_Resolution"	"LEFT"	"LEFT"	499.013800000057	616.6666679	n/a	n/a	n/a	n/a	"False"	n/a	n/a	"2021-02-24 14:09:41.664215"	"2021-02-24 14:09:42.371182"	154	6.12111183333333
"S210224"	"Conflict_Resolution"	"RIGHT"	"RIGHT"	452.532100000099	1183.3333357	n/a	n/a	n/a	n/a	"False"	n/a	n/a	"2021-02-24 14:09:43.574117"	"2021-02-24 14:09:44.233589"	155	6.12111183333333
"S210224"	"Conflict_Resolution"	"LEFT"	"LEFT"	485.13180000009	966.6666686	n/a	n/a	n/a	n/a	"False"	n/a	n/a	"2021-02-24 14:09:45.220928"	"2021-02-24 14:09:45.914445"	156	6.12111183333333
"S210224"	"Conflict_Resolution"	"LEFT"	"LEFT"	434.494800000039	633.3333346	n/a	n/a	n/a	n/a	"False"	n/a	n/a	"2021-02-24 14:09:46.567400"	"2021-02-24 14:09:47.210977"	157	6.12111183333333
"S210224"	"Conflict_Resolution"	"LEFT"	"LEFT"	389.607100000148	1166.666669	n/a	n/a	n/a	n/a	"False"	n/a	n/a	"2021-02-24 14:09:48.397836"	"2021-02-24 14:09:48.998346"	158	6.12111183333333
"S210224"	"Conflict_Resolution"	"RIGHT"	"RIGHT"	427.23490000003	933.3333352	n/a	n/a	n/a	n/a	"False"	n/a	n/a	"2021-02-24 14:09:49.950558"	"2021-02-24 14:09:50.587403"	159	6.12111183333333
"S210224"	"Conflict_Resolution"	"RIGHT"	"RIGHT"	455.779699999994	1333.333336	n/a	n/a	n/a	n/a	"False"	n/a	n/a	"2021-02-24 14:09:51.937836"	"2021-02-24 14:09:52.603328"	160	6.12111183333333
"S210224"	"Processing_Speed"	"LEFT"	"DOWN"	435.458299999993	700.0000014	n/a	n/a	n/a	n/a	n/a	n/a	n/a	"2021-02-24 13:53:19.047632"	"2021-02-24 13:53:19.709388"	1	2.07007453333333
"S210224"	"Processing_Speed"	"RIGHT"	"DOWN"	324.301199999979	816.6666683	n/a	n/a	n/a	n/a	n/a	n/a	n/a	"2021-02-24 13:53:20.535212"	"2021-02-24 13:53:21.067202"	2	2.07007453333333
"S210224"	"Processing_Speed"	"LEFT"	"DOWN"	263.036199999988	600.0000012	n/a	n/a	n/a	n/a	n/a	n/a	n/a	"2021-02-24 13:53:21.676557"	"2021-02-24 13:53:22.147313"	3	2.07007453333333
"S210224"	"Processing_Speed"	"RIGHT"	"DOWN"	298.891700000013	1116.6666689	n/a	n/a	n/a	n/a	n/a	n/a	n/a	"2021-02-24 13:53:23.272280"	"2021-02-24 13:53:23.778632"	4	2.07007453333333
"S210224"	"Processing_Speed"	"RIGHT"	"DOWN"	282.18769999998	916.6666685	n/a	n/a	n/a	n/a	n/a	n/a	n/a	"2021-02-24 13:53:24.705055"	"2021-02-24 13:53:25.196392"	5	2.07007453333333
"S210224"	"Processing_Speed"	"RIGHT"	"DOWN"	259.208300000012	633.3333346	n/a	n/a	n/a	n/a	n/a	n/a	n/a	"2021-02-24 13:53:25.839637"	"2021-02-24 13:53:26.306981"	6	2.07007453333333
"S210224"	"Processing_Speed"	"LEFT"	"DOWN"	312.171899999981	1183.3333357	n/a	n/a	n/a	n/a	n/a	n/a	n/a	"2021-02-24 13:53:27.499305"	"2021-02-24 13:53:28.020227"	7	2.07007453333333
"S210224"	"Processing_Speed"	"RIGHT"	"DOWN"	272.2713	1150.0000023	n/a	n/a	n/a	n/a	n/a	n/a	n/a	"2021-02-24 13:53:29.179396"	"2021-02-24 13:53:29.661115"	8	2.07007453333333
"S210224"	"Processing_Speed"	"LEFT"	"DOWN"	236.013299999996	1216.6666691	n/a	n/a	n/a	n/a	n/a	n/a	n/a	"2021-02-24 13:53:30.887071"	"2021-02-24 13:53:31.332200"	9	2.07007453333333
"S210224"	"Processing_Speed"	"LEFT"	"DOWN"	226.375899999994	1300.0000026	n/a	n/a	n/a	n/a	n/a	n/a	n/a	"2021-02-24 13:53:32.640783"	"2021-02-24 13:53:33.075707"	10	2.07007453333333
"S210224"	"Processing_Speed"	"LEFT"	"DOWN"	481.636900000012	533.3333344	n/a	n/a	n/a	n/a	n/a	n/a	n/a	"2021-02-24 13:53:33.617922"	"2021-02-24 13:53:34.306600"	11	2.07007453333333
"S210224"	"Processing_Speed"	"RIGHT"	"DOWN"	228.056900000013	1300.0000026	n/a	n/a	n/a	n/a	n/a	n/a	n/a	"2021-02-24 13:53:35.615262"	"2021-02-24 13:53:36.053105"	12	2.07007453333333
"S210224"	"Processing_Speed"	"RIGHT"	"DOWN"	222.692300000006	950.0000019	n/a	n/a	n/a	n/a	n/a	n/a	n/a	"2021-02-24 13:53:37.012808"	"2021-02-24 13:53:37.442691"	13	2.07007453333333
"S210224"	"Processing_Speed"	"LEFT"	"DOWN"	222.021399999988	1433.3333362	n/a	n/a	n/a	n/a	n/a	n/a	n/a	"2021-02-24 13:53:38.884676"	"2021-02-24 13:53:39.314792"	14	2.07007453333333
"S210224"	"Processing_Speed"	"LEFT"	"DOWN"	254.40549999999	850.0000017	n/a	n/a	n/a	n/a	n/a	n/a	n/a	"2021-02-24 13:53:40.172889"	"2021-02-24 13:53:40.636358"	15	2.07007453333333
"S210224"	"Processing_Speed"	"LEFT"	"DOWN"	207.438200000013	1150.0000023	n/a	n/a	n/a	n/a	n/a	n/a	n/a	"2021-02-24 13:53:41.795594"	"2021-02-24 13:53:42.210674"	16	2.07007453333333
"S210224"	"Processing_Speed"	"LEFT"	"DOWN"	219.074199999994	1116.6666689	n/a	n/a	n/a	n/a	n/a	n/a	n/a	"2021-02-24 13:53:43.336158"	"2021-02-24 13:53:43.764350"	17	2.07007453333333
"S210224"	"Processing_Speed"	"LEFT"	"DOWN"	225.333199999994	1050.0000021	n/a	n/a	n/a	n/a	n/a	n/a	n/a	"2021-02-24 13:53:44.825701"	"2021-02-24 13:53:45.259146"	18	2.07007453333333
"S210224"	"Processing_Speed"	"RIGHT"	"DOWN"	308.52059999998	666.666668	n/a	n/a	n/a	n/a	n/a	n/a	n/a	"2021-02-24 13:53:45.934568"	"2021-02-24 13:53:46.450748"	19	2.07007453333333
"S210224"	"Processing_Speed"	"RIGHT"	"DOWN"	288.551200000001	783.3333349	n/a	n/a	n/a	n/a	n/a	n/a	n/a	"2021-02-24 13:53:47.242483"	"2021-02-24 13:53:47.740296"	20	2.07007453333333
"S210224"	"Processing_Speed"	"LEFT"	"DOWN"	523.398299999997	633.3333346	n/a	n/a	n/a	n/a	n/a	n/a	n/a	"2021-02-24 13:53:48.384331"	"2021-02-24 13:53:49.116230"	21	2.07007453333333
"S210224"	"Processing_Speed"	"RIGHT"	"DOWN"	270.415700000001	1366.6666694	n/a	n/a	n/a	n/a	n/a	n/a	n/a	"2021-02-24 13:53:50.493205"	"2021-02-24 13:53:50.972217"	22	2.07007453333333
"S210224"	"Processing_Speed"	"RIGHT"	"DOWN"	253.111899999993	1216.6666691	n/a	n/a	n/a	n/a	n/a	n/a	n/a	"2021-02-24 13:53:52.198625"	"2021-02-24 13:53:52.658434"	23	2.07007453333333
"S210224"	"Processing_Speed"	"LEFT"	"DOWN"	283.292499999988	916.6666685	n/a	n/a	n/a	n/a	n/a	n/a	n/a	"2021-02-24 13:53:53.584374"	"2021-02-24 13:53:54.075454"	24	2.07007453333333
"S210224"	"Processing_Speed"	"LEFT"	"DOWN"	331.671400000005	883.3333351	n/a	n/a	n/a	n/a	n/a	n/a	n/a	"2021-02-24 13:53:54.968031"	"2021-02-24 13:53:55.507440"	25	2.07007453333333
"S210224"	"Processing_Speed"	"RIGHT"	"DOWN"	271.212500000019	1400.0000028	n/a	n/a	n/a	n/a	n/a	n/a	n/a	"2021-02-24 13:53:56.916002"	"2021-02-24 13:53:57.394780"	26	2.07007453333333
"S210224"	"Processing_Speed"	"LEFT"	"DOWN"	260.794000000004	1266.6666692	n/a	n/a	n/a	n/a	n/a	n/a	n/a	"2021-02-24 13:53:58.670185"	"2021-02-24 13:53:59.139796"	27	2.07007453333333
"S210224"	"Processing_Speed"	"LEFT"	"DOWN"	293.105800000006	816.6666683	n/a	n/a	n/a	n/a	n/a	n/a	n/a	"2021-02-24 13:53:59.966227"	"2021-02-24 13:54:00.468148"	28	2.07007453333333
"S210224"	"Processing_Speed"	"RIGHT"	"DOWN"	260.661800000008	1050.0000021	n/a	n/a	n/a	n/a	n/a	n/a	n/a	"2021-02-24 13:54:01.526756"	"2021-02-24 13:54:01.995917"	29	2.07007453333333
"S210224"	"Processing_Speed"	"LEFT"	"DOWN"	262.291199999993	1366.6666694	n/a	n/a	n/a	n/a	n/a	n/a	n/a	"2021-02-24 13:54:03.373064"	"2021-02-24 13:54:03.842788"	30	2.07007453333333
"S210224"	"Processing_Speed"	"RIGHT"	"DOWN"	291.881099999983	700.0000014	n/a	n/a	n/a	n/a	n/a	n/a	n/a	"2021-02-24 13:54:04.550882"	"2021-02-24 13:54:05.052359"	31	2.07007453333333
"S210224"	"Processing_Speed"	"RIGHT"	"DOWN"	365.960999999999	600.0000012	n/a	n/a	n/a	n/a	n/a	n/a	n/a	"2021-02-24 13:54:05.661732"	"2021-02-24 13:54:06.235063"	32	2.07007453333333
"S210224"	"Processing_Speed"	"RIGHT"	"DOWN"	263.59930000001	983.3333353	n/a	n/a	n/a	n/a	n/a	n/a	n/a	"2021-02-24 13:54:07.227496"	"2021-02-24 13:54:07.700278"	33	2.07007453333333
"S210224"	"Processing_Speed"	"LEFT"	"DOWN"	374.446800000015	566.6666678	n/a	n/a	n/a	n/a	n/a	n/a	n/a	"2021-02-24 13:54:08.276868"	"2021-02-24 13:54:08.862155"	34	2.07007453333333
"S210224"	"Processing_Speed"	"LEFT"	"DOWN"	295.607200000006	1466.6666696	n/a	n/a	n/a	n/a	n/a	n/a	n/a	"2021-02-24 13:54:10.339199"	"2021-02-24 13:54:10.843308"	35	2.07007453333333
"S210224"	"Processing_Speed"	"RIGHT"	"DOWN"	228.704700000009	1266.6666692	n/a	n/a	n/a	n/a	n/a	n/a	n/a	"2021-02-24 13:54:12.118904"	"2021-02-24 13:54:12.554770"	36	2.07007453333333
"S210224"	"Processing_Speed"	"RIGHT"	"DOWN"	282.72659999999	733.3333348	n/a	n/a	n/a	n/a	n/a	n/a	n/a	"2021-02-24 13:54:13.296896"	"2021-02-24 13:54:13.787030"	37	2.07007453333333
"S210224"	"Processing_Speed"	"RIGHT"	"DOWN"	316.662500000007	1016.6666687	n/a	n/a	n/a	n/a	n/a	n/a	n/a	"2021-02-24 13:54:14.814786"	"2021-02-24 13:54:15.339427"	38	2.07007453333333
"S210224"	"Processing_Speed"	"RIGHT"	"DOWN"	235.832299999998	883.3333351	n/a	n/a	n/a	n/a	n/a	n/a	n/a	"2021-02-24 13:54:16.231528"	"2021-02-24 13:54:16.675199"	39	2.07007453333333
"S210224"	"Processing_Speed"	"LEFT"	"DOWN"	237.518599999987	1016.6666687	n/a	n/a	n/a	n/a	n/a	n/a	n/a	"2021-02-24 13:54:17.701549"	"2021-02-24 13:54:18.146616"	40	2.07007453333333
"S210224"	"Processing_Speed"	"RIGHT"	"DOWN"	251.811400000008	1083.3333355	n/a	n/a	n/a	n/a	n/a	n/a	n/a	"2021-02-24 13:54:19.239180"	"2021-02-24 13:54:19.699980"	41	2.07007453333333
"S210224"	"Processing_Speed"	"RIGHT"	"DOWN"	298.623800000001	1500.000003	n/a	n/a	n/a	n/a	n/a	n/a	n/a	"2021-02-24 13:54:21.208389"	"2021-02-24 13:54:21.716391"	42	2.07007453333333
"S210224"	"Processing_Speed"	"RIGHT"	"DOWN"	227.753399999983	1466.6666696	n/a	n/a	n/a	n/a	n/a	n/a	n/a	"2021-02-24 13:54:23.191507"	"2021-02-24 13:54:23.627755"	43	2.07007453333333
"S210224"	"Processing_Speed"	"LEFT"	"DOWN"	244.004200000006	1083.3333355	n/a	n/a	n/a	n/a	n/a	n/a	n/a	"2021-02-24 13:54:24.719482"	"2021-02-24 13:54:25.170785"	44	2.07007453333333
"S210224"	"Processing_Speed"	"LEFT"	"DOWN"	300.277699999981	666.666668	n/a	n/a	n/a	n/a	n/a	n/a	n/a	"2021-02-24 13:54:25.847003"	"2021-02-24 13:54:26.354492"	45	2.07007453333333
"S210224"	"Processing_Speed"	"RIGHT"	"DOWN"	306.764600000008	1333.333336	n/a	n/a	n/a	n/a	n/a	n/a	n/a	"2021-02-24 13:54:27.696671"	"2021-02-24 13:54:28.211342"	46	2.07007453333333
"S210224"	"Processing_Speed"	"LEFT"	"DOWN"	287.1801	950.0000019	n/a	n/a	n/a	n/a	n/a	n/a	n/a	"2021-02-24 13:54:29.171804"	"2021-02-24 13:54:29.666621"	47	2.07007453333333
"S210224"	"Processing_Speed"	"LEFT"	"DOWN"	327.835700000009	983.3333353	n/a	n/a	n/a	n/a	n/a	n/a	n/a	"2021-02-24 13:54:30.659113"	"2021-02-24 13:54:31.196715"	48	2.07007453333333
"S210224"	"Processing_Speed"	"RIGHT"	"DOWN"	313.954499999994	500.000001	n/a	n/a	n/a	n/a	n/a	n/a	n/a	"2021-02-24 13:54:31.705381"	"2021-02-24 13:54:32.228014"	49	2.07007453333333
"S210224"	"Processing_Speed"	"RIGHT"	"DOWN"	303.914700000007	566.6666678	n/a	n/a	n/a	n/a	n/a	n/a	n/a	"2021-02-24 13:54:32.803509"	"2021-02-24 13:54:33.314927"	50	2.07007453333333
"S210224"	"Processing_Speed"	"RIGHT"	"DOWN"	282.30019999998	533.3333344	n/a	n/a	n/a	n/a	n/a	n/a	n/a	"2021-02-24 13:54:33.856803"	"2021-02-24 13:54:34.346543"	51	2.07007453333333
"S210224"	"Processing_Speed"	"LEFT"	"DOWN"	247.802499999977	783.3333349	n/a	n/a	n/a	n/a	n/a	n/a	n/a	"2021-02-24 13:54:35.139612"	"2021-02-24 13:54:35.595969"	52	2.07007453333333
"S210224"	"Processing_Speed"	"RIGHT"	"DOWN"	247.101100000009	1183.3333357	n/a	n/a	n/a	n/a	n/a	n/a	n/a	"2021-02-24 13:54:36.787575"	"2021-02-24 13:54:37.242807"	53	2.07007453333333
"S210224"	"Processing_Speed"	"LEFT"	"DOWN"	291.556700000001	1500.000003	n/a	n/a	n/a	n/a	n/a	n/a	n/a	"2021-02-24 13:54:38.751952"	"2021-02-24 13:54:39.250646"	54	2.07007453333333
"S210224"	"Processing_Speed"	"LEFT"	"DOWN"	372.4627	500.000001	n/a	n/a	n/a	n/a	n/a	n/a	n/a	"2021-02-24 13:54:39.759373"	"2021-02-24 13:54:40.341005"	55	2.07007453333333
"S210224"	"Processing_Speed"	"LEFT"	"DOWN"	299.683900000019	1400.0000028	n/a	n/a	n/a	n/a	n/a	n/a	n/a	"2021-02-24 13:54:41.751467"	"2021-02-24 13:54:42.261013"	56	2.07007453333333
"S210224"	"Processing_Speed"	"LEFT"	"DOWN"	254.502299999984	1333.333336	n/a	n/a	n/a	n/a	n/a	n/a	n/a	"2021-02-24 13:54:43.604220"	"2021-02-24 13:54:44.068358"	57	2.07007453333333
"S210224"	"Processing_Speed"	"RIGHT"	"DOWN"	227.535699999976	1433.3333362	n/a	n/a	n/a	n/a	n/a	n/a	n/a	"2021-02-24 13:54:45.511239"	"2021-02-24 13:54:45.948369"	58	2.07007453333333
"S210224"	"Processing_Speed"	"RIGHT"	"DOWN"	300.4459	850.0000017	n/a	n/a	n/a	n/a	n/a	n/a	n/a	"2021-02-24 13:54:46.807332"	"2021-02-24 13:54:47.316965"	59	2.07007453333333
"S210224"	"Processing_Speed"	"LEFT"	"DOWN"	248.67949999998	733.3333348	n/a	n/a	n/a	n/a	n/a	n/a	n/a	"2021-02-24 13:54:48.058520"	"2021-02-24 13:54:48.516128"	60	2.07007453333333
"S210224"	"Response_Inhibition"	"RIGHT"	"RIGHT"	439.28360000001	566.6666678	n/a	n/a	n/a	n/a	n/a	n/a	n/a	"2021-02-24 13:58:27.611994"	"2021-02-24 13:58:28.260765"	1	5.97235846666667
"S210224"	"Response_Inhibition"	"LEFT"	"LEFT"	331.516366999991	900.0000018	n/a	n/a	n/a	n/a	n/a	n/a	n/a	"2021-02-24 13:58:29.171873"	"2021-02-24 13:58:29.717410"	2	5.97235846666667
"S210224"	"Response_Inhibition"	"LEFT"	"LEFT"	365.671199999952	1316.6666693	n/a	n/a	n/a	n/a	n/a	n/a	n/a	"2021-02-24 13:58:31.044963"	"2021-02-24 13:58:31.619424"	3	5.97235846666667
"S210224"	"Response_Inhibition"	"RIGHT"	"RIGHT"	312.536099999988	1483.3333363	n/a	n/a	n/a	n/a	n/a	n/a	n/a	"2021-02-24 13:58:33.113688"	"2021-02-24 13:58:33.635046"	4	5.97235846666667
"S210224"	"Response_Inhibition"	"LEFT"	"LEFT"	379.560000000026	833.333335	n/a	n/a	n/a	n/a	n/a	n/a	n/a	"2021-02-24 13:58:34.479343"	"2021-02-24 13:58:35.068257"	5	5.97235846666667
"S210224"	"Response_Inhibition"	"RIGHT"	"RIGHT"	336.2841	900.0000018	n/a	n/a	n/a	n/a	n/a	n/a	n/a	"2021-02-24 13:58:35.977841"	"2021-02-24 13:58:36.524166"	6	5.97235846666667
"S210224"	"Response_Inhibition"	"RIGHT"	"RIGHT"	358.314766699986	850.0000017	n/a	n/a	n/a	n/a	n/a	n/a	n/a	"2021-02-24 13:58:37.383710"	"2021-02-24 13:58:37.955890"	7	5.97235846666667
"S210224"	"Response_Inhibition"	"RIGHT"	"RIGHT"	355.224599999985	1216.6666691	n/a	n/a	n/a	n/a	n/a	n/a	n/a	"2021-02-24 13:58:39.183558"	"2021-02-24 13:58:39.748048"	8	5.97235846666667
"S210224"	"Response_Inhibition"	"RIGHT"	"RIGHT"	434.750699999995	633.3333346	n/a	n/a	n/a	n/a	n/a	n/a	n/a	"2021-02-24 13:58:40.392370"	"2021-02-24 13:58:41.037298"	9	5.97235846666667
"S210224"	"Response_Inhibition"	"LEFT"	"LEFT"	374.101600000017	1150.0000023	n/a	n/a	n/a	n/a	n/a	n/a	n/a	"2021-02-24 13:58:42.198211"	"2021-02-24 13:58:42.783515"	10	5.97235846666667
"S210224"	"Response_Inhibition"	"RIGHT"	"RIGHT"	337.1219	1200.0000024	n/a	n/a	n/a	n/a	n/a	n/a	n/a	"2021-02-24 13:58:43.993579"	"2021-02-24 13:58:44.538541"	11	5.97235846666667
"S210224"	"Response_Inhibition"	"LEFT"	"LEFT"	385.495900000024	550.0000011	n/a	n/a	n/a	n/a	n/a	n/a	n/a	"2021-02-24 13:58:45.096917"	"2021-02-24 13:58:45.697347"	12	5.97235846666667
"S210224"	"Response_Inhibition"	"RIGHT"	"RIGHT"	398.26690000001	1416.6666695	n/a	n/a	n/a	n/a	n/a	n/a	n/a	"2021-02-24 13:58:47.124352"	"2021-02-24 13:58:47.736238"	13	5.97235846666667
"S210224"	"Response_Inhibition"	"RIGHT"	"Time_Max_Exceeded"	1500.05596700002	1050.0000021	n/a	n/a	n/a	n/a	n/a	n/a	n/a	"2021-02-24 13:58:48.797353"	"2021-02-24 13:58:50.301651"	14	5.97235846666667
"S210224"	"Response_Inhibition"	"LEFT"	"LEFT"	386.238399999968	1016.6666687	n/a	n/a	n/a	n/a	n/a	n/a	n/a	"2021-02-24 13:58:51.328389"	"2021-02-24 13:58:51.922812"	15	5.97235846666667
"S210224"	"Response_Inhibition"	"LEFT"	"LEFT"	317.239200000017	616.6666679	n/a	n/a	n/a	n/a	n/a	n/a	n/a	"2021-02-24 13:58:52.549080"	"2021-02-24 13:58:53.075143"	16	5.97235846666667
"S210224"	"Response_Inhibition"	"LEFT"	"LEFT"	339.112000599989	566.6666678	n/a	n/a	n/a	n/a	n/a	n/a	n/a	"2021-02-24 13:58:53.651945"	"2021-02-24 13:58:54.203244"	17	5.97235846666667
"S210224"	"Response_Inhibition"	"LEFT"	"LEFT"	428.304099999991	816.6666683	n/a	n/a	n/a	n/a	n/a	n/a	n/a	"2021-02-24 13:58:55.031278"	"2021-02-24 13:58:55.671152"	18	5.97235846666667
"S210224"	"Response_Inhibition"	"RIGHT"	"RIGHT"	400.100500000008	1033.3333354	n/a	n/a	n/a	n/a	n/a	n/a	n/a	"2021-02-24 13:58:56.714849"	"2021-02-24 13:58:57.322511"	19	5.97235846666667
"S210224"	"Response_Inhibition"	"RIGHT"	"Time_Max_Exceeded"	1500.05483340001	1250.0000025	n/a	n/a	n/a	n/a	n/a	n/a	n/a	"2021-02-24 13:58:58.581622"	"2021-02-24 13:59:00.085908"	20	5.97235846666667
"S210224"	"Response_Inhibition"	"LEFT"	"Time_Max_Exceeded"	1500.0647	1166.666669	n/a	n/a	n/a	n/a	n/a	n/a	n/a	"2021-02-24 13:59:01.261634"	"2021-02-24 13:59:02.762223"	21	5.97235846666667
"S210224"	"Response_Inhibition"	"RIGHT"	"RIGHT"	384.497899999985	950.0000019	n/a	n/a	n/a	n/a	n/a	n/a	n/a	"2021-02-24 13:59:03.722163"	"2021-02-24 13:59:04.315245"	22	5.97235846666667
"S210224"	"Response_Inhibition"	"LEFT"	"LEFT"	352.071666900014	1266.6666692	n/a	n/a	n/a	n/a	n/a	n/a	n/a	"2021-02-24 13:59:05.592164"	"2021-02-24 13:59:06.154831"	23	5.97235846666667
"S210224"	"Response_Inhibition"	"LEFT"	"Time_Max_Exceeded"	1500.07456670003	850.0000017	n/a	n/a	n/a	n/a	n/a	n/a	n/a	"2021-02-24 13:59:07.015086"	"2021-02-24 13:59:08.519132"	24	5.97235846666667
"S210224"	"Response_Inhibition"	"LEFT"	"LEFT"	459.44450059995	500.000001	n/a	n/a	n/a	n/a	n/a	n/a	n/a	"2021-02-24 13:59:09.028852"	"2021-02-24 13:59:09.698631"	25	5.97235846666667
"S210224"	"Response_Inhibition"	"LEFT"	"LEFT"	657.966399999964	933.3333352	n/a	n/a	n/a	n/a	n/a	n/a	n/a	"2021-02-24 13:59:10.641160"	"2021-02-24 13:59:11.508087"	26	5.97235846666667
"S210224"	"Response_Inhibition"	"LEFT"	"LEFT"	459.92339999998	650.0000013	n/a	n/a	n/a	n/a	n/a	n/a	n/a	"2021-02-24 13:59:12.167291"	"2021-02-24 13:59:12.833727"	27	5.97235846666667
"S210224"	"Response_Inhibition"	"LEFT"	"LEFT"	402.753899999993	1116.6666689	n/a	n/a	n/a	n/a	n/a	n/a	n/a	"2021-02-24 13:59:13.960585"	"2021-02-24 13:59:14.570888"	28	5.97235846666667
"S210224"	"Response_Inhibition"	"RIGHT"	"Time_Max_Exceeded"	1500.05976679999	1266.6666692	n/a	n/a	n/a	n/a	n/a	n/a	n/a	"2021-02-24 13:59:15.846618"	"2021-02-24 13:59:17.349969"	29	5.97235846666667
"S210224"	"Response_Inhibition"	"RIGHT"	"RIGHT"	527.277099999992	1316.6666693	n/a	n/a	n/a	n/a	n/a	n/a	n/a	"2021-02-24 13:59:18.676253"	"2021-02-24 13:59:19.411485"	30	5.97235846666667
"S210224"	"Response_Inhibition"	"LEFT"	"Time_Max_Exceeded"	1500.05036719999	1383.3333361	n/a	n/a	n/a	n/a	n/a	n/a	n/a	"2021-02-24 13:59:20.804474"	"2021-02-24 13:59:22.307460"	31	5.97235846666667
"S210224"	"Response_Inhibition"	"RIGHT"	"RIGHT"	496.178100000009	683.3333347	n/a	n/a	n/a	n/a	n/a	n/a	n/a	"2021-02-24 13:59:23.002706"	"2021-02-24 13:59:23.707517"	32	5.97235846666667
"S210224"	"Response_Inhibition"	"RIGHT"	"RIGHT"	689.17909999999	500.000001	n/a	n/a	n/a	n/a	n/a	n/a	n/a	"2021-02-24 13:59:24.217451"	"2021-02-24 13:59:25.117421"	33	5.97235846666667
"S210224"	"Response_Inhibition"	"LEFT"	"LEFT"	618.842400000005	850.0000017	n/a	n/a	n/a	n/a	n/a	n/a	n/a	"2021-02-24 13:59:25.975735"	"2021-02-24 13:59:26.803307"	34	5.97235846666667
"S210224"	"Response_Inhibition"	"LEFT"	"LEFT"	635.549700000013	1466.6666696	n/a	n/a	n/a	n/a	n/a	n/a	n/a	"2021-02-24 13:59:28.279266"	"2021-02-24 13:59:29.122500"	35	5.97235846666667
"S210224"	"Response_Inhibition"	"RIGHT"	"RIGHT"	616.301300000032	966.6666686	n/a	n/a	n/a	n/a	n/a	n/a	n/a	"2021-02-24 13:59:30.099055"	"2021-02-24 13:59:30.923307"	36	5.97235846666667
"S210224"	"Response_Inhibition"	"LEFT"	"LEFT"	679.708300000016	750.0000015	n/a	n/a	n/a	n/a	n/a	n/a	n/a	"2021-02-24 13:59:31.682745"	"2021-02-24 13:59:32.570517"	37	5.97235846666667
"S210224"	"Response_Inhibition"	"RIGHT"	"RIGHT"	787.858599999993	1466.6666696	n/a	n/a	n/a	n/a	n/a	n/a	n/a	"2021-02-24 13:59:34.047148"	"2021-02-24 13:59:35.045225"	38	5.97235846666667
"S210224"	"Response_Inhibition"	"RIGHT"	"RIGHT"	449.391133899976	1416.6666695	n/a	n/a	n/a	n/a	n/a	n/a	n/a	"2021-02-24 13:59:36.469939"	"2021-02-24 13:59:37.132282"	39	5.97235846666667
"S210224"	"Response_Inhibition"	"RIGHT"	"Time_Max_Exceeded"	1500.0583339	650.0000013	n/a	n/a	n/a	n/a	n/a	n/a	n/a	"2021-02-24 13:59:37.791486"	"2021-02-24 13:59:39.295104"	40	5.97235846666667
"S210224"	"Response_Inhibition"	"RIGHT"	"RIGHT"	614.75530000007	883.3333351	n/a	n/a	n/a	n/a	n/a	n/a	n/a	"2021-02-24 13:59:40.188129"	"2021-02-24 13:59:41.010928"	41	5.97235846666667
"S210224"	"Response_Inhibition"	"LEFT"	"Time_Max_Exceeded"	1500.04906680003	1000.000002	n/a	n/a	n/a	n/a	n/a	n/a	n/a	"2021-02-24 13:59:42.019743"	"2021-02-24 13:59:43.522406"	42	5.97235846666667
"S210224"	"Response_Inhibition"	"LEFT"	"LEFT"	562.70649999999	1100.0000022	n/a	n/a	n/a	n/a	n/a	n/a	n/a	"2021-02-24 13:59:44.632488"	"2021-02-24 13:59:45.402549"	43	5.97235846666667
"S210224"	"Response_Inhibition"	"RIGHT"	"RIGHT"	788.130700000011	666.666668	n/a	n/a	n/a	n/a	n/a	n/a	n/a	"2021-02-24 13:59:46.078353"	"2021-02-24 13:59:47.074987"	44	5.97235846666667
"S210224"	"Response_Inhibition"	"LEFT"	"Time_Max_Exceeded"	1500.06020039996	1416.6666695	n/a	n/a	n/a	n/a	n/a	n/a	n/a	"2021-02-24 13:59:48.500745"	"2021-02-24 13:59:50.004385"	45	5.97235846666667
"S210224"	"Response_Inhibition"	"RIGHT"	"RIGHT"	518.309799999997	1150.0000023	n/a	n/a	n/a	n/a	n/a	n/a	n/a	"2021-02-24 13:59:51.164199"	"2021-02-24 13:59:51.890904"	46	5.97235846666667
"S210224"	"Response_Inhibition"	"RIGHT"	"RIGHT"	470.040799999992	1016.6666687	n/a	n/a	n/a	n/a	n/a	n/a	n/a	"2021-02-24 13:59:52.917294"	"2021-02-24 13:59:53.595152"	47	5.97235846666667
"S210224"	"Response_Inhibition"	"LEFT"	"LEFT"	787.154500000042	700.0000014	n/a	n/a	n/a	n/a	n/a	n/a	n/a	"2021-02-24 13:59:54.303300"	"2021-02-24 13:59:55.300007"	48	5.97235846666667
"S210224"	"Response_Inhibition"	"LEFT"	"LEFT"	646.785899999941	983.3333353	n/a	n/a	n/a	n/a	n/a	n/a	n/a	"2021-02-24 13:59:56.292392"	"2021-02-24 13:59:57.146831"	49	5.97235846666667
"S210224"	"Response_Inhibition"	"RIGHT"	"RIGHT"	412.338133699984	1000.000002	n/a	n/a	n/a	n/a	n/a	n/a	n/a	"2021-02-24 13:59:58.155577"	"2021-02-24 13:59:58.780199"	50	5.97235846666667
"S210224"	"Response_Inhibition"	"RIGHT"	"RIGHT"	787.075500000014	1266.6666692	n/a	n/a	n/a	n/a	n/a	n/a	n/a	"2021-02-24 14:00:00.055261"	"2021-02-24 14:00:01.050755"	51	5.97235846666667
"S210224"	"Response_Inhibition"	"RIGHT"	"Time_Max_Exceeded"	1500.06070019993	583.3333345	n/a	n/a	n/a	n/a	n/a	n/a	n/a	"2021-02-24 14:00:01.642840"	"2021-02-24 14:00:03.146907"	52	5.97235846666667
"S210224"	"Response_Inhibition"	"LEFT"	"LEFT"	609.27120000008	733.3333348	n/a	n/a	n/a	n/a	n/a	n/a	n/a	"2021-02-24 14:00:03.889449"	"2021-02-24 14:00:04.706641"	53	5.97235846666667
"S210224"	"Response_Inhibition"	"RIGHT"	"RIGHT"	600.33020000003	583.3333345	n/a	n/a	n/a	n/a	n/a	n/a	n/a	"2021-02-24 14:00:05.298733"	"2021-02-24 14:00:06.108805"	54	5.97235846666667
"S210224"	"Response_Inhibition"	"RIGHT"	"RIGHT"	663.299000000052	1133.3333356	n/a	n/a	n/a	n/a	n/a	n/a	n/a	"2021-02-24 14:00:07.251463"	"2021-02-24 14:00:08.124214"	55	5.97235846666667
"S210224"	"Response_Inhibition"	"RIGHT"	"Time_Max_Exceeded"	1500.05913339995	983.3333353	n/a	n/a	n/a	n/a	n/a	n/a	n/a	"2021-02-24 14:00:09.116682"	"2021-02-24 14:00:10.620629"	56	5.97235846666667
"S210224"	"Response_Inhibition"	"RIGHT"	"Time_Max_Exceeded"	1500.20940010006	783.3333349	n/a	n/a	n/a	n/a	n/a	n/a	n/a	"2021-02-24 14:00:11.413140"	"2021-02-24 14:00:12.917090"	57	5.97235846666667
"S210224"	"Response_Inhibition"	"RIGHT"	"RIGHT"	515.342000000032	616.6666679	n/a	n/a	n/a	n/a	n/a	n/a	n/a	"2021-02-24 14:00:13.543420"	"2021-02-24 14:00:14.268029"	58	5.97235846666667
"S210224"	"Response_Inhibition"	"LEFT"	"LEFT"	687.590199999931	950.0000019	n/a	n/a	n/a	n/a	n/a	n/a	n/a	"2021-02-24 14:00:15.227119"	"2021-02-24 14:00:16.123992"	59	5.97235846666667
"S210224"	"Response_Inhibition"	"RIGHT"	"Time_Max_Exceeded"	1500.05970049995	533.3333344	n/a	n/a	n/a	n/a	n/a	n/a	n/a	"2021-02-24 14:00:16.665504"	"2021-02-24 14:00:18.169159"	60	5.97235846666667
"S210224"	"Response_Inhibition"	"LEFT"	"LEFT"	528.501500000061	966.6666686	n/a	n/a	n/a	n/a	n/a	n/a	n/a	"2021-02-24 14:00:19.146379"	"2021-02-24 14:00:19.882993"	61	5.97235846666667
"S210224"	"Response_Inhibition"	"RIGHT"	"RIGHT"	588.442900000018	1450.0000029	n/a	n/a	n/a	n/a	n/a	n/a	n/a	"2021-02-24 14:00:21.342022"	"2021-02-24 14:00:22.139302"	62	5.97235846666667
"S210224"	"Response_Inhibition"	"LEFT"	"LEFT"	692.921699999943	1250.0000025	n/a	n/a	n/a	n/a	n/a	n/a	n/a	"2021-02-24 14:00:23.397816"	"2021-02-24 14:00:24.297873"	63	5.97235846666667
"S210224"	"Response_Inhibition"	"RIGHT"	"Time_Max_Exceeded"	1500.05083380003	1300.0000026	n/a	n/a	n/a	n/a	n/a	n/a	n/a	"2021-02-24 14:00:25.606436"	"2021-02-24 14:00:27.109793"	64	5.97235846666667
"S210224"	"Response_Inhibition"	"LEFT"	"LEFT"	688.308900000038	1216.6666691	n/a	n/a	n/a	n/a	n/a	n/a	n/a	"2021-02-24 14:00:28.338667"	"2021-02-24 14:00:29.236071"	65	5.97235846666667
"S210224"	"Response_Inhibition"	"LEFT"	"LEFT"	844.092100000012	1450.0000029	n/a	n/a	n/a	n/a	n/a	n/a	n/a	"2021-02-24 14:00:30.694446"	"2021-02-24 14:00:31.746440"	66	5.97235846666667
"S210224"	"Response_Inhibition"	"LEFT"	"Time_Max_Exceeded"	1500.05106719998	716.6666681	n/a	n/a	n/a	n/a	n/a	n/a	n/a	"2021-02-24 14:00:32.472087"	"2021-02-24 14:00:33.975266"	67	5.97235846666667
"S210224"	"Response_Inhibition"	"LEFT"	"LEFT"	753.150699999992	1400.0000028	n/a	n/a	n/a	n/a	n/a	n/a	n/a	"2021-02-24 14:00:35.385308"	"2021-02-24 14:00:36.347920"	68	5.97235846666667
"S210224"	"Response_Inhibition"	"LEFT"	"LEFT"	714.699699999983	1066.6666688	n/a	n/a	n/a	n/a	n/a	n/a	n/a	"2021-02-24 14:00:37.424433"	"2021-02-24 14:00:38.347428"	69	5.97235846666667
"S210224"	"Response_Inhibition"	"LEFT"	"LEFT"	752.18689999997	1500.000003	n/a	n/a	n/a	n/a	n/a	n/a	n/a	"2021-02-24 14:00:39.858724"	"2021-02-24 14:00:40.820275"	70	5.97235846666667
"S210224"	"Response_Inhibition"	"LEFT"	"Time_Max_Exceeded"	1500.0675336	683.3333347	n/a	n/a	n/a	n/a	n/a	n/a	n/a	"2021-02-24 14:00:41.513034"	"2021-02-24 14:00:43.016258"	71	5.97235846666667
"S210224"	"Response_Inhibition"	"LEFT"	"LEFT"	518.707000000063	1433.3333362	n/a	n/a	n/a	n/a	n/a	n/a	n/a	"2021-02-24 14:00:44.459957"	"2021-02-24 14:00:45.189545"	72	5.97235846666667
"S210224"	"Response_Inhibition"	"RIGHT"	"RIGHT"	854.704900000002	1083.3333355	n/a	n/a	n/a	n/a	n/a	n/a	n/a	"2021-02-24 14:00:46.283563"	"2021-02-24 14:00:47.348310"	73	5.97235846666667
"S210224"	"Response_Inhibition"	"RIGHT"	"RIGHT"	588.088500000026	1366.6666694	n/a	n/a	n/a	n/a	n/a	n/a	n/a	"2021-02-24 14:00:48.726540"	"2021-02-24 14:00:49.523008"	74	5.97235846666667
"S210224"	"Response_Inhibition"	"RIGHT"	"RIGHT"	822.753199999966	550.0000011	n/a	n/a	n/a	n/a	n/a	n/a	n/a	"2021-02-24 14:00:50.083512"	"2021-02-24 14:00:51.118910"	75	5.97235846666667
"S210224"	"Response_Inhibition"	"LEFT"	"Time_Max_Exceeded"	1500.07913359999	1000.000002	n/a	n/a	n/a	n/a	n/a	n/a	n/a	"2021-02-24 14:00:52.129504"	"2021-02-24 14:00:53.633268"	76	5.97235846666667
"S210224"	"Response_Inhibition"	"LEFT"	"Time_Max_Exceeded"	1500.06040009998	633.3333346	n/a	n/a	n/a	n/a	n/a	n/a	n/a	"2021-02-24 14:00:54.277543"	"2021-02-24 14:00:55.781408"	77	5.97235846666667
"S210224"	"Response_Inhibition"	"LEFT"	"LEFT"	545.027199999936	666.666668	n/a	n/a	n/a	n/a	n/a	n/a	n/a	"2021-02-24 14:00:56.457162"	"2021-02-24 14:00:57.211649"	78	5.97235846666667
"S210224"	"Response_Inhibition"	"RIGHT"	"Time_Max_Exceeded"	1500.05803389999	1100.0000022	n/a	n/a	n/a	n/a	n/a	n/a	n/a	"2021-02-24 14:00:58.321633"	"2021-02-24 14:00:59.825750"	79	5.97235846666667
"S210224"	"Response_Inhibition"	"RIGHT"	"Time_Max_Exceeded"	1500.05913339995	1466.6666696	n/a	n/a	n/a	n/a	n/a	n/a	n/a	"2021-02-24 14:01:01.303339"	"2021-02-24 14:01:02.807095"	80	5.97235846666667
"S210224"	"Response_Inhibition"	"RIGHT"	"RIGHT"	615.914599999996	800.0000016	n/a	n/a	n/a	n/a	n/a	n/a	n/a	"2021-02-24 14:01:03.619007"	"2021-02-24 14:01:04.443022"	81	5.97235846666667
"S210224"	"Response_Inhibition"	"RIGHT"	"RIGHT"	819.540500000016	1050.0000021	n/a	n/a	n/a	n/a	n/a	n/a	n/a	"2021-02-24 14:01:05.503104"	"2021-02-24 14:01:06.532915"	82	5.97235846666667
"S210224"	"Response_Inhibition"	"RIGHT"	"RIGHT"	714.160300000003	866.6666684	n/a	n/a	n/a	n/a	n/a	n/a	n/a	"2021-02-24 14:01:07.408815"	"2021-02-24 14:01:08.330732"	83	5.97235846666667
"S210224"	"Response_Inhibition"	"RIGHT"	"RIGHT"	651.318500000002	1283.3333359	n/a	n/a	n/a	n/a	n/a	n/a	n/a	"2021-02-24 14:01:09.623747"	"2021-02-24 14:01:10.482775"	84	5.97235846666667
"S210224"	"Response_Inhibition"	"LEFT"	"LEFT"	780.855599999995	1466.6666696	n/a	n/a	n/a	n/a	n/a	n/a	n/a	"2021-02-24 14:01:11.958242"	"2021-02-24 14:01:12.946912"	85	5.97235846666667
"S210224"	"Response_Inhibition"	"RIGHT"	"RIGHT"	671.233499999971	600.0000012	n/a	n/a	n/a	n/a	n/a	n/a	n/a	"2021-02-24 14:01:13.555309"	"2021-02-24 14:01:14.435207"	86	5.97235846666667
"S210224"	"Response_Inhibition"	"LEFT"	"LEFT"	721.467700000062	516.6666677	n/a	n/a	n/a	n/a	n/a	n/a	n/a	"2021-02-24 14:01:14.961801"	"2021-02-24 14:01:15.893424"	87	5.97235846666667
"S210224"	"Response_Inhibition"	"RIGHT"	"Time_Max_Exceeded"	1500.07966690002	1183.3333357	n/a	n/a	n/a	n/a	n/a	n/a	n/a	"2021-02-24 14:01:17.086364"	"2021-02-24 14:01:18.590044"	88	5.97235846666667
"S210224"	"Response_Inhibition"	"RIGHT"	"Time_Max_Exceeded"	1500.06216699994	1350.0000027	n/a	n/a	n/a	n/a	n/a	n/a	n/a	"2021-02-24 14:01:19.949988"	"2021-02-24 14:01:21.453064"	89	5.97235846666667
"S210224"	"Response_Inhibition"	"LEFT"	"LEFT"	761.782799999992	1266.6666692	n/a	n/a	n/a	n/a	n/a	n/a	n/a	"2021-02-24 14:01:22.728790"	"2021-02-24 14:01:23.699792"	90	5.97235846666667
"S210224"	"Response_Inhibition"	"LEFT"	"Time_Max_Exceeded"	1500.06133370001	1483.3333363	n/a	n/a	n/a	n/a	n/a	n/a	n/a	"2021-02-24 14:01:25.192289"	"2021-02-24 14:01:26.696904"	91	5.97235846666667
"S210224"	"Response_Inhibition"	"LEFT"	"LEFT"	662.898899999959	1233.3333358	n/a	n/a	n/a	n/a	n/a	n/a	n/a	"2021-02-24 14:01:27.940227"	"2021-02-24 14:01:28.811909"	92	5.97235846666667
"S210224"	"Response_Inhibition"	"RIGHT"	"Time_Max_Exceeded"	1500.06020029992	533.3333344	n/a	n/a	n/a	n/a	n/a	n/a	n/a	"2021-02-24 14:01:29.354456"	"2021-02-24 14:01:30.857539"	93	5.97235846666667
"S210224"	"Response_Inhibition"	"LEFT"	"Time_Max_Exceeded"	1500.05456670003	1366.6666694	n/a	n/a	n/a	n/a	n/a	n/a	n/a	"2021-02-24 14:01:32.233890"	"2021-02-24 14:01:33.737981"	94	5.97235846666667
"S210224"	"Response_Inhibition"	"LEFT"	"LEFT"	625.922800000012	1316.6666693	n/a	n/a	n/a	n/a	n/a	n/a	n/a	"2021-02-24 14:01:35.064923"	"2021-02-24 14:01:35.898342"	95	5.97235846666667
"S210224"	"Response_Inhibition"	"LEFT"	"Time_Max_Exceeded"	1500.06270020003	1200.0000024	n/a	n/a	n/a	n/a	n/a	n/a	n/a	"2021-02-24 14:01:37.107654"	"2021-02-24 14:01:38.611724"	96	5.97235846666667
"S210224"	"Response_Inhibition"	"LEFT"	"LEFT"	596.497099999965	1416.6666695	n/a	n/a	n/a	n/a	n/a	n/a	n/a	"2021-02-24 14:01:40.038161"	"2021-02-24 14:01:40.843449"	97	5.97235846666667
"S210224"	"Response_Inhibition"	"RIGHT"	"Time_Max_Exceeded"	1500.05703360008	1150.0000023	n/a	n/a	n/a	n/a	n/a	n/a	n/a	"2021-02-24 14:01:42.003896"	"2021-02-24 14:01:43.507827"	98	5.97235846666667
"S210224"	"Response_Inhibition"	"LEFT"	"LEFT"	633.506600000032	900.0000018	n/a	n/a	n/a	n/a	n/a	n/a	n/a	"2021-02-24 14:01:44.417026"	"2021-02-24 14:01:45.259417"	99	5.97235846666667
"S210224"	"Response_Inhibition"	"LEFT"	"Time_Max_Exceeded"	1500.05496689998	1083.3333355	n/a	n/a	n/a	n/a	n/a	n/a	n/a	"2021-02-24 14:01:46.351694"	"2021-02-24 14:01:47.855339"	100	5.97235846666667
"S210224"	"Response_Inhibition"	"RIGHT"	"Time_Max_Exceeded"	1500.0626003	1066.6666688	n/a	n/a	n/a	n/a	n/a	n/a	n/a	"2021-02-24 14:01:48.932027"	"2021-02-24 14:01:50.435215"	101	5.97235846666667
"S210224"	"Response_Inhibition"	"RIGHT"	"Time_Max_Exceeded"	1500.0657004	733.3333348	n/a	n/a	n/a	n/a	n/a	n/a	n/a	"2021-02-24 14:01:51.178710"	"2021-02-24 14:01:52.682419"	102	5.97235846666667
"S210224"	"Response_Inhibition"	"RIGHT"	"Time_Max_Exceeded"	1500.05963350005	833.333335	n/a	n/a	n/a	n/a	n/a	n/a	n/a	"2021-02-24 14:01:53.524854"	"2021-02-24 14:01:55.028042"	103	5.97235846666667
"S210224"	"Response_Inhibition"	"RIGHT"	"RIGHT"	724.204299999997	783.3333349	n/a	n/a	n/a	n/a	n/a	n/a	n/a	"2021-02-24 14:01:55.822601"	"2021-02-24 14:01:56.754650"	104	5.97235846666667
"S210224"	"Response_Inhibition"	"LEFT"	"Time_Max_Exceeded"	1500.05980019989	1333.333336	n/a	n/a	n/a	n/a	n/a	n/a	n/a	"2021-02-24 14:01:58.096773"	"2021-02-24 14:01:59.600031"	105	5.97235846666667
"S210224"	"Response_Inhibition"	"LEFT"	"LEFT"	618.744800000059	1366.6666694	n/a	n/a	n/a	n/a	n/a	n/a	n/a	"2021-02-24 14:02:00.976072"	"2021-02-24 14:02:01.802008"	106	5.97235846666667
"S210224"	"Response_Inhibition"	"RIGHT"	"RIGHT"	761.88209999998	733.3333348	n/a	n/a	n/a	n/a	n/a	n/a	n/a	"2021-02-24 14:02:02.544847"	"2021-02-24 14:02:03.515270"	107	5.97235846666667
"S210224"	"Response_Inhibition"	"LEFT"	"LEFT"	695.65369999998	1183.3333357	n/a	n/a	n/a	n/a	n/a	n/a	n/a	"2021-02-24 14:02:04.706618"	"2021-02-24 14:02:05.610530"	108	5.97235846666667
"S210224"	"Response_Inhibition"	"RIGHT"	"RIGHT"	539.157299999943	1316.6666693	n/a	n/a	n/a	n/a	n/a	n/a	n/a	"2021-02-24 14:02:06.936128"	"2021-02-24 14:02:07.682459"	109	5.97235846666667
"S210224"	"Response_Inhibition"	"LEFT"	"Time_Max_Exceeded"	1500.04876719997	533.3333344	n/a	n/a	n/a	n/a	n/a	n/a	n/a	"2021-02-24 14:02:08.224439"	"2021-02-24 14:02:09.728224"	110	5.97235846666667
"S210224"	"Response_Inhibition"	"LEFT"	"LEFT"	632.864000000041	583.3333345	n/a	n/a	n/a	n/a	n/a	n/a	n/a	"2021-02-24 14:02:10.321637"	"2021-02-24 14:02:11.161558"	111	5.97235846666667
"S210224"	"Response_Inhibition"	"LEFT"	"LEFT"	707.454400000074	733.3333348	n/a	n/a	n/a	n/a	n/a	n/a	n/a	"2021-02-24 14:02:11.903406"	"2021-02-24 14:02:12.819207"	112	5.97235846666667
"S210224"	"Response_Inhibition"	"RIGHT"	"RIGHT"	650.15690000007	700.0000014	n/a	n/a	n/a	n/a	n/a	n/a	n/a	"2021-02-24 14:02:13.528293"	"2021-02-24 14:02:14.386442"	113	5.97235846666667
"S210224"	"Response_Inhibition"	"LEFT"	"LEFT"	619.602499999928	1300.0000026	n/a	n/a	n/a	n/a	n/a	n/a	n/a	"2021-02-24 14:02:15.695136"	"2021-02-24 14:02:16.521716"	114	5.97235846666667
"S210224"	"Response_Inhibition"	"LEFT"	"LEFT"	616.473199999973	783.3333349	n/a	n/a	n/a	n/a	n/a	n/a	n/a	"2021-02-24 14:02:17.314141"	"2021-02-24 14:02:18.138765"	115	5.97235846666667
"S210224"	"Response_Inhibition"	"RIGHT"	"RIGHT"	626.115199999958	1500.000003	n/a	n/a	n/a	n/a	n/a	n/a	n/a	"2021-02-24 14:02:19.649045"	"2021-02-24 14:02:20.482598"	116	5.97235846666667
"S210224"	"Response_Inhibition"	"LEFT"	"LEFT"	461.375500500031	766.6666682	n/a	n/a	n/a	n/a	n/a	n/a	n/a	"2021-02-24 14:02:21.257795"	"2021-02-24 14:02:21.930891"	117	5.97235846666667
"S210224"	"Response_Inhibition"	"RIGHT"	"Time_Max_Exceeded"	1500.06540000004	633.3333346	n/a	n/a	n/a	n/a	n/a	n/a	n/a	"2021-02-24 14:02:22.573681"	"2021-02-24 14:02:24.073721"	118	5.97235846666667
"S210224"	"Response_Inhibition"	"LEFT"	"Time_Max_Exceeded"	1500.04940010001	883.3333351	n/a	n/a	n/a	n/a	n/a	n/a	n/a	"2021-02-24 14:02:24.966801"	"2021-02-24 14:02:26.470220"	119	5.97235846666667
"S210224"	"Response_Inhibition"	"RIGHT"	"RIGHT"	622.454699999935	1100.0000022	n/a	n/a	n/a	n/a	n/a	n/a	n/a	"2021-02-24 14:02:27.579778"	"2021-02-24 14:02:28.409970"	120	5.97235846666667
"S210224"	"Response_Inhibition"	"RIGHT"	"RIGHT"	578.943500000037	1116.6666689	n/a	n/a	n/a	n/a	n/a	n/a	n/a	"2021-02-24 14:02:29.535945"	"2021-02-24 14:02:30.322537"	121	5.97235846666667
"S210224"	"Response_Inhibition"	"LEFT"	"LEFT"	658.239799999933	1100.0000022	n/a	n/a	n/a	n/a	n/a	n/a	n/a	"2021-02-24 14:02:31.431998"	"2021-02-24 14:02:32.298707"	122	5.97235846666667
"S210224"	"Response_Inhibition"	"LEFT"	"Time_Max_Exceeded"	1500.05353369996	1283.3333359	n/a	n/a	n/a	n/a	n/a	n/a	n/a	"2021-02-24 14:02:33.590686"	"2021-02-24 14:02:35.093684"	123	5.97235846666667
"S210224"	"Response_Inhibition"	"LEFT"	"LEFT"	560.713399999941	866.6666684	n/a	n/a	n/a	n/a	n/a	n/a	n/a	"2021-02-24 14:02:35.969366"	"2021-02-24 14:02:36.739031"	124	5.97235846666667
"S210224"	"Response_Inhibition"	"RIGHT"	"RIGHT"	591.276099999959	1383.3333361	n/a	n/a	n/a	n/a	n/a	n/a	n/a	"2021-02-24 14:02:38.130921"	"2021-02-24 14:02:38.930563"	125	5.97235846666667
"S210224"	"Response_Inhibition"	"LEFT"	"LEFT"	748.740199999929	1033.3333354	n/a	n/a	n/a	n/a	n/a	n/a	n/a	"2021-02-24 14:02:39.973998"	"2021-02-24 14:02:40.931441"	126	5.97235846666667
"S210224"	"Response_Inhibition"	"RIGHT"	"RIGHT"	592.653700000028	1333.333336	n/a	n/a	n/a	n/a	n/a	n/a	n/a	"2021-02-24 14:02:42.273695"	"2021-02-24 14:02:43.074599"	127	5.97235846666667
"S210224"	"Response_Inhibition"	"RIGHT"	"RIGHT"	665.952700000048	750.0000015	n/a	n/a	n/a	n/a	n/a	n/a	n/a	"2021-02-24 14:02:43.832606"	"2021-02-24 14:02:44.707002"	128	5.97235846666667
"S210224"	"Response_Inhibition"	"LEFT"	"LEFT"	905.097500000011	533.3333344	n/a	n/a	n/a	n/a	n/a	n/a	n/a	"2021-02-24 14:02:45.249585"	"2021-02-24 14:02:46.361865"	129	5.97235846666667
"S210224"	"Response_Inhibition"	"LEFT"	"LEFT"	600.097299999902	583.3333345	n/a	n/a	n/a	n/a	n/a	n/a	n/a	"2021-02-24 14:02:46.954264"	"2021-02-24 14:02:47.763329"	130	5.97235846666667
"S210224"	"Response_Inhibition"	"LEFT"	"Time_Max_Exceeded"	1500.26280049997	1133.3333356	n/a	n/a	n/a	n/a	n/a	n/a	n/a	"2021-02-24 14:02:48.908593"	"2021-02-24 14:02:50.411812"	131	5.97235846666667
"S210224"	"Response_Inhibition"	"RIGHT"	"RIGHT"	557.731900000022	1366.6666694	n/a	n/a	n/a	n/a	n/a	n/a	n/a	"2021-02-24 14:02:51.789116"	"2021-02-24 14:02:52.554574"	132	5.97235846666667
"S210224"	"Response_Inhibition"	"RIGHT"	"RIGHT"	582.269300000007	1433.3333362	n/a	n/a	n/a	n/a	n/a	n/a	n/a	"2021-02-24 14:02:53.996144"	"2021-02-24 14:02:54.787362"	133	5.97235846666667
"S210224"	"Response_Inhibition"	"RIGHT"	"RIGHT"	547.152933800102	933.3333352	n/a	n/a	n/a	n/a	n/a	n/a	n/a	"2021-02-24 14:02:55.732449"	"2021-02-24 14:02:56.490589"	134	5.97235846666667
"S210224"	"Response_Inhibition"	"RIGHT"	"RIGHT"	626.067899999953	916.6666685	n/a	n/a	n/a	n/a	n/a	n/a	n/a	"2021-02-24 14:02:57.416397"	"2021-02-24 14:02:58.251155"	135	5.97235846666667
"S210224"	"Response_Inhibition"	"LEFT"	"LEFT"	854.791900000009	1150.0000023	n/a	n/a	n/a	n/a	n/a	n/a	n/a	"2021-02-24 14:02:59.411947"	"2021-02-24 14:03:00.474597"	136	5.97235846666667
"S210224"	"Response_Inhibition"	"RIGHT"	"RIGHT"	677.199900000005	816.6666683	n/a	n/a	n/a	n/a	n/a	n/a	n/a	"2021-02-24 14:03:01.301856"	"2021-02-24 14:03:02.187299"	137	5.97235846666667
"S210224"	"Response_Inhibition"	"LEFT"	"LEFT"	653.484099999901	633.3333346	n/a	n/a	n/a	n/a	n/a	n/a	n/a	"2021-02-24 14:03:02.829117"	"2021-02-24 14:03:03.690595"	138	5.97235846666667
"S210224"	"Response_Inhibition"	"RIGHT"	"RIGHT"	559.657300000026	1166.666669	n/a	n/a	n/a	n/a	n/a	n/a	n/a	"2021-02-24 14:03:04.867105"	"2021-02-24 14:03:05.635279"	139	5.97235846666667
"S210224"	"Response_Inhibition"	"RIGHT"	"RIGHT"	650.363500000026	516.6666677	n/a	n/a	n/a	n/a	n/a	n/a	n/a	"2021-02-24 14:03:06.160025"	"2021-02-24 14:03:07.018773"	140	5.97235846666667
"S210224"	"Response_Inhibition"	"LEFT"	"Time_Max_Exceeded"	1500.05180030007	600.0000012	n/a	n/a	n/a	n/a	n/a	n/a	n/a	"2021-02-24 14:03:07.627838"	"2021-02-24 14:03:09.131816"	141	5.97235846666667
"S210224"	"Response_Inhibition"	"LEFT"	"LEFT"	609.820900000045	683.3333347	n/a	n/a	n/a	n/a	n/a	n/a	n/a	"2021-02-24 14:03:09.824304"	"2021-02-24 14:03:10.642800"	142	5.97235846666667
"S210224"	"Response_Inhibition"	"RIGHT"	"RIGHT"	550.199600000042	1216.6666691	n/a	n/a	n/a	n/a	n/a	n/a	n/a	"2021-02-24 14:03:11.868813"	"2021-02-24 14:03:12.626922"	143	5.97235846666667
"S210224"	"Response_Inhibition"	"RIGHT"	"RIGHT"	462.19080000003	1000.000002	n/a	n/a	n/a	n/a	n/a	n/a	n/a	"2021-02-24 14:03:13.636787"	"2021-02-24 14:03:14.308003"	144	5.97235846666667
"S210224"	"Response_Inhibition"	"LEFT"	"LEFT"	495.329599999991	1350.0000027	n/a	n/a	n/a	n/a	n/a	n/a	n/a	"2021-02-24 14:03:15.667305"	"2021-02-24 14:03:16.372390"	145	5.97235846666667
"S210224"	"Response_Inhibition"	"LEFT"	"LEFT"	504.779400000075	916.6666685	n/a	n/a	n/a	n/a	n/a	n/a	n/a	"2021-02-24 14:03:17.297968"	"2021-02-24 14:03:18.011825"	146	5.97235846666667
"S210224"	"Response_Inhibition"	"LEFT"	"Time_Max_Exceeded"	1500.21466679997	1050.0000021	n/a	n/a	n/a	n/a	n/a	n/a	n/a	"2021-02-24 14:03:19.070616"	"2021-02-24 14:03:20.573949"	147	5.97235846666667
"S210224"	"Response_Inhibition"	"RIGHT"	"Time_Max_Exceeded"	1500.07340039997	900.0000018	n/a	n/a	n/a	n/a	n/a	n/a	n/a	"2021-02-24 14:03:21.484045"	"2021-02-24 14:03:22.987943"	148	5.97235846666667
"S210224"	"Response_Inhibition"	"LEFT"	"LEFT"	619.832499999916	783.3333349	n/a	n/a	n/a	n/a	n/a	n/a	n/a	"2021-02-24 14:03:23.783113"	"2021-02-24 14:03:24.610579"	149	5.97235846666667
"S210224"	"Response_Inhibition"	"RIGHT"	"RIGHT"	491.449767100036	1400.0000028	n/a	n/a	n/a	n/a	n/a	n/a	n/a	"2021-02-24 14:03:26.019522"	"2021-02-24 14:03:26.723373"	150	5.97235846666667
"S210224"	"Response_Inhibition"	"RIGHT"	"RIGHT"	710.987700000032	950.0000019	n/a	n/a	n/a	n/a	n/a	n/a	n/a	"2021-02-24 14:03:27.683996"	"2021-02-24 14:03:28.601762"	151	5.97235846666667
"S210224"	"Response_Inhibition"	"RIGHT"	"RIGHT"	504.834000000074	766.6666682	n/a	n/a	n/a	n/a	n/a	n/a	n/a	"2021-02-24 14:03:29.377707"	"2021-02-24 14:03:30.092314"	152	5.97235846666667
"S210224"	"Response_Inhibition"	"LEFT"	"Time_Max_Exceeded"	1500.06933350001	950.0000019	n/a	n/a	n/a	n/a	n/a	n/a	n/a	"2021-02-24 14:03:31.051425"	"2021-02-24 14:03:32.554852"	153	5.97235846666667
"S210224"	"Response_Inhibition"	"LEFT"	"LEFT"	494.021599999996	1216.6666691	n/a	n/a	n/a	n/a	n/a	n/a	n/a	"2021-02-24 14:03:33.780767"	"2021-02-24 14:03:34.483114"	154	5.97235846666667
"S210224"	"Response_Inhibition"	"LEFT"	"LEFT"	675.732499999981	1050.0000021	n/a	n/a	n/a	n/a	n/a	n/a	n/a	"2021-02-24 14:03:35.542925"	"2021-02-24 14:03:36.426491"	155	5.97235846666667
"S210224"	"Response_Inhibition"	"LEFT"	"Time_Max_Exceeded"	1500.07413379998	800.0000016	n/a	n/a	n/a	n/a	n/a	n/a	n/a	"2021-02-24 14:03:37.234671"	"2021-02-24 14:03:38.738261"	156	5.97235846666667
"S210224"	"Response_Inhibition"	"RIGHT"	"RIGHT"	414.313567099995	716.6666681	n/a	n/a	n/a	n/a	n/a	n/a	n/a	"2021-02-24 14:03:39.465287"	"2021-02-24 14:03:40.090464"	157	5.97235846666667
"S210224"	"Response_Inhibition"	"RIGHT"	"RIGHT"	589.374900000053	850.0000017	n/a	n/a	n/a	n/a	n/a	n/a	n/a	"2021-02-24 14:03:40.949090"	"2021-02-24 14:03:41.746847"	158	5.97235846666667
"S210224"	"Response_Inhibition"	"RIGHT"	"RIGHT"	588.324499999999	683.3333347	n/a	n/a	n/a	n/a	n/a	n/a	n/a	"2021-02-24 14:03:42.438953"	"2021-02-24 14:03:43.235021"	159	5.97235846666667
"S210224"	"Response_Inhibition"	"RIGHT"	"RIGHT"	549.044999999978	1233.3333358	n/a	n/a	n/a	n/a	n/a	n/a	n/a	"2021-02-24 14:03:44.477932"	"2021-02-24 14:03:45.234136"	160	5.97235846666667
"S210224"	"Response_Selection"	"RIGHT"	"RIGHT"	259.686600000009	1500.000003	n/a	n/a	n/a	n/a	n/a	n/a	n/a	"2021-02-24 13:55:47.352086"	"2021-02-24 13:55:47.819925"	1	2.93984376666667
"S210224"	"Response_Selection"	"LEFT"	"LEFT"	327.814699999976	1350.0000027	n/a	n/a	n/a	n/a	n/a	n/a	n/a	"2021-02-24 13:55:49.178809"	"2021-02-24 13:55:49.716046"	2	2.93984376666667
"S210224"	"Response_Selection"	"RIGHT"	"RIGHT"	299.686899999983	866.6666684	n/a	n/a	n/a	n/a	n/a	n/a	n/a	"2021-02-24 13:55:50.591159"	"2021-02-24 13:55:51.099721"	3	2.93984376666667
"S210224"	"Response_Selection"	"RIGHT"	"RIGHT"	244.428999999968	1250.0000025	n/a	n/a	n/a	n/a	n/a	n/a	n/a	"2021-02-24 13:55:52.358739"	"2021-02-24 13:55:52.811490"	4	2.93984376666667
"S210224"	"Response_Selection"	"LEFT"	"LEFT"	297.331900000017	916.6666685	n/a	n/a	n/a	n/a	n/a	n/a	n/a	"2021-02-24 13:55:53.738676"	"2021-02-24 13:55:54.245349"	5	2.93984376666667
"S210224"	"Response_Selection"	"RIGHT"	"RIGHT"	257.08480000003	883.3333351	n/a	n/a	n/a	n/a	n/a	n/a	n/a	"2021-02-24 13:55:55.138306"	"2021-02-24 13:55:55.605052"	6	2.93984376666667
"S210224"	"Response_Selection"	"LEFT"	"LEFT"	250.212900000008	883.3333351	n/a	n/a	n/a	n/a	n/a	n/a	n/a	"2021-02-24 13:55:56.497002"	"2021-02-24 13:55:56.954966"	7	2.93984376666667
"S210224"	"Response_Selection"	"RIGHT"	"RIGHT"	216.013299999986	1366.6666694	n/a	n/a	n/a	n/a	n/a	n/a	n/a	"2021-02-24 13:55:58.330946"	"2021-02-24 13:55:58.754640"	8	2.93984376666667
"S210224"	"Response_Selection"	"LEFT"	"LEFT"	230.353199999968	1450.0000029	n/a	n/a	n/a	n/a	n/a	n/a	n/a	"2021-02-24 13:56:00.213345"	"2021-02-24 13:56:00.650745"	9	2.93984376666667
"S210224"	"Response_Selection"	"LEFT"	"LEFT"	320.232099999998	966.6666686	n/a	n/a	n/a	n/a	n/a	n/a	n/a	"2021-02-24 13:56:01.626616"	"2021-02-24 13:56:02.154620"	10	2.93984376666667
"S210224"	"Response_Selection"	"LEFT"	"LEFT"	318.733899999984	600.0000012	n/a	n/a	n/a	n/a	n/a	n/a	n/a	"2021-02-24 13:56:02.764567"	"2021-02-24 13:56:03.291192"	11	2.93984376666667
"S210224"	"Response_Selection"	"LEFT"	"LEFT"	268.206399999997	650.0000013	n/a	n/a	n/a	n/a	n/a	n/a	n/a	"2021-02-24 13:56:03.950864"	"2021-02-24 13:56:04.428672"	12	2.93984376666667
"S210224"	"Response_Selection"	"RIGHT"	"RIGHT"	238.086099999975	783.3333349	n/a	n/a	n/a	n/a	n/a	n/a	n/a	"2021-02-24 13:56:05.221149"	"2021-02-24 13:56:05.667063"	13	2.93984376666667
"S210224"	"Response_Selection"	"RIGHT"	"RIGHT"	260.990300000003	650.0000013	n/a	n/a	n/a	n/a	n/a	n/a	n/a	"2021-02-24 13:56:06.326903"	"2021-02-24 13:56:06.796215"	14	2.93984376666667
"S210224"	"Response_Selection"	"RIGHT"	"RIGHT"	221.106099999986	800.0000016	n/a	n/a	n/a	n/a	n/a	n/a	n/a	"2021-02-24 13:56:07.606037"	"2021-02-24 13:56:08.035965"	15	2.93984376666667
"S210224"	"Response_Selection"	"LEFT"	"LEFT"	277.644100000032	1250.0000025	n/a	n/a	n/a	n/a	n/a	n/a	n/a	"2021-02-24 13:56:09.294654"	"2021-02-24 13:56:09.781214"	16	2.93984376666667
"S210224"	"Response_Selection"	"LEFT"	"LEFT"	326.623299999994	1166.666669	n/a	n/a	n/a	n/a	n/a	n/a	n/a	"2021-02-24 13:56:10.956181"	"2021-02-24 13:56:11.490534"	17	2.93984376666667
"S210224"	"Response_Selection"	"RIGHT"	"RIGHT"	270.408599999996	600.0000012	n/a	n/a	n/a	n/a	n/a	n/a	n/a	"2021-02-24 13:56:12.100384"	"2021-02-24 13:56:12.579144"	18	2.93984376666667
"S210224"	"Response_Selection"	"RIGHT"	"RIGHT"	316.030499999954	1266.6666692	n/a	n/a	n/a	n/a	n/a	n/a	n/a	"2021-02-24 13:56:13.854568"	"2021-02-24 13:56:14.379810"	19	2.93984376666667
"S210224"	"Response_Selection"	"LEFT"	"LEFT"	293.337999999949	633.3333346	n/a	n/a	n/a	n/a	n/a	n/a	n/a	"2021-02-24 13:56:15.022105"	"2021-02-24 13:56:15.522848"	20	2.93984376666667
"S210224"	"Response_Selection"	"LEFT"	"LEFT"	319.156999999961	1400.0000028	n/a	n/a	n/a	n/a	n/a	n/a	n/a	"2021-02-24 13:56:16.931868"	"2021-02-24 13:56:17.459087"	21	2.93984376666667
"S210224"	"Response_Selection"	"RIGHT"	"RIGHT"	302.455599999973	1400.0000028	n/a	n/a	n/a	n/a	n/a	n/a	n/a	"2021-02-24 13:56:18.868684"	"2021-02-24 13:56:19.379986"	22	2.93984376666667
"S210224"	"Response_Selection"	"RIGHT"	"RIGHT"	277.429299999994	833.333335	n/a	n/a	n/a	n/a	n/a	n/a	n/a	"2021-02-24 13:56:20.221694"	"2021-02-24 13:56:20.706906"	23	2.93984376666667
"S210224"	"Response_Selection"	"LEFT"	"LEFT"	306.20110000001	683.3333347	n/a	n/a	n/a	n/a	n/a	n/a	n/a	"2021-02-24 13:56:21.401184"	"2021-02-24 13:56:21.914756"	24	2.93984376666667
"S210224"	"Response_Selection"	"RIGHT"	"RIGHT"	265.207000000032	750.0000015	n/a	n/a	n/a	n/a	n/a	n/a	n/a	"2021-02-24 13:56:22.673519"	"2021-02-24 13:56:23.147210"	25	2.93984376666667
"S210224"	"Response_Selection"	"LEFT"	"LEFT"	277.404700000034	833.333335	n/a	n/a	n/a	n/a	n/a	n/a	n/a	"2021-02-24 13:56:23.989873"	"2021-02-24 13:56:24.475596"	26	2.93984376666667
"S210224"	"Response_Selection"	"LEFT"	"LEFT"	330.54709999999	1133.3333356	n/a	n/a	n/a	n/a	n/a	n/a	n/a	"2021-02-24 13:56:25.617640"	"2021-02-24 13:56:26.157289"	27	2.93984376666667
"S210224"	"Response_Selection"	"LEFT"	"LEFT"	307.952600000021	1033.3333354	n/a	n/a	n/a	n/a	n/a	n/a	n/a	"2021-02-24 13:56:27.199749"	"2021-02-24 13:56:27.714500"	28	2.93984376666667
"S210224"	"Response_Selection"	"RIGHT"	"RIGHT"	265.891399999987	1316.6666693	n/a	n/a	n/a	n/a	n/a	n/a	n/a	"2021-02-24 13:56:29.040991"	"2021-02-24 13:56:29.515025"	29	2.93984376666667
"S210224"	"Response_Selection"	"LEFT"	"LEFT"	276.952900000026	866.6666684	n/a	n/a	n/a	n/a	n/a	n/a	n/a	"2021-02-24 13:56:30.390243"	"2021-02-24 13:56:30.874697"	30	2.93984376666667
"S210224"	"Response_Selection"	"RIGHT"	"RIGHT"	245.902100000023	1216.6666691	n/a	n/a	n/a	n/a	n/a	n/a	n/a	"2021-02-24 13:56:32.100924"	"2021-02-24 13:56:32.556244"	31	2.93984376666667
"S210224"	"Response_Selection"	"RIGHT"	"RIGHT"	345.733899999971	933.3333352	n/a	n/a	n/a	n/a	n/a	n/a	n/a	"2021-02-24 13:56:33.498213"	"2021-02-24 13:56:34.053399"	32	2.93984376666667
"S210224"	"Response_Selection"	"RIGHT"	"RIGHT"	312.098800000001	733.3333348	n/a	n/a	n/a	n/a	n/a	n/a	n/a	"2021-02-24 13:56:34.795369"	"2021-02-24 13:56:35.315942"	33	2.93984376666667
"S210224"	"Response_Selection"	"RIGHT"	"RIGHT"	289.467400000035	533.3333344	n/a	n/a	n/a	n/a	n/a	n/a	n/a	"2021-02-24 13:56:35.857401"	"2021-02-24 13:56:36.355126"	34	2.93984376666667
"S210224"	"Response_Selection"	"RIGHT"	"RIGHT"	287.42299999999	583.3333345	n/a	n/a	n/a	n/a	n/a	n/a	n/a	"2021-02-24 13:56:36.947368"	"2021-02-24 13:56:37.442440"	35	2.93984376666667
"S210224"	"Response_Selection"	"LEFT"	"LEFT"	236.83920000002	1466.6666696	n/a	n/a	n/a	n/a	n/a	n/a	n/a	"2021-02-24 13:56:38.919293"	"2021-02-24 13:56:39.365092"	36	2.93984376666667
"S210224"	"Response_Selection"	"RIGHT"	"RIGHT"	340.91120000005	1016.6666687	n/a	n/a	n/a	n/a	n/a	n/a	n/a	"2021-02-24 13:56:40.390458"	"2021-02-24 13:56:40.940078"	37	2.93984376666667
"S210224"	"Response_Selection"	"RIGHT"	"RIGHT"	290.993500000013	1466.6666696	n/a	n/a	n/a	n/a	n/a	n/a	n/a	"2021-02-24 13:56:42.415819"	"2021-02-24 13:56:42.915896"	38	2.93984376666667
"S210224"	"Response_Selection"	"RIGHT"	"RIGHT"	273.863300000016	1116.6666689	n/a	n/a	n/a	n/a	n/a	n/a	n/a	"2021-02-24 13:56:44.041515"	"2021-02-24 13:56:44.522788"	39	2.93984376666667
"S210224"	"Response_Selection"	"LEFT"	"LEFT"	282.721200000026	1083.3333355	n/a	n/a	n/a	n/a	n/a	n/a	n/a	"2021-02-24 13:56:45.616079"	"2021-02-24 13:56:46.106949"	40	2.93984376666667
"S210224"	"Response_Selection"	"RIGHT"	"RIGHT"	338.082399999962	1133.3333356	n/a	n/a	n/a	n/a	n/a	n/a	n/a	"2021-02-24 13:56:47.249126"	"2021-02-24 13:56:47.795209"	41	2.93984376666667
"S210224"	"Response_Selection"	"LEFT"	"LEFT"	297.459200000048	550.0000011	n/a	n/a	n/a	n/a	n/a	n/a	n/a	"2021-02-24 13:56:48.353700"	"2021-02-24 13:56:48.860388"	42	2.93984376666667
"S210224"	"Response_Selection"	"RIGHT"	"RIGHT"	258.653800000047	1083.3333355	n/a	n/a	n/a	n/a	n/a	n/a	n/a	"2021-02-24 13:56:49.952126"	"2021-02-24 13:56:50.419099"	43	2.93984376666667
"S210224"	"Response_Selection"	"RIGHT"	"RIGHT"	334.956300000044	1350.0000027	n/a	n/a	n/a	n/a	n/a	n/a	n/a	"2021-02-24 13:56:51.780241"	"2021-02-24 13:56:52.323001"	44	2.93984376666667
"S210224"	"Response_Selection"	"RIGHT"	"RIGHT"	356.879600000013	633.3333346	n/a	n/a	n/a	n/a	n/a	n/a	n/a	"2021-02-24 13:56:52.967304"	"2021-02-24 13:56:53.533769"	45	2.93984376666667
"S210224"	"Response_Selection"	"LEFT"	"LEFT"	257.609399999978	1266.6666692	n/a	n/a	n/a	n/a	n/a	n/a	n/a	"2021-02-24 13:56:54.809817"	"2021-02-24 13:56:55.274570"	46	2.93984376666667
"S210224"	"Response_Selection"	"RIGHT"	"RIGHT"	313.921900000025	550.0000011	n/a	n/a	n/a	n/a	n/a	n/a	n/a	"2021-02-24 13:56:55.833305"	"2021-02-24 13:56:56.354502"	47	2.93984376666667
"S210224"	"Response_Selection"	"LEFT"	"LEFT"	297.525599999972	733.3333348	n/a	n/a	n/a	n/a	n/a	n/a	n/a	"2021-02-24 13:56:57.097979"	"2021-02-24 13:56:57.603136"	48	2.93984376666667
"S210224"	"Response_Selection"	"RIGHT"	"RIGHT"	290.355099999999	1300.0000026	n/a	n/a	n/a	n/a	n/a	n/a	n/a	"2021-02-24 13:56:58.912671"	"2021-02-24 13:56:59.411516"	49	2.93984376666667
"S210224"	"Response_Selection"	"RIGHT"	"RIGHT"	329.842799999994	916.6666685	n/a	n/a	n/a	n/a	n/a	n/a	n/a	"2021-02-24 13:57:00.337542"	"2021-02-24 13:57:00.875174"	50	2.93984376666667
"S210224"	"Response_Selection"	"RIGHT"	"RIGHT"	336.846699999967	966.6666686	n/a	n/a	n/a	n/a	n/a	n/a	n/a	"2021-02-24 13:57:01.850039"	"2021-02-24 13:57:02.395407"	51	2.93984376666667
"S210224"	"Response_Selection"	"LEFT"	"LEFT"	328.94779999998	533.3333344	n/a	n/a	n/a	n/a	n/a	n/a	n/a	"2021-02-24 13:57:02.937776"	"2021-02-24 13:57:03.475346"	52	2.93984376666667
"S210224"	"Response_Selection"	"LEFT"	"LEFT"	344.756200000006	750.0000015	n/a	n/a	n/a	n/a	n/a	n/a	n/a	"2021-02-24 13:57:04.233991"	"2021-02-24 13:57:04.788225"	53	2.93984376666667
"S210224"	"Response_Selection"	"LEFT"	"LEFT"	358.309799999972	583.3333345	n/a	n/a	n/a	n/a	n/a	n/a	n/a	"2021-02-24 13:57:05.380712"	"2021-02-24 13:57:05.947081"	54	2.93984376666667
"S210224"	"Response_Selection"	"LEFT"	"LEFT"	350.650400000006	1016.6666687	n/a	n/a	n/a	n/a	n/a	n/a	n/a	"2021-02-24 13:57:06.972765"	"2021-02-24 13:57:07.530518"	55	2.93984376666667
"S210224"	"Response_Selection"	"LEFT"	"LEFT"	312.148099999945	1200.0000024	n/a	n/a	n/a	n/a	n/a	n/a	n/a	"2021-02-24 13:57:08.739259"	"2021-02-24 13:57:09.259863"	56	2.93984376666667
"S210224"	"Response_Selection"	"LEFT"	"LEFT"	313.396600000033	500.000001	n/a	n/a	n/a	n/a	n/a	n/a	n/a	"2021-02-24 13:57:09.769585"	"2021-02-24 13:57:10.291901"	57	2.93984376666667
"S210224"	"Response_Selection"	"LEFT"	"LEFT"	360.818900000027	1500.000003	n/a	n/a	n/a	n/a	n/a	n/a	n/a	"2021-02-24 13:57:11.802441"	"2021-02-24 13:57:12.371761"	58	2.93984376666667
"S210224"	"Response_Selection"	"RIGHT"	"RIGHT"	278.574999999989	983.3333353	n/a	n/a	n/a	n/a	n/a	n/a	n/a	"2021-02-24 13:57:13.364160"	"2021-02-24 13:57:13.849601"	59	2.93984376666667
"S210224"	"Response_Selection"	"LEFT"	"LEFT"	319.08199999998	1216.6666691	n/a	n/a	n/a	n/a	n/a	n/a	n/a	"2021-02-24 13:57:15.076460"	"2021-02-24 13:57:15.602697"	60	2.93984376666667
"S210224"	"Response_Selection"	"LEFT"	"LEFT"	304.865600000028	1366.6666694	n/a	n/a	n/a	n/a	n/a	n/a	n/a	"2021-02-24 13:57:16.978076"	"2021-02-24 13:57:17.492359"	61	2.93984376666667
"S210224"	"Response_Selection"	"LEFT"	"LEFT"	274.550299999987	1066.6666688	n/a	n/a	n/a	n/a	n/a	n/a	n/a	"2021-02-24 13:57:18.568637"	"2021-02-24 13:57:19.051573"	62	2.93984376666667
"S210224"	"Response_Selection"	"RIGHT"	"RIGHT"	302.10500000004	1200.0000024	n/a	n/a	n/a	n/a	n/a	n/a	n/a	"2021-02-24 13:57:20.260889"	"2021-02-24 13:57:20.772254"	63	2.93984376666667
"S210224"	"Response_Selection"	"LEFT"	"LEFT"	264.746300000013	1116.6666689	n/a	n/a	n/a	n/a	n/a	n/a	n/a	"2021-02-24 13:57:21.898261"	"2021-02-24 13:57:22.371239"	64	2.93984376666667
"S210224"	"Response_Selection"	"LEFT"	"LEFT"	321.695599999998	1316.6666693	n/a	n/a	n/a	n/a	n/a	n/a	n/a	"2021-02-24 13:57:23.697222"	"2021-02-24 13:57:24.227361"	65	2.93984376666667
"S210224"	"Response_Selection"	"RIGHT"	"RIGHT"	353.810699999997	500.000001	n/a	n/a	n/a	n/a	n/a	n/a	n/a	"2021-02-24 13:57:24.736950"	"2021-02-24 13:57:25.300137"	66	2.93984376666667
"S210224"	"Response_Selection"	"LEFT"	"LEFT"	252.354799999978	1416.6666695	n/a	n/a	n/a	n/a	n/a	n/a	n/a	"2021-02-24 13:57:26.726551"	"2021-02-24 13:57:27.187136"	67	2.93984376666667
"S210224"	"Response_Selection"	"LEFT"	"LEFT"	334.553299999982	783.3333349	n/a	n/a	n/a	n/a	n/a	n/a	n/a	"2021-02-24 13:57:27.980149"	"2021-02-24 13:57:28.521782"	68	2.93984376666667
"S210224"	"Response_Selection"	"RIGHT"	"RIGHT"	262.850300000025	1450.0000029	n/a	n/a	n/a	n/a	n/a	n/a	n/a	"2021-02-24 13:57:29.980094"	"2021-02-24 13:57:30.451547"	69	2.93984376666667
"S210224"	"Response_Selection"	"RIGHT"	"RIGHT"	295.127699999966	1166.666669	n/a	n/a	n/a	n/a	n/a	n/a	n/a	"2021-02-24 13:57:31.628022"	"2021-02-24 13:57:32.130736"	70	2.93984376666667
"S210224"	"Response_Selection"	"LEFT"	"LEFT"	282.476200000019	933.3333352	n/a	n/a	n/a	n/a	n/a	n/a	n/a	"2021-02-24 13:57:33.072578"	"2021-02-24 13:57:33.562887"	71	2.93984376666667
"S210224"	"Response_Selection"	"LEFT"	"LEFT"	335.671000000048	800.0000016	n/a	n/a	n/a	n/a	n/a	n/a	n/a	"2021-02-24 13:57:34.371792"	"2021-02-24 13:57:34.915714"	72	2.93984376666667
"S210224"	"Response_Selection"	"RIGHT"	"RIGHT"	288.331600000049	700.0000014	n/a	n/a	n/a	n/a	n/a	n/a	n/a	"2021-02-24 13:57:35.626767"	"2021-02-24 13:57:36.122996"	73	2.93984376666667
"S210224"	"Response_Selection"	"LEFT"	"LEFT"	257.871800000032	700.0000014	n/a	n/a	n/a	n/a	n/a	n/a	n/a	"2021-02-24 13:57:36.833067"	"2021-02-24 13:57:37.299970"	74	2.93984376666667
"S210224"	"Response_Selection"	"RIGHT"	"RIGHT"	251.041199999975	1033.3333354	n/a	n/a	n/a	n/a	n/a	n/a	n/a	"2021-02-24 13:57:38.344319"	"2021-02-24 13:57:38.804134"	75	2.93984376666667
"S210224"	"Response_Selection"	"LEFT"	"LEFT"	238.7564	983.3333353	n/a	n/a	n/a	n/a	n/a	n/a	n/a	"2021-02-24 13:57:39.796704"	"2021-02-24 13:57:40.243818"	76	2.93984376666667
"S210224"	"Response_Selection"	"RIGHT"	"RIGHT"	237.890499999992	1416.6666695	n/a	n/a	n/a	n/a	n/a	n/a	n/a	"2021-02-24 13:57:41.669404"	"2021-02-24 13:57:42.116289"	77	2.93984376666667
"S210224"	"Response_Selection"	"RIGHT"	"RIGHT"	338.119500000005	1066.6666688	n/a	n/a	n/a	n/a	n/a	n/a	n/a	"2021-02-24 13:57:43.192945"	"2021-02-24 13:57:43.738958"	78	2.93984376666667
"S210224"	"Response_Selection"	"RIGHT"	"RIGHT"	362.823700000035	683.3333347	n/a	n/a	n/a	n/a	n/a	n/a	n/a	"2021-02-24 13:57:44.432330"	"2021-02-24 13:57:45.002459"	79	2.93984376666667
"S210224"	"Response_Selection"	"LEFT"	"LEFT"	291.652099999965	1300.0000026	n/a	n/a	n/a	n/a	n/a	n/a	n/a	"2021-02-24 13:57:46.312008"	"2021-02-24 13:57:46.812685"	80	2.93984376666667
