"Participant"	"Task"	"Stimulus_Side"	"Response"	"RT"	"ITI"	"Previous_Response"	"Previous_RT"	"Stop_Signal"	"Stop_Signal_RT"	"Conflict"	"Cue_Response"	"Cue_Response_RT"	"Trial_Onset"	"Trial_End"	"Trial_Order"	"Duration"
"S200306"	"Conflict_Resolution"	"RIGHT"	"RIGHT"	539.631200000031	1416.6666695	n/a	n/a	n/a	n/a	"False"	n/a	n/a	"2020-03-06 13:49:05.624381"	"2020-03-06 13:49:06.371777"	1	6.13418621666667
"S200306"	"Conflict_Resolution"	"LEFT"	"LEFT"	598.908199999983	1316.6666693	n/a	n/a	n/a	n/a	"True"	n/a	n/a	"2020-03-06 13:49:07.709175"	"2020-03-06 13:49:08.515671"	2	6.13418621666667
"S200306"	"Conflict_Resolution"	"RIGHT"	"RIGHT"	364.357499999983	800.0000016	n/a	n/a	n/a	n/a	"False"	n/a	n/a	"2020-03-06 13:49:09.335335"	"2020-03-06 13:49:09.907932"	3	6.13418621666667
"S200306"	"Conflict_Resolution"	"RIGHT"	"RIGHT"	410.740900000064	1083.3333355	n/a	n/a	n/a	n/a	"False"	n/a	n/a	"2020-03-06 13:49:11.008839"	"2020-03-06 13:49:11.627560"	4	6.13418621666667
"S200306"	"Conflict_Resolution"	"LEFT"	"RIGHT"	375.938200000064	916.6666685	n/a	n/a	n/a	n/a	"False"	n/a	n/a	"2020-03-06 13:49:12.564365"	"2020-03-06 13:49:13.148311"	5	6.13418621666667
"S200306"	"Conflict_Resolution"	"RIGHT"	"RIGHT"	448.968100000002	1283.3333359	n/a	n/a	n/a	n/a	"False"	n/a	n/a	"2020-03-06 13:49:14.451282"	"2020-03-06 13:49:15.108331"	6	6.13418621666667
"S200306"	"Conflict_Resolution"	"LEFT"	"LEFT"	346.535000000017	850.0000017	n/a	n/a	n/a	n/a	"False"	n/a	n/a	"2020-03-06 13:49:15.977647"	"2020-03-06 13:49:16.531748"	7	6.13418621666667
"S200306"	"Conflict_Resolution"	"LEFT"	"LEFT"	695.544499999983	1350.0000027	n/a	n/a	n/a	n/a	"True"	n/a	n/a	"2020-03-06 13:49:17.900784"	"2020-03-06 13:49:18.803901"	8	6.13418621666667
"S200306"	"Conflict_Resolution"	"RIGHT"	"LEFT"	476.414599999998	1000.000002	n/a	n/a	n/a	n/a	"True"	n/a	n/a	"2020-03-06 13:49:19.823307"	"2020-03-06 13:49:20.506874"	9	6.13418621666667
"S200306"	"Conflict_Resolution"	"LEFT"	"LEFT"	554.868700000043	1266.6666692	n/a	n/a	n/a	n/a	"False"	n/a	n/a	"2020-03-06 13:49:21.793329"	"2020-03-06 13:49:22.556037"	10	6.13418621666667
"S200306"	"Conflict_Resolution"	"LEFT"	"LEFT"	434.311900000012	1450.0000029	n/a	n/a	n/a	n/a	"False"	n/a	n/a	"2020-03-06 13:49:24.025581"	"2020-03-06 13:49:24.668146"	11	6.13418621666667
"S200306"	"Conflict_Resolution"	"LEFT"	"LEFT"	389.910800000052	1166.666669	n/a	n/a	n/a	n/a	"False"	n/a	n/a	"2020-03-06 13:49:25.853507"	"2020-03-06 13:49:26.452355"	12	6.13418621666667
"S200306"	"Conflict_Resolution"	"RIGHT"	"RIGHT"	609.023200000024	650.0000013	n/a	n/a	n/a	n/a	"True"	n/a	n/a	"2020-03-06 13:49:27.123138"	"2020-03-06 13:49:27.941051"	13	6.13418621666667
"S200306"	"Conflict_Resolution"	"RIGHT"	"RIGHT"	492.516900000055	600.0000012	n/a	n/a	n/a	n/a	"True"	n/a	n/a	"2020-03-06 13:49:28.558676"	"2020-03-06 13:49:29.259834"	14	6.13418621666667
"S200306"	"Conflict_Resolution"	"RIGHT"	"RIGHT"	441.85600000003	683.3333347	n/a	n/a	n/a	n/a	"False"	n/a	n/a	"2020-03-06 13:49:29.962439"	"2020-03-06 13:49:30.612063"	15	6.13418621666667
"S200306"	"Conflict_Resolution"	"LEFT"	"LEFT"	397.523799999931	583.3333345	n/a	n/a	n/a	n/a	"False"	n/a	n/a	"2020-03-06 13:49:31.214072"	"2020-03-06 13:49:31.819982"	16	6.13418621666667
"S200306"	"Conflict_Resolution"	"RIGHT"	"RIGHT"	437.057100000061	1033.3333354	n/a	n/a	n/a	n/a	"False"	n/a	n/a	"2020-03-06 13:49:32.871198"	"2020-03-06 13:49:33.516316"	17	6.13418621666667
"S200306"	"Conflict_Resolution"	"LEFT"	"LEFT"	396.950199999992	966.6666686	n/a	n/a	n/a	n/a	"False"	n/a	n/a	"2020-03-06 13:49:34.503397"	"2020-03-06 13:49:35.108069"	18	6.13418621666667
"S200306"	"Conflict_Resolution"	"RIGHT"	"RIGHT"	538.729799999942	633.3333346	n/a	n/a	n/a	n/a	"True"	n/a	n/a	"2020-03-06 13:49:35.761517"	"2020-03-06 13:49:36.508716"	19	6.13418621666667
"S200306"	"Conflict_Resolution"	"LEFT"	"LEFT"	559.033900000031	716.6666681	n/a	n/a	n/a	n/a	"True"	n/a	n/a	"2020-03-06 13:49:37.244486"	"2020-03-06 13:49:38.011857"	20	6.13418621666667
"S200306"	"Conflict_Resolution"	"LEFT"	"LEFT"	724.369700000011	1016.6666687	n/a	n/a	n/a	n/a	"True"	n/a	n/a	"2020-03-06 13:49:39.047024"	"2020-03-06 13:49:39.978815"	21	6.13418621666667
"S200306"	"Conflict_Resolution"	"LEFT"	"LEFT"	457.728799999927	1150.0000023	n/a	n/a	n/a	n/a	"True"	n/a	n/a	"2020-03-06 13:49:41.146070"	"2020-03-06 13:49:41.811883"	22	6.13418621666667
"S200306"	"Conflict_Resolution"	"LEFT"	"LEFT"	655.725599999982	1300.0000026	n/a	n/a	n/a	n/a	"False"	n/a	n/a	"2020-03-06 13:49:43.132626"	"2020-03-06 13:49:43.995540"	23	6.13418621666667
"S200306"	"Conflict_Resolution"	"LEFT"	"LEFT"	566.564900000003	533.3333344	n/a	n/a	n/a	n/a	"True"	n/a	n/a	"2020-03-06 13:49:44.549672"	"2020-03-06 13:49:45.324428"	24	6.13418621666667
"S200306"	"Conflict_Resolution"	"RIGHT"	"LEFT"	402.652900000021	1466.6666696	n/a	n/a	n/a	n/a	"True"	n/a	n/a	"2020-03-06 13:49:46.808703"	"2020-03-06 13:49:47.421228"	25	6.13418621666667
"S200306"	"Conflict_Resolution"	"RIGHT"	"RIGHT"	461.712899999952	983.3333353	n/a	n/a	n/a	n/a	"False"	n/a	n/a	"2020-03-06 13:49:48.422084"	"2020-03-06 13:49:49.091769"	26	6.13418621666667
"S200306"	"Conflict_Resolution"	"RIGHT"	"RIGHT"	407.046299999934	550.0000011	n/a	n/a	n/a	n/a	"False"	n/a	n/a	"2020-03-06 13:49:49.661247"	"2020-03-06 13:49:50.276413"	27	6.13418621666667
"S200306"	"Conflict_Resolution"	"LEFT"	"LEFT"	448.392799999965	1100.0000022	n/a	n/a	n/a	n/a	"False"	n/a	n/a	"2020-03-06 13:49:51.395077"	"2020-03-06 13:49:52.052460"	28	6.13418621666667
"S200306"	"Conflict_Resolution"	"LEFT"	"LEFT"	410.149100000012	1050.0000021	n/a	n/a	n/a	n/a	"False"	n/a	n/a	"2020-03-06 13:49:53.122332"	"2020-03-06 13:49:53.739996"	29	6.13418621666667
"S200306"	"Conflict_Resolution"	"LEFT"	"LEFT"	479.554499999949	733.3333348	n/a	n/a	n/a	n/a	"True"	n/a	n/a	"2020-03-06 13:49:54.492590"	"2020-03-06 13:49:55.180414"	30	6.13418621666667
"S200306"	"Conflict_Resolution"	"RIGHT"	"RIGHT"	545.424000000025	1100.0000022	n/a	n/a	n/a	n/a	"True"	n/a	n/a	"2020-03-06 13:49:56.297920"	"2020-03-06 13:49:57.051614"	31	6.13418621666667
"S200306"	"Conflict_Resolution"	"LEFT"	"LEFT"	461.931699999923	783.3333349	n/a	n/a	n/a	n/a	"False"	n/a	n/a	"2020-03-06 13:49:57.854269"	"2020-03-06 13:49:58.522895"	32	6.13418621666667
"S200306"	"Conflict_Resolution"	"RIGHT"	"RIGHT"	521.513200000072	700.0000014	n/a	n/a	n/a	n/a	"False"	n/a	n/a	"2020-03-06 13:49:59.242281"	"2020-03-06 13:49:59.972062"	33	6.13418621666667
"S200306"	"Conflict_Resolution"	"RIGHT"	"RIGHT"	592.232099999933	1316.6666693	n/a	n/a	n/a	n/a	"True"	n/a	n/a	"2020-03-06 13:50:01.307297"	"2020-03-06 13:50:02.107581"	34	6.13418621666667
"S200306"	"Conflict_Resolution"	"RIGHT"	"LEFT"	428.370699999959	1033.3333354	n/a	n/a	n/a	n/a	"True"	n/a	n/a	"2020-03-06 13:50:03.159076"	"2020-03-06 13:50:03.796086"	35	6.13418621666667
"S200306"	"Conflict_Resolution"	"RIGHT"	"RIGHT"	402.778800000078	1433.3333362	n/a	n/a	n/a	n/a	"False"	n/a	n/a	"2020-03-06 13:50:05.249208"	"2020-03-06 13:50:05.860046"	36	6.13418621666667
"S200306"	"Conflict_Resolution"	"LEFT"	"LEFT"	403.896799999984	1200.0000024	n/a	n/a	n/a	n/a	"False"	n/a	n/a	"2020-03-06 13:50:07.079772"	"2020-03-06 13:50:07.692230"	37	6.13418621666667
"S200306"	"Conflict_Resolution"	"LEFT"	"LEFT"	423.208399999908	900.0000018	n/a	n/a	n/a	n/a	"False"	n/a	n/a	"2020-03-06 13:50:08.612551"	"2020-03-06 13:50:09.244284"	38	6.13418621666667
"S200306"	"Conflict_Resolution"	"RIGHT"	"RIGHT"	509.076700000037	550.0000011	n/a	n/a	n/a	n/a	"True"	n/a	n/a	"2020-03-06 13:50:09.814914"	"2020-03-06 13:50:10.531972"	39	6.13418621666667
"S200306"	"Conflict_Resolution"	"LEFT"	"LEFT"	426.742999999988	683.3333347	n/a	n/a	n/a	n/a	"False"	n/a	n/a	"2020-03-06 13:50:11.232552"	"2020-03-06 13:50:11.867824"	40	6.13418621666667
"S200306"	"Conflict_Resolution"	"LEFT"	"LEFT"	598.274700000047	566.6666678	n/a	n/a	n/a	n/a	"True"	n/a	n/a	"2020-03-06 13:50:12.453248"	"2020-03-06 13:50:13.259710"	41	6.13418621666667
"S200306"	"Conflict_Resolution"	"LEFT"	"LEFT"	429.313400000069	1366.6666694	n/a	n/a	n/a	n/a	"False"	n/a	n/a	"2020-03-06 13:50:14.645917"	"2020-03-06 13:50:15.283756"	42	6.13418621666667
"S200306"	"Conflict_Resolution"	"LEFT"	"LEFT"	459.399300000086	816.6666683	n/a	n/a	n/a	n/a	"False"	n/a	n/a	"2020-03-06 13:50:16.120613"	"2020-03-06 13:50:16.787922"	43	6.13418621666667
"S200306"	"Conflict_Resolution"	"LEFT"	"LEFT"	513.903599999935	1066.6666688	n/a	n/a	n/a	n/a	"True"	n/a	n/a	"2020-03-06 13:50:17.874298"	"2020-03-06 13:50:18.596154"	44	6.13418621666667
"S200306"	"Conflict_Resolution"	"RIGHT"	"RIGHT"	501.955800000019	950.0000019	n/a	n/a	n/a	n/a	"True"	n/a	n/a	"2020-03-06 13:50:19.565482"	"2020-03-06 13:50:20.275817"	45	6.13418621666667
"S200306"	"Conflict_Resolution"	"RIGHT"	"RIGHT"	582.439499999964	1150.0000023	n/a	n/a	n/a	n/a	"True"	n/a	n/a	"2020-03-06 13:50:21.445086"	"2020-03-06 13:50:22.236239"	46	6.13418621666667
"S200306"	"Conflict_Resolution"	"LEFT"	"LEFT"	573.439500000063	583.3333345	n/a	n/a	n/a	n/a	"True"	n/a	n/a	"2020-03-06 13:50:22.838406"	"2020-03-06 13:50:23.619985"	47	6.13418621666667
"S200306"	"Conflict_Resolution"	"LEFT"	"LEFT"	400.635999999963	733.3333348	n/a	n/a	n/a	n/a	"False"	n/a	n/a	"2020-03-06 13:50:24.370808"	"2020-03-06 13:50:24.980095"	48	6.13418621666667
"S200306"	"Conflict_Resolution"	"LEFT"	"LEFT"	537.198100000069	1266.6666692	n/a	n/a	n/a	n/a	"True"	n/a	n/a	"2020-03-06 13:50:26.266817"	"2020-03-06 13:50:27.011711"	49	6.13418621666667
"S200306"	"Conflict_Resolution"	"LEFT"	"LEFT"	563.993199999913	616.6666679	n/a	n/a	n/a	n/a	"True"	n/a	n/a	"2020-03-06 13:50:27.647370"	"2020-03-06 13:50:28.420164"	50	6.13418621666667
"S200306"	"Conflict_Resolution"	"LEFT"	"LEFT"	856.743000000051	1500.000003	n/a	n/a	n/a	n/a	"False"	n/a	n/a	"2020-03-06 13:50:29.939083"	"2020-03-06 13:50:31.003447"	51	6.13418621666667
"S200306"	"Conflict_Resolution"	"RIGHT"	"RIGHT"	585.098199999948	1100.0000022	n/a	n/a	n/a	n/a	"False"	n/a	n/a	"2020-03-06 13:50:32.122898"	"2020-03-06 13:50:32.915664"	52	6.13418621666667
"S200306"	"Conflict_Resolution"	"LEFT"	"LEFT"	368.173599999977	1316.6666693	n/a	n/a	n/a	n/a	"False"	n/a	n/a	"2020-03-06 13:50:34.251220"	"2020-03-06 13:50:34.828262"	53	6.13418621666667
"S200306"	"Conflict_Resolution"	"RIGHT"	"RIGHT"	672.577100000012	900.0000018	n/a	n/a	n/a	n/a	"True"	n/a	n/a	"2020-03-06 13:50:35.747489"	"2020-03-06 13:50:36.628401"	54	6.13418621666667
"S200306"	"Conflict_Resolution"	"LEFT"	"LEFT"	427.88239999993	816.6666683	n/a	n/a	n/a	n/a	"True"	n/a	n/a	"2020-03-06 13:50:37.464292"	"2020-03-06 13:50:38.099546"	55	6.13418621666667
"S200306"	"Conflict_Resolution"	"RIGHT"	"RIGHT"	468.533100000059	783.3333349	n/a	n/a	n/a	n/a	"True"	n/a	n/a	"2020-03-06 13:50:38.903626"	"2020-03-06 13:50:39.579590"	56	6.13418621666667
"S200306"	"Conflict_Resolution"	"LEFT"	"LEFT"	505.687700000067	683.3333347	n/a	n/a	n/a	n/a	"True"	n/a	n/a	"2020-03-06 13:50:40.282698"	"2020-03-06 13:50:40.995895"	57	6.13418621666667
"S200306"	"Conflict_Resolution"	"LEFT"	"LEFT"	464.230400000019	1466.6666696	n/a	n/a	n/a	n/a	"False"	n/a	n/a	"2020-03-06 13:50:42.483796"	"2020-03-06 13:50:43.155837"	58	6.13418621666667
"S200306"	"Conflict_Resolution"	"LEFT"	"LEFT"	594.299199999909	1450.0000029	n/a	n/a	n/a	n/a	"True"	n/a	n/a	"2020-03-06 13:50:44.625845"	"2020-03-06 13:50:45.428066"	59	6.13418621666667
"S200306"	"Conflict_Resolution"	"LEFT"	"LEFT"	457.777300000089	1066.6666688	n/a	n/a	n/a	n/a	"False"	n/a	n/a	"2020-03-06 13:50:46.513686"	"2020-03-06 13:50:47.180068"	60	6.13418621666667
"S200306"	"Conflict_Resolution"	"LEFT"	"LEFT"	487.949000000071	950.0000019	n/a	n/a	n/a	n/a	"False"	n/a	n/a	"2020-03-06 13:50:48.148161"	"2020-03-06 13:50:48.844832"	61	6.13418621666667
"S200306"	"Conflict_Resolution"	"RIGHT"	"RIGHT"	518.575700000042	950.0000019	n/a	n/a	n/a	n/a	"False"	n/a	n/a	"2020-03-06 13:50:49.812925"	"2020-03-06 13:50:50.539028"	62	6.13418621666667
"S200306"	"Conflict_Resolution"	"RIGHT"	"LEFT"	439.683999999943	733.3333348	n/a	n/a	n/a	n/a	"True"	n/a	n/a	"2020-03-06 13:50:51.291630"	"2020-03-06 13:50:51.940408"	63	6.13418621666667
"S200306"	"Conflict_Resolution"	"LEFT"	"LEFT"	600.388700000053	916.6666685	n/a	n/a	n/a	n/a	"True"	n/a	n/a	"2020-03-06 13:50:52.875963"	"2020-03-06 13:50:53.684396"	64	6.13418621666667
"S200306"	"Conflict_Resolution"	"LEFT"	"LEFT"	890.403600000013	1000.000002	n/a	n/a	n/a	n/a	"True"	n/a	n/a	"2020-03-06 13:50:54.704995"	"2020-03-06 13:50:55.803955"	65	6.13418621666667
"S200306"	"Conflict_Resolution"	"RIGHT"	"RIGHT"	551.740300000006	750.0000015	n/a	n/a	n/a	n/a	"True"	n/a	n/a	"2020-03-06 13:50:56.572151"	"2020-03-06 13:50:57.332064"	66	6.13418621666667
"S200306"	"Conflict_Resolution"	"RIGHT"	"RIGHT"	775.000599999998	933.3333352	n/a	n/a	n/a	n/a	"True"	n/a	n/a	"2020-03-06 13:50:58.284509"	"2020-03-06 13:50:59.267958"	67	6.13418621666667
"S200306"	"Conflict_Resolution"	"RIGHT"	"RIGHT"	390.819500000021	1183.3333357	n/a	n/a	n/a	n/a	"False"	n/a	n/a	"2020-03-06 13:51:00.468489"	"2020-03-06 13:51:01.066763"	68	6.13418621666667
"S200306"	"Conflict_Resolution"	"RIGHT"	"RIGHT"	373.653300000001	650.0000013	n/a	n/a	n/a	n/a	"False"	n/a	n/a	"2020-03-06 13:51:01.734330"	"2020-03-06 13:51:02.316360"	69	6.13418621666667
"S200306"	"Conflict_Resolution"	"LEFT"	"LEFT"	505.935099999988	900.0000018	n/a	n/a	n/a	n/a	"True"	n/a	n/a	"2020-03-06 13:51:03.234370"	"2020-03-06 13:51:03.948123"	70	6.13418621666667
"S200306"	"Conflict_Resolution"	"LEFT"	"LEFT"	470.302800000013	1350.0000027	n/a	n/a	n/a	n/a	"False"	n/a	n/a	"2020-03-06 13:51:05.317029"	"2020-03-06 13:51:05.994626"	71	6.13418621666667
"S200306"	"Conflict_Resolution"	"LEFT"	"LEFT"	613.37960000003	616.6666679	n/a	n/a	n/a	n/a	"False"	n/a	n/a	"2020-03-06 13:51:06.630135"	"2020-03-06 13:51:07.452504"	72	6.13418621666667
"S200306"	"Conflict_Resolution"	"RIGHT"	"RIGHT"	570.302699999957	850.0000017	n/a	n/a	n/a	n/a	"False"	n/a	n/a	"2020-03-06 13:51:08.321714"	"2020-03-06 13:51:09.099426"	73	6.13418621666667
"S200306"	"Conflict_Resolution"	"RIGHT"	"RIGHT"	366.675900000018	1366.6666694	n/a	n/a	n/a	n/a	"False"	n/a	n/a	"2020-03-06 13:51:10.485412"	"2020-03-06 13:51:11.059904"	74	6.13418621666667
"S200306"	"Conflict_Resolution"	"RIGHT"	"RIGHT"	355.309000000034	833.333335	n/a	n/a	n/a	n/a	"False"	n/a	n/a	"2020-03-06 13:51:11.912046"	"2020-03-06 13:51:12.475785"	75	6.13418621666667
"S200306"	"Conflict_Resolution"	"RIGHT"	"RIGHT"	353.916700000013	1266.6666692	n/a	n/a	n/a	n/a	"False"	n/a	n/a	"2020-03-06 13:51:13.761473"	"2020-03-06 13:51:14.324000"	76	6.13418621666667
"S200306"	"Conflict_Resolution"	"LEFT"	"LEFT"	419.593899999995	1216.6666691	n/a	n/a	n/a	n/a	"False"	n/a	n/a	"2020-03-06 13:51:15.560547"	"2020-03-06 13:51:16.186922"	77	6.13418621666667
"S200306"	"Conflict_Resolution"	"RIGHT"	"RIGHT"	429.259999999999	600.0000012	n/a	n/a	n/a	n/a	"False"	n/a	n/a	"2020-03-06 13:51:16.806118"	"2020-03-06 13:51:17.443959"	78	6.13418621666667
"S200306"	"Conflict_Resolution"	"LEFT"	"LEFT"	459.722899999974	1200.0000024	n/a	n/a	n/a	n/a	"True"	n/a	n/a	"2020-03-06 13:51:18.664521"	"2020-03-06 13:51:19.332403"	79	6.13418621666667
"S200306"	"Conflict_Resolution"	"RIGHT"	"RIGHT"	585.081800000012	900.0000018	n/a	n/a	n/a	n/a	"False"	n/a	n/a	"2020-03-06 13:51:20.251070"	"2020-03-06 13:51:21.043688"	80	6.13418621666667
"S200306"	"Conflict_Resolution"	"RIGHT"	"RIGHT"	525.103899999976	1383.3333361	n/a	n/a	n/a	n/a	"True"	n/a	n/a	"2020-03-06 13:51:22.446150"	"2020-03-06 13:51:23.180138"	81	6.13418621666667
"S200306"	"Conflict_Resolution"	"RIGHT"	"RIGHT"	587.917099999913	800.0000016	n/a	n/a	n/a	n/a	"True"	n/a	n/a	"2020-03-06 13:51:24.000254"	"2020-03-06 13:51:24.795477"	82	6.13418621666667
"S200306"	"Conflict_Resolution"	"RIGHT"	"RIGHT"	582.957099999931	533.3333344	n/a	n/a	n/a	n/a	"False"	n/a	n/a	"2020-03-06 13:51:25.349024"	"2020-03-06 13:51:26.139941"	83	6.13418621666667
"S200306"	"Conflict_Resolution"	"LEFT"	"LEFT"	506.765599999994	1466.6666696	n/a	n/a	n/a	n/a	"True"	n/a	n/a	"2020-03-06 13:51:27.624468"	"2020-03-06 13:51:28.339679"	84	6.13418621666667
"S200306"	"Conflict_Resolution"	"LEFT"	"LEFT"	503.754599999979	566.6666678	n/a	n/a	n/a	n/a	"False"	n/a	n/a	"2020-03-06 13:51:28.924307"	"2020-03-06 13:51:29.636125"	85	6.13418621666667
"S200306"	"Conflict_Resolution"	"LEFT"	"LEFT"	588.470200000074	1216.6666691	n/a	n/a	n/a	n/a	"True"	n/a	n/a	"2020-03-06 13:51:30.870989"	"2020-03-06 13:51:31.668075"	86	6.13418621666667
"S200306"	"Conflict_Resolution"	"LEFT"	"LEFT"	621.86829999996	966.6666686	n/a	n/a	n/a	n/a	"True"	n/a	n/a	"2020-03-06 13:51:32.653813"	"2020-03-06 13:51:33.483230"	87	6.13418621666667
"S200306"	"Conflict_Resolution"	"LEFT"	"LEFT"	834.589100000017	1100.0000022	n/a	n/a	n/a	n/a	"True"	n/a	n/a	"2020-03-06 13:51:34.601476"	"2020-03-06 13:51:35.643591"	88	6.13418621666667
"S200306"	"Conflict_Resolution"	"LEFT"	"LEFT"	490.322300000003	1250.0000025	n/a	n/a	n/a	n/a	"True"	n/a	n/a	"2020-03-06 13:51:36.913721"	"2020-03-06 13:51:37.611711"	89	6.13418621666667
"S200306"	"Conflict_Resolution"	"LEFT"	"LEFT"	396.693500000083	1416.6666695	n/a	n/a	n/a	n/a	"False"	n/a	n/a	"2020-03-06 13:51:39.046500"	"2020-03-06 13:51:39.650914"	90	6.13418621666667
"S200306"	"Conflict_Resolution"	"RIGHT"	"LEFT"	435.897599999976	1216.6666691	n/a	n/a	n/a	n/a	"True"	n/a	n/a	"2020-03-06 13:51:40.887997"	"2020-03-06 13:51:41.530673"	91	6.13418621666667
"S200306"	"Conflict_Resolution"	"RIGHT"	"RIGHT"	434.427999999912	500.000001	n/a	n/a	n/a	n/a	"False"	n/a	n/a	"2020-03-06 13:51:42.049246"	"2020-03-06 13:51:42.691541"	92	6.13418621666667
"S200306"	"Conflict_Resolution"	"LEFT"	"LEFT"	541.390400000068	1416.6666695	n/a	n/a	n/a	n/a	"True"	n/a	n/a	"2020-03-06 13:51:44.125850"	"2020-03-06 13:51:44.876863"	93	6.13418621666667
"S200306"	"Conflict_Resolution"	"RIGHT"	"RIGHT"	414.989199999923	1316.6666693	n/a	n/a	n/a	n/a	"False"	n/a	n/a	"2020-03-06 13:51:46.212281"	"2020-03-06 13:51:46.834579"	94	6.13418621666667
"S200306"	"Conflict_Resolution"	"RIGHT"	"RIGHT"	604.277300000035	1233.3333358	n/a	n/a	n/a	n/a	"True"	n/a	n/a	"2020-03-06 13:51:48.087385"	"2020-03-06 13:51:48.899548"	95	6.13418621666667
"S200306"	"Conflict_Resolution"	"RIGHT"	"RIGHT"	657.684200000062	1483.3333363	n/a	n/a	n/a	n/a	"True"	n/a	n/a	"2020-03-06 13:51:50.401756"	"2020-03-06 13:51:51.268461"	96	6.13418621666667
"S200306"	"Conflict_Resolution"	"LEFT"	"LEFT"	431.04859999994	1150.0000023	n/a	n/a	n/a	n/a	"False"	n/a	n/a	"2020-03-06 13:51:52.437052"	"2020-03-06 13:51:53.076334"	97	6.13418621666667
"S200306"	"Conflict_Resolution"	"LEFT"	"LEFT"	510.419400000046	716.6666681	n/a	n/a	n/a	n/a	"False"	n/a	n/a	"2020-03-06 13:51:53.813074"	"2020-03-06 13:51:54.532889"	98	6.13418621666667
"S200306"	"Conflict_Resolution"	"RIGHT"	"RIGHT"	437.213300000053	783.3333349	n/a	n/a	n/a	n/a	"False"	n/a	n/a	"2020-03-06 13:51:55.334838"	"2020-03-06 13:51:55.980385"	99	6.13418621666667
"S200306"	"Conflict_Resolution"	"RIGHT"	"RIGHT"	503.741699999978	750.0000015	n/a	n/a	n/a	n/a	"False"	n/a	n/a	"2020-03-06 13:51:56.748419"	"2020-03-06 13:51:57.459543"	100	6.13418621666667
"S200306"	"Conflict_Resolution"	"LEFT"	"LEFT"	636.274399999934	633.3333346	n/a	n/a	n/a	n/a	"True"	n/a	n/a	"2020-03-06 13:51:58.111302"	"2020-03-06 13:51:58.955555"	101	6.13418621666667
"S200306"	"Conflict_Resolution"	"RIGHT"	"RIGHT"	549.245199999973	983.3333353	n/a	n/a	n/a	n/a	"True"	n/a	n/a	"2020-03-06 13:51:59.958090"	"2020-03-06 13:52:00.716171"	102	6.13418621666667
"S200306"	"Conflict_Resolution"	"RIGHT"	"RIGHT"	395.727299999976	1216.6666691	n/a	n/a	n/a	n/a	"False"	n/a	n/a	"2020-03-06 13:52:01.952337"	"2020-03-06 13:52:02.558758"	103	6.13418621666667
"S200306"	"Conflict_Resolution"	"LEFT"	"LEFT"	395.22599999998	766.6666682	n/a	n/a	n/a	n/a	"False"	n/a	n/a	"2020-03-06 13:52:03.344465"	"2020-03-06 13:52:03.947570"	104	6.13418621666667
"S200306"	"Conflict_Resolution"	"RIGHT"	"RIGHT"	501.807800000051	1366.6666694	n/a	n/a	n/a	n/a	"True"	n/a	n/a	"2020-03-06 13:52:05.334023"	"2020-03-06 13:52:06.043958"	105	6.13418621666667
"S200306"	"Conflict_Resolution"	"RIGHT"	"RIGHT"	571.531599999958	1416.6666695	n/a	n/a	n/a	n/a	"True"	n/a	n/a	"2020-03-06 13:52:07.480431"	"2020-03-06 13:52:08.259725"	106	6.13418621666667
"S200306"	"Conflict_Resolution"	"LEFT"	"LEFT"	465.93740000003	1050.0000021	n/a	n/a	n/a	n/a	"True"	n/a	n/a	"2020-03-06 13:52:09.330093"	"2020-03-06 13:52:10.004300"	107	6.13418621666667
"S200306"	"Conflict_Resolution"	"LEFT"	"LEFT"	605.374400000073	1166.666669	n/a	n/a	n/a	n/a	"True"	n/a	n/a	"2020-03-06 13:52:11.190410"	"2020-03-06 13:52:12.004438"	108	6.13418621666667
"S200306"	"Conflict_Resolution"	"RIGHT"	"RIGHT"	569.92809999997	850.0000017	n/a	n/a	n/a	n/a	"True"	n/a	n/a	"2020-03-06 13:52:12.873473"	"2020-03-06 13:52:13.652443"	109	6.13418621666667
"S200306"	"Conflict_Resolution"	"RIGHT"	"RIGHT"	526.905800000009	933.3333352	n/a	n/a	n/a	n/a	"False"	n/a	n/a	"2020-03-06 13:52:14.604911"	"2020-03-06 13:52:15.339556"	110	6.13418621666667
"S200306"	"Conflict_Resolution"	"LEFT"	"LEFT"	418.029300000057	666.666668	n/a	n/a	n/a	n/a	"False"	n/a	n/a	"2020-03-06 13:52:16.025338"	"2020-03-06 13:52:16.651598"	111	6.13418621666667
"S200306"	"Conflict_Resolution"	"LEFT"	"LEFT"	479.776900000047	533.3333344	n/a	n/a	n/a	n/a	"False"	n/a	n/a	"2020-03-06 13:52:17.204168"	"2020-03-06 13:52:17.891561"	112	6.13418621666667
"S200306"	"Conflict_Resolution"	"RIGHT"	"RIGHT"	436.397499999998	1050.0000021	n/a	n/a	n/a	n/a	"False"	n/a	n/a	"2020-03-06 13:52:18.959154"	"2020-03-06 13:52:19.604358"	113	6.13418621666667
"S200306"	"Conflict_Resolution"	"RIGHT"	"RIGHT"	407.320099999993	1333.333336	n/a	n/a	n/a	n/a	"False"	n/a	n/a	"2020-03-06 13:52:20.956546"	"2020-03-06 13:52:21.572005"	114	6.13418621666667
"S200306"	"Conflict_Resolution"	"LEFT"	"LEFT"	515.147500000012	666.666668	n/a	n/a	n/a	n/a	"True"	n/a	n/a	"2020-03-06 13:52:22.256721"	"2020-03-06 13:52:22.979713"	115	6.13418621666667
"S200306"	"Conflict_Resolution"	"RIGHT"	"RIGHT"	504.029599999967	700.0000014	n/a	n/a	n/a	n/a	"True"	n/a	n/a	"2020-03-06 13:52:23.699632"	"2020-03-06 13:52:24.411158"	116	6.13418621666667
"S200306"	"Conflict_Resolution"	"LEFT"	"LEFT"	412.012199999936	633.3333346	n/a	n/a	n/a	n/a	"False"	n/a	n/a	"2020-03-06 13:52:25.063368"	"2020-03-06 13:52:25.682584"	117	6.13418621666667
"S200306"	"Conflict_Resolution"	"LEFT"	"LEFT"	420.721099999923	866.6666684	n/a	n/a	n/a	n/a	"False"	n/a	n/a	"2020-03-06 13:52:26.566862"	"2020-03-06 13:52:27.194787"	118	6.13418621666667
"S200306"	"Conflict_Resolution"	"LEFT"	"RIGHT"	470.110000000091	1400.0000028	n/a	n/a	n/a	n/a	"True"	n/a	n/a	"2020-03-06 13:52:28.614136"	"2020-03-06 13:52:29.290572"	119	6.13418621666667
"S200306"	"Conflict_Resolution"	"RIGHT"	"RIGHT"	567.718000000013	533.3333344	n/a	n/a	n/a	n/a	"True"	n/a	n/a	"2020-03-06 13:52:29.844258"	"2020-03-06 13:52:30.620230"	120	6.13418621666667
"S200306"	"Conflict_Resolution"	"LEFT"	"LEFT"	434.55060000008	1250.0000025	n/a	n/a	n/a	n/a	"False"	n/a	n/a	"2020-03-06 13:52:31.889631"	"2020-03-06 13:52:32.531799"	121	6.13418621666667
"S200306"	"Conflict_Resolution"	"LEFT"	"LEFT"	496.782399999915	1300.0000026	n/a	n/a	n/a	n/a	"True"	n/a	n/a	"2020-03-06 13:52:33.851081"	"2020-03-06 13:52:34.556399"	122	6.13418621666667
"S200306"	"Conflict_Resolution"	"RIGHT"	"RIGHT"	692.743699999937	583.3333345	n/a	n/a	n/a	n/a	"True"	n/a	n/a	"2020-03-06 13:52:35.158577"	"2020-03-06 13:52:36.059653"	123	6.13418621666667
"S200306"	"Conflict_Resolution"	"LEFT"	"LEFT"	622.929500000055	950.0000019	n/a	n/a	n/a	n/a	"True"	n/a	n/a	"2020-03-06 13:52:37.028470"	"2020-03-06 13:52:37.858546"	124	6.13418621666667
"S200306"	"Conflict_Resolution"	"RIGHT"	"RIGHT"	672.799800000007	1333.333336	n/a	n/a	n/a	n/a	"True"	n/a	n/a	"2020-03-06 13:52:39.211276"	"2020-03-06 13:52:40.091955"	125	6.13418621666667
"S200306"	"Conflict_Resolution"	"LEFT"	"LEFT"	475.688999999988	850.0000017	n/a	n/a	n/a	n/a	"True"	n/a	n/a	"2020-03-06 13:52:40.961282"	"2020-03-06 13:52:41.643617"	126	6.13418621666667
"S200306"	"Conflict_Resolution"	"LEFT"	"LEFT"	396.718999999962	1000.000002	n/a	n/a	n/a	n/a	"False"	n/a	n/a	"2020-03-06 13:52:42.663272"	"2020-03-06 13:52:43.268050"	127	6.13418621666667
"S200306"	"Conflict_Resolution"	"LEFT"	"LEFT"	447.44280000009	766.6666682	n/a	n/a	n/a	n/a	"True"	n/a	n/a	"2020-03-06 13:52:44.051815"	"2020-03-06 13:52:44.709387"	128	6.13418621666667
"S200306"	"Conflict_Resolution"	"LEFT"	"LEFT"	422.094099999981	1116.6666689	n/a	n/a	n/a	n/a	"True"	n/a	n/a	"2020-03-06 13:52:45.846006"	"2020-03-06 13:52:46.475594"	129	6.13418621666667
"S200306"	"Conflict_Resolution"	"RIGHT"	"RIGHT"	594.701799999939	1433.3333362	n/a	n/a	n/a	n/a	"True"	n/a	n/a	"2020-03-06 13:52:47.929182"	"2020-03-06 13:52:48.731817"	130	6.13418621666667
"S200306"	"Conflict_Resolution"	"RIGHT"	"RIGHT"	767.278499999975	1133.3333356	n/a	n/a	n/a	n/a	"False"	n/a	n/a	"2020-03-06 13:52:49.884047"	"2020-03-06 13:52:50.859694"	131	6.13418621666667
"S200306"	"Conflict_Resolution"	"RIGHT"	"RIGHT"	572.94109999998	633.3333346	n/a	n/a	n/a	n/a	"False"	n/a	n/a	"2020-03-06 13:52:51.510156"	"2020-03-06 13:52:52.292379"	132	6.13418621666667
"S200306"	"Conflict_Resolution"	"RIGHT"	"RIGHT"	539.929200000074	1000.000002	n/a	n/a	n/a	n/a	"False"	n/a	n/a	"2020-03-06 13:52:53.311426"	"2020-03-06 13:52:54.060075"	133	6.13418621666667
"S200306"	"Conflict_Resolution"	"RIGHT"	"RIGHT"	478.967199999943	1150.0000023	n/a	n/a	n/a	n/a	"False"	n/a	n/a	"2020-03-06 13:52:55.229241"	"2020-03-06 13:52:55.916502"	134	6.13418621666667
"S200306"	"Conflict_Resolution"	"RIGHT"	"RIGHT"	689.286899999843	833.333335	n/a	n/a	n/a	n/a	"True"	n/a	n/a	"2020-03-06 13:52:56.770016"	"2020-03-06 13:52:57.667255"	135	6.13418621666667
"S200306"	"Conflict_Resolution"	"RIGHT"	"RIGHT"	498.637200000076	1083.3333355	n/a	n/a	n/a	n/a	"True"	n/a	n/a	"2020-03-06 13:52:58.768823"	"2020-03-06 13:52:59.475860"	136	6.13418621666667
"S200306"	"Conflict_Resolution"	"RIGHT"	"RIGHT"	489.085700000032	883.3333351	n/a	n/a	n/a	n/a	"False"	n/a	n/a	"2020-03-06 13:53:00.378185"	"2020-03-06 13:53:01.075448"	137	6.13418621666667
"S200306"	"Conflict_Resolution"	"RIGHT"	"RIGHT"	565.331000000015	1183.3333357	n/a	n/a	n/a	n/a	"True"	n/a	n/a	"2020-03-06 13:53:02.278674"	"2020-03-06 13:53:03.050760"	138	6.13418621666667
"S200306"	"Conflict_Resolution"	"RIGHT"	"RIGHT"	459.116400000084	1266.6666692	n/a	n/a	n/a	n/a	"True"	n/a	n/a	"2020-03-06 13:53:04.336952"	"2020-03-06 13:53:05.004948"	139	6.13418621666667
"S200306"	"Conflict_Resolution"	"RIGHT"	"RIGHT"	495.236299999988	683.3333347	n/a	n/a	n/a	n/a	"True"	n/a	n/a	"2020-03-06 13:53:05.709060"	"2020-03-06 13:53:06.410828"	140	6.13418621666667
"S200306"	"Conflict_Resolution"	"RIGHT"	"RIGHT"	649.555299999975	1133.3333356	n/a	n/a	n/a	n/a	"True"	n/a	n/a	"2020-03-06 13:53:07.562582"	"2020-03-06 13:53:08.420486"	141	6.13418621666667
"S200306"	"Conflict_Resolution"	"LEFT"	"LEFT"	554.949800000031	1016.6666687	n/a	n/a	n/a	n/a	"False"	n/a	n/a	"2020-03-06 13:53:09.456979"	"2020-03-06 13:53:10.220067"	142	6.13418621666667
"S200306"	"Conflict_Resolution"	"RIGHT"	"RIGHT"	576.542999999901	1283.3333359	n/a	n/a	n/a	n/a	"True"	n/a	n/a	"2020-03-06 13:53:11.523350"	"2020-03-06 13:53:12.312531"	143	6.13418621666667
"S200306"	"Conflict_Resolution"	"RIGHT"	"RIGHT"	376.09220000013	1383.3333361	n/a	n/a	n/a	n/a	"False"	n/a	n/a	"2020-03-06 13:53:13.715951"	"2020-03-06 13:53:14.299795"	144	6.13418621666667
"S200306"	"Conflict_Resolution"	"RIGHT"	"RIGHT"	928.109799999902	500.000001	n/a	n/a	n/a	n/a	"True"	n/a	n/a	"2020-03-06 13:53:14.819971"	"2020-03-06 13:53:15.956234"	145	6.13418621666667
"S200306"	"Conflict_Resolution"	"LEFT"	"LEFT"	499.891800000114	783.3333349	n/a	n/a	n/a	n/a	"True"	n/a	n/a	"2020-03-06 13:53:16.760178"	"2020-03-06 13:53:17.466668"	146	6.13418621666667
"S200306"	"Conflict_Resolution"	"RIGHT"	"RIGHT"	378.347399999939	733.3333348	n/a	n/a	n/a	n/a	"False"	n/a	n/a	"2020-03-06 13:53:18.217423"	"2020-03-06 13:53:18.803502"	147	6.13418621666667
"S200306"	"Conflict_Resolution"	"RIGHT"	"RIGHT"	323.911899999985	1233.3333358	n/a	n/a	n/a	n/a	"False"	n/a	n/a	"2020-03-06 13:53:20.055744"	"2020-03-06 13:53:20.587810"	148	6.13418621666667
"S200306"	"Conflict_Resolution"	"LEFT"	"LEFT"	480.890900000077	1500.000003	n/a	n/a	n/a	n/a	"True"	n/a	n/a	"2020-03-06 13:53:22.106517"	"2020-03-06 13:53:22.795435"	149	6.13418621666667
"S200306"	"Conflict_Resolution"	"LEFT"	"LEFT"	410.016899999846	1116.6666689	n/a	n/a	n/a	n/a	"False"	n/a	n/a	"2020-03-06 13:53:23.930061"	"2020-03-06 13:53:24.548047"	150	6.13418621666667
"S200306"	"Conflict_Resolution"	"RIGHT"	"RIGHT"	378.051700000015	1466.6666696	n/a	n/a	n/a	n/a	"False"	n/a	n/a	"2020-03-06 13:53:26.034206"	"2020-03-06 13:53:26.620346"	151	6.13418621666667
"S200306"	"Conflict_Resolution"	"RIGHT"	"LEFT"	433.148599999868	883.3333351	n/a	n/a	n/a	n/a	"True"	n/a	n/a	"2020-03-06 13:53:27.522750"	"2020-03-06 13:53:28.162808"	152	6.13418621666667
"S200306"	"Conflict_Resolution"	"LEFT"	"LEFT"	513.00550000019	516.6666677	n/a	n/a	n/a	n/a	"False"	n/a	n/a	"2020-03-06 13:53:28.699038"	"2020-03-06 13:53:29.420459"	153	6.13418621666667
"S200306"	"Conflict_Resolution"	"RIGHT"	"RIGHT"	541.953000000149	583.3333345	n/a	n/a	n/a	n/a	"False"	n/a	n/a	"2020-03-06 13:53:30.021667"	"2020-03-06 13:53:30.770961"	154	6.13418621666667
"S200306"	"Conflict_Resolution"	"LEFT"	"LEFT"	508.235400000103	866.6666684	n/a	n/a	n/a	n/a	"True"	n/a	n/a	"2020-03-06 13:53:31.654971"	"2020-03-06 13:53:32.371623"	155	6.13418621666667
"S200306"	"Conflict_Resolution"	"LEFT"	"LEFT"	542.437000000064	1366.6666694	n/a	n/a	n/a	n/a	"True"	n/a	n/a	"2020-03-06 13:53:33.757335"	"2020-03-06 13:53:34.508315"	156	6.13418621666667
"S200306"	"Conflict_Resolution"	"RIGHT"	"RIGHT"	488.690899999938	1483.3333363	n/a	n/a	n/a	n/a	"False"	n/a	n/a	"2020-03-06 13:53:36.011484"	"2020-03-06 13:53:36.707114"	157	6.13418621666667
"S200306"	"Conflict_Resolution"	"LEFT"	"LEFT"	495.124300000043	516.6666677	n/a	n/a	n/a	n/a	"True"	n/a	n/a	"2020-03-06 13:53:37.244965"	"2020-03-06 13:53:37.947176"	158	6.13418621666667
"S200306"	"Conflict_Resolution"	"LEFT"	"LEFT"	388.7158	1400.0000028	n/a	n/a	n/a	n/a	"False"	n/a	n/a	"2020-03-06 13:53:39.367345"	"2020-03-06 13:53:39.963967"	159	6.13418621666667
"S200306"	"Conflict_Resolution"	"RIGHT"	"LEFT"	450.38929999987	1050.0000021	n/a	n/a	n/a	n/a	"True"	n/a	n/a	"2020-03-06 13:53:41.033639"	"2020-03-06 13:53:41.690954"	160	6.13418621666667
"S200306"	"Processing_Speed"	"RIGHT"	"Time_Max_Exceeded"	2558.36260000001	783.3333349	n/a	n/a	n/a	n/a	n/a	n/a	n/a	"2020-03-06 13:37:59.281882"	"2020-03-06 13:38:01.857481"	1	2.06182038333333
"S200306"	"Processing_Speed"	"RIGHT"	"DOWN"	438.465300000018	666.666668	n/a	n/a	n/a	n/a	n/a	n/a	n/a	"2020-03-06 13:38:02.534142"	"2020-03-06 13:38:03.180100"	2	2.06182038333333
"S200306"	"Processing_Speed"	"LEFT"	"DOWN"	309.83999999998	850.0000017	n/a	n/a	n/a	n/a	n/a	n/a	n/a	"2020-03-06 13:38:04.038233"	"2020-03-06 13:38:04.555542"	3	2.06182038333333
"S200306"	"Processing_Speed"	"LEFT"	"DOWN"	284.687700000006	1083.3333355	n/a	n/a	n/a	n/a	n/a	n/a	n/a	"2020-03-06 13:38:05.648061"	"2020-03-06 13:38:06.141497"	4	2.06182038333333
"S200306"	"Processing_Speed"	"RIGHT"	"DOWN"	284.260799999998	1050.0000021	n/a	n/a	n/a	n/a	n/a	n/a	n/a	"2020-03-06 13:38:07.200431"	"2020-03-06 13:38:07.693375"	5	2.06182038333333
"S200306"	"Processing_Speed"	"LEFT"	"DOWN"	299.377000000021	883.3333351	n/a	n/a	n/a	n/a	n/a	n/a	n/a	"2020-03-06 13:38:08.584774"	"2020-03-06 13:38:09.091973"	6	2.06182038333333
"S200306"	"Processing_Speed"	"LEFT"	"DOWN"	295.660999999996	783.3333349	n/a	n/a	n/a	n/a	n/a	n/a	n/a	"2020-03-06 13:38:09.884442"	"2020-03-06 13:38:10.388000"	7	2.06182038333333
"S200306"	"Processing_Speed"	"RIGHT"	"DOWN"	673.202000000003	1150.0000023	n/a	n/a	n/a	n/a	n/a	n/a	n/a	"2020-03-06 13:38:11.547072"	"2020-03-06 13:38:12.427792"	8	2.06182038333333
"S200306"	"Processing_Speed"	"RIGHT"	"DOWN"	398.665899999997	633.3333346	n/a	n/a	n/a	n/a	n/a	n/a	n/a	"2020-03-06 13:38:13.069621"	"2020-03-06 13:38:13.677491"	9	2.06182038333333
"S200306"	"Processing_Speed"	"RIGHT"	"DOWN"	463.404699999984	1183.3333357	n/a	n/a	n/a	n/a	n/a	n/a	n/a	"2020-03-06 13:38:14.869251"	"2020-03-06 13:38:15.540353"	10	2.06182038333333
"S200306"	"Processing_Speed"	"RIGHT"	"DOWN"	275.3424	1500.000003	n/a	n/a	n/a	n/a	n/a	n/a	n/a	"2020-03-06 13:38:17.049025"	"2020-03-06 13:38:17.533349"	11	2.06182038333333
"S200306"	"Processing_Speed"	"RIGHT"	"DOWN"	459.644099999991	500.000001	n/a	n/a	n/a	n/a	n/a	n/a	n/a	"2020-03-06 13:38:18.042196"	"2020-03-06 13:38:18.710005"	12	2.06182038333333
"S200306"	"Processing_Speed"	"LEFT"	"DOWN"	252.320700000013	633.3333346	n/a	n/a	n/a	n/a	n/a	n/a	n/a	"2020-03-06 13:38:19.351555"	"2020-03-06 13:38:19.812387"	13	2.06182038333333
"S200306"	"Processing_Speed"	"LEFT"	"DOWN"	302.325400000001	1400.0000028	n/a	n/a	n/a	n/a	n/a	n/a	n/a	"2020-03-06 13:38:21.222362"	"2020-03-06 13:38:21.732228"	14	2.06182038333333
"S200306"	"Processing_Speed"	"RIGHT"	"DOWN"	353.677000000005	733.3333348	n/a	n/a	n/a	n/a	n/a	n/a	n/a	"2020-03-06 13:38:22.474394"	"2020-03-06 13:38:23.036385"	15	2.06182038333333
"S200306"	"Processing_Speed"	"LEFT"	"DOWN"	390.114100000005	1016.6666687	n/a	n/a	n/a	n/a	n/a	n/a	n/a	"2020-03-06 13:38:24.062287"	"2020-03-06 13:38:24.660117"	16	2.06182038333333
"S200306"	"Processing_Speed"	"LEFT"	"DOWN"	344.312399999978	983.3333353	n/a	n/a	n/a	n/a	n/a	n/a	n/a	"2020-03-06 13:38:25.651806"	"2020-03-06 13:38:26.204558"	17	2.06182038333333
"S200306"	"Processing_Speed"	"RIGHT"	"DOWN"	315.94290000001	1266.6666692	n/a	n/a	n/a	n/a	n/a	n/a	n/a	"2020-03-06 13:38:27.480585"	"2020-03-06 13:38:28.003838"	18	2.06182038333333
"S200306"	"Processing_Speed"	"RIGHT"	"DOWN"	293.984099999989	850.0000017	n/a	n/a	n/a	n/a	n/a	n/a	n/a	"2020-03-06 13:38:28.862247"	"2020-03-06 13:38:29.363663"	19	2.06182038333333
"S200306"	"Processing_Speed"	"RIGHT"	"DOWN"	278.092799999996	1466.6666696	n/a	n/a	n/a	n/a	n/a	n/a	n/a	"2020-03-06 13:38:30.838638"	"2020-03-06 13:38:31.323731"	20	2.06182038333333
"S200306"	"Processing_Speed"	"RIGHT"	"DOWN"	324.025500000005	1300.0000026	n/a	n/a	n/a	n/a	n/a	n/a	n/a	"2020-03-06 13:38:32.632477"	"2020-03-06 13:38:33.164979"	21	2.06182038333333
"S200306"	"Processing_Speed"	"LEFT"	"DOWN"	297.005799999994	1116.6666689	n/a	n/a	n/a	n/a	n/a	n/a	n/a	"2020-03-06 13:38:34.290991"	"2020-03-06 13:38:34.797479"	22	2.06182038333333
"S200306"	"Processing_Speed"	"RIGHT"	"DOWN"	320.340000000016	950.0000019	n/a	n/a	n/a	n/a	n/a	n/a	n/a	"2020-03-06 13:38:35.755844"	"2020-03-06 13:38:36.283589"	23	2.06182038333333
"S200306"	"Processing_Speed"	"LEFT"	"DOWN"	320.534199999997	1366.6666694	n/a	n/a	n/a	n/a	n/a	n/a	n/a	"2020-03-06 13:38:37.659609"	"2020-03-06 13:38:38.188188"	24	2.06182038333333
"S200306"	"Processing_Speed"	"RIGHT"	"DOWN"	262.497400000001	1216.6666691	n/a	n/a	n/a	n/a	n/a	n/a	n/a	"2020-03-06 13:38:39.413912"	"2020-03-06 13:38:39.883908"	25	2.06182038333333
"S200306"	"Processing_Speed"	"LEFT"	"DOWN"	333.2853	666.666668	n/a	n/a	n/a	n/a	n/a	n/a	n/a	"2020-03-06 13:38:40.559213"	"2020-03-06 13:38:41.099969"	26	2.06182038333333
"S200306"	"Processing_Speed"	"RIGHT"	"DOWN"	292.889200000019	883.3333351	n/a	n/a	n/a	n/a	n/a	n/a	n/a	"2020-03-06 13:38:41.991633"	"2020-03-06 13:38:42.494023"	27	2.06182038333333
"S200306"	"Processing_Speed"	"RIGHT"	"DOWN"	312.399700000014	1116.6666689	n/a	n/a	n/a	n/a	n/a	n/a	n/a	"2020-03-06 13:38:43.620265"	"2020-03-06 13:38:44.139932"	28	2.06182038333333
"S200306"	"Processing_Speed"	"LEFT"	"DOWN"	235.252900000006	700.0000014	n/a	n/a	n/a	n/a	n/a	n/a	n/a	"2020-03-06 13:38:44.848935"	"2020-03-06 13:38:45.292340"	29	2.06182038333333
"S200306"	"Processing_Speed"	"LEFT"	"DOWN"	336.628200000007	500.000001	n/a	n/a	n/a	n/a	n/a	n/a	n/a	"2020-03-06 13:38:45.803781"	"2020-03-06 13:38:46.348829"	30	2.06182038333333
"S200306"	"Processing_Speed"	"LEFT"	"DOWN"	244.671699999998	1050.0000021	n/a	n/a	n/a	n/a	n/a	n/a	n/a	"2020-03-06 13:38:47.407689"	"2020-03-06 13:38:47.860594"	31	2.06182038333333
"S200306"	"Processing_Speed"	"LEFT"	"DOWN"	228.623199999987	1266.6666692	n/a	n/a	n/a	n/a	n/a	n/a	n/a	"2020-03-06 13:38:49.136182"	"2020-03-06 13:38:49.572216"	32	2.06182038333333
"S200306"	"Processing_Speed"	"RIGHT"	"DOWN"	383.423700000009	1400.0000028	n/a	n/a	n/a	n/a	n/a	n/a	n/a	"2020-03-06 13:38:50.981285"	"2020-03-06 13:38:51.572002"	33	2.06182038333333
"S200306"	"Processing_Speed"	"LEFT"	"DOWN"	257.948700000014	1150.0000023	n/a	n/a	n/a	n/a	n/a	n/a	n/a	"2020-03-06 13:38:52.730556"	"2020-03-06 13:38:53.195631"	34	2.06182038333333
"S200306"	"Processing_Speed"	"LEFT"	"DOWN"	210.187199999979	950.0000019	n/a	n/a	n/a	n/a	n/a	n/a	n/a	"2020-03-06 13:38:54.153671"	"2020-03-06 13:38:54.571570"	35	2.06182038333333
"S200306"	"Processing_Speed"	"LEFT"	"DOWN"	192.847400000005	733.3333348	n/a	n/a	n/a	n/a	n/a	n/a	n/a	"2020-03-06 13:38:55.315049"	"2020-03-06 13:38:55.716829"	36	2.06182038333333
"S200306"	"Processing_Speed"	"LEFT"	"DOWN"	222.565399999979	816.6666683	n/a	n/a	n/a	n/a	n/a	n/a	n/a	"2020-03-06 13:38:56.542230"	"2020-03-06 13:38:56.973383"	37	2.06182038333333
"S200306"	"Processing_Speed"	"LEFT"	"DOWN"	247.056700000002	566.6666678	n/a	n/a	n/a	n/a	n/a	n/a	n/a	"2020-03-06 13:38:57.548781"	"2020-03-06 13:38:58.003670"	38	2.06182038333333
"S200306"	"Processing_Speed"	"LEFT"	"DOWN"	252.04149999999	1300.0000026	n/a	n/a	n/a	n/a	n/a	n/a	n/a	"2020-03-06 13:38:59.311923"	"2020-03-06 13:38:59.773268"	39	2.06182038333333
"S200306"	"Processing_Speed"	"RIGHT"	"DOWN"	234.805299999977	700.0000014	n/a	n/a	n/a	n/a	n/a	n/a	n/a	"2020-03-06 13:39:00.481718"	"2020-03-06 13:39:00.924730"	40	2.06182038333333
"S200306"	"Processing_Speed"	"RIGHT"	"DOWN"	235.774500000019	1083.3333355	n/a	n/a	n/a	n/a	n/a	n/a	n/a	"2020-03-06 13:39:02.016359"	"2020-03-06 13:39:02.460792"	41	2.06182038333333
"S200306"	"Processing_Speed"	"RIGHT"	"DOWN"	304.34679999999	566.6666678	n/a	n/a	n/a	n/a	n/a	n/a	n/a	"2020-03-06 13:39:03.035863"	"2020-03-06 13:39:03.548147"	42	2.06182038333333
"S200306"	"Processing_Speed"	"RIGHT"	"DOWN"	267.115100000012	916.6666685	n/a	n/a	n/a	n/a	n/a	n/a	n/a	"2020-03-06 13:39:04.472885"	"2020-03-06 13:39:04.947731"	43	2.06182038333333
"S200306"	"Processing_Speed"	"LEFT"	"DOWN"	289.979199999976	1333.333336	n/a	n/a	n/a	n/a	n/a	n/a	n/a	"2020-03-06 13:39:06.290541"	"2020-03-06 13:39:06.787883"	44	2.06182038333333
"S200306"	"Processing_Speed"	"RIGHT"	"DOWN"	305.732800000015	533.3333344	n/a	n/a	n/a	n/a	n/a	n/a	n/a	"2020-03-06 13:39:07.330391"	"2020-03-06 13:39:07.845510"	45	2.06182038333333
"S200306"	"Processing_Speed"	"LEFT"	"DOWN"	252.973199999985	1216.6666691	n/a	n/a	n/a	n/a	n/a	n/a	n/a	"2020-03-06 13:39:09.071309"	"2020-03-06 13:39:09.533466"	46	2.06182038333333
"S200306"	"Processing_Speed"	"LEFT"	"DOWN"	263.118700000007	1183.3333357	n/a	n/a	n/a	n/a	n/a	n/a	n/a	"2020-03-06 13:39:10.725419"	"2020-03-06 13:39:11.197466"	47	2.06182038333333
"S200306"	"Processing_Speed"	"RIGHT"	"DOWN"	342.281200000002	600.0000012	n/a	n/a	n/a	n/a	n/a	n/a	n/a	"2020-03-06 13:39:11.805610"	"2020-03-06 13:39:12.356983"	48	2.06182038333333
"S200306"	"Processing_Speed"	"RIGHT"	"DOWN"	293.144899999987	1433.3333362	n/a	n/a	n/a	n/a	n/a	n/a	n/a	"2020-03-06 13:39:13.799637"	"2020-03-06 13:39:14.300162"	49	2.06182038333333
"S200306"	"Processing_Speed"	"LEFT"	"DOWN"	228.950499999996	1466.6666696	n/a	n/a	n/a	n/a	n/a	n/a	n/a	"2020-03-06 13:39:15.774816"	"2020-03-06 13:39:16.211733"	50	2.06182038333333
"S200306"	"Processing_Speed"	"RIGHT"	"DOWN"	326.97859999999	1016.6666687	n/a	n/a	n/a	n/a	n/a	n/a	n/a	"2020-03-06 13:39:17.237434"	"2020-03-06 13:39:17.773411"	51	2.06182038333333
"S200306"	"Processing_Speed"	"LEFT"	"DOWN"	306.30050000002	1500.000003	n/a	n/a	n/a	n/a	n/a	n/a	n/a	"2020-03-06 13:39:19.281527"	"2020-03-06 13:39:19.796623"	52	2.06182038333333
"S200306"	"Processing_Speed"	"LEFT"	"DOWN"	382.042100000007	600.0000012	n/a	n/a	n/a	n/a	n/a	n/a	n/a	"2020-03-06 13:39:20.406063"	"2020-03-06 13:39:20.996044"	53	2.06182038333333
"S200306"	"Processing_Speed"	"RIGHT"	"DOWN"	262.746700000008	983.3333353	n/a	n/a	n/a	n/a	n/a	n/a	n/a	"2020-03-06 13:39:21.988965"	"2020-03-06 13:39:22.460483"	54	2.06182038333333
"S200306"	"Processing_Speed"	"LEFT"	"DOWN"	297.678900000022	533.3333344	n/a	n/a	n/a	n/a	n/a	n/a	n/a	"2020-03-06 13:39:23.002791"	"2020-03-06 13:39:23.508205"	55	2.06182038333333
"S200306"	"Processing_Speed"	"LEFT"	"DOWN"	282.725299999981	916.6666685	n/a	n/a	n/a	n/a	n/a	n/a	n/a	"2020-03-06 13:39:24.433847"	"2020-03-06 13:39:24.924210"	56	2.06182038333333
"S200306"	"Processing_Speed"	"RIGHT"	"DOWN"	278.808900000001	816.6666683	n/a	n/a	n/a	n/a	n/a	n/a	n/a	"2020-03-06 13:39:25.749684"	"2020-03-06 13:39:26.235966"	57	2.06182038333333
"S200306"	"Processing_Speed"	"RIGHT"	"DOWN"	328.553599999992	1366.6666694	n/a	n/a	n/a	n/a	n/a	n/a	n/a	"2020-03-06 13:39:27.611689"	"2020-03-06 13:39:28.149252"	58	2.06182038333333
"S200306"	"Processing_Speed"	"LEFT"	"DOWN"	316.771700000004	1433.3333362	n/a	n/a	n/a	n/a	n/a	n/a	n/a	"2020-03-06 13:39:29.591257"	"2020-03-06 13:39:30.115899"	59	2.06182038333333
"S200306"	"Processing_Speed"	"RIGHT"	"DOWN"	289.973299999986	1333.333336	n/a	n/a	n/a	n/a	n/a	n/a	n/a	"2020-03-06 13:39:31.458408"	"2020-03-06 13:39:31.956064"	60	2.06182038333333
"S200306"	"Response_Inhibition"	"RIGHT"	"RIGHT"	423.348233399983	1000.000002	n/a	n/a	n/a	n/a	n/a	n/a	n/a	"2020-03-06 13:43:12.145970"	"2020-03-06 13:43:12.779861"	1	5.13225605
"S200306"	"Response_Inhibition"	"LEFT"	"LEFT"	470.985433900037	733.3333348	n/a	n/a	n/a	n/a	n/a	n/a	n/a	"2020-03-06 13:43:13.521966"	"2020-03-06 13:43:14.205214"	2	5.13225605
"S200306"	"Response_Inhibition"	"RIGHT"	"Time_Max_Exceeded"	1500.06540010003	1050.0000021	n/a	n/a	n/a	n/a	n/a	n/a	n/a	"2020-03-06 13:43:15.263554"	"2020-03-06 13:43:16.767280"	3	5.13225605
"S200306"	"Response_Inhibition"	"LEFT"	"LEFT"	255.252166699999	1416.6666695	n/a	n/a	n/a	n/a	n/a	n/a	n/a	"2020-03-06 13:43:18.193330"	"2020-03-06 13:43:18.659656"	4	5.13225605
"S200306"	"Response_Inhibition"	"LEFT"	"Time_Max_Exceeded"	1500.05843350001	1216.6666691	n/a	n/a	n/a	n/a	n/a	n/a	n/a	"2020-03-06 13:43:19.884786"	"2020-03-06 13:43:21.388057"	5	5.13225605
"S200306"	"Response_Inhibition"	"LEFT"	"LEFT"	410.368699999992	1300.0000026	n/a	n/a	n/a	n/a	n/a	n/a	n/a	"2020-03-06 13:43:22.697998"	"2020-03-06 13:43:23.315562"	6	5.13225605
"S200306"	"Response_Inhibition"	"LEFT"	"LEFT"	350.721199999953	1433.3333362	n/a	n/a	n/a	n/a	n/a	n/a	n/a	"2020-03-06 13:43:24.757347"	"2020-03-06 13:43:25.316476"	7	5.13225605
"S200306"	"Response_Inhibition"	"RIGHT"	"RIGHT"	497.242799999981	750.0000015	n/a	n/a	n/a	n/a	n/a	n/a	n/a	"2020-03-06 13:43:26.075171"	"2020-03-06 13:43:26.779666"	8	5.13225605
"S200306"	"Response_Inhibition"	"RIGHT"	"RIGHT"	445.122433699987	533.3333344	n/a	n/a	n/a	n/a	n/a	n/a	n/a	"2020-03-06 13:43:27.322976"	"2020-03-06 13:43:27.980163"	9	5.13225605
"S200306"	"Response_Inhibition"	"LEFT"	"LEFT"	360.593200000039	1366.6666694	n/a	n/a	n/a	n/a	n/a	n/a	n/a	"2020-03-06 13:43:29.356034"	"2020-03-06 13:43:29.923602"	10	5.13225605
"S200306"	"Response_Inhibition"	"RIGHT"	"RIGHT"	350.435200000049	633.3333346	n/a	n/a	n/a	n/a	n/a	n/a	n/a	"2020-03-06 13:43:30.566118"	"2020-03-06 13:43:31.124939"	11	5.13225605
"S200306"	"Response_Inhibition"	"LEFT"	"LEFT"	263.281899999981	1383.3333361	n/a	n/a	n/a	n/a	n/a	n/a	n/a	"2020-03-06 13:43:32.516964"	"2020-03-06 13:43:32.987706"	12	5.13225605
"S200306"	"Response_Inhibition"	"RIGHT"	"RIGHT"	291.933400000005	1100.0000022	n/a	n/a	n/a	n/a	n/a	n/a	n/a	"2020-03-06 13:43:34.096096"	"2020-03-06 13:43:34.595792"	13	5.13225605
"S200306"	"Response_Inhibition"	"LEFT"	"LEFT"	253.784199999984	1050.0000021	n/a	n/a	n/a	n/a	n/a	n/a	n/a	"2020-03-06 13:43:35.654024"	"2020-03-06 13:43:36.116108"	14	5.13225605
"S200306"	"Response_Inhibition"	"LEFT"	"LEFT"	345.452599999987	1150.0000023	n/a	n/a	n/a	n/a	n/a	n/a	n/a	"2020-03-06 13:43:37.274370"	"2020-03-06 13:43:37.827973"	15	5.13225605
"S200306"	"Response_Inhibition"	"RIGHT"	"RIGHT"	367.79283389998	700.0000014	n/a	n/a	n/a	n/a	n/a	n/a	n/a	"2020-03-06 13:43:38.537089"	"2020-03-06 13:43:39.116462"	16	5.13225605
"S200306"	"Response_Inhibition"	"LEFT"	"LEFT"	202.491599999973	1116.6666689	n/a	n/a	n/a	n/a	n/a	n/a	n/a	"2020-03-06 13:43:40.241119"	"2020-03-06 13:43:40.651685"	17	5.13225605
"S200306"	"Response_Inhibition"	"RIGHT"	"RIGHT"	304.282399999977	1383.3333361	n/a	n/a	n/a	n/a	n/a	n/a	n/a	"2020-03-06 13:43:42.044063"	"2020-03-06 13:43:42.555814"	18	5.13225605
"S200306"	"Response_Inhibition"	"RIGHT"	"RIGHT"	305.31689999998	933.3333352	n/a	n/a	n/a	n/a	n/a	n/a	n/a	"2020-03-06 13:43:43.498920"	"2020-03-06 13:43:44.013438"	19	5.13225605
"S200306"	"Response_Inhibition"	"LEFT"	"LEFT"	279.461500000025	966.6666686	n/a	n/a	n/a	n/a	n/a	n/a	n/a	"2020-03-06 13:43:44.988642"	"2020-03-06 13:43:45.476174"	20	5.13225605
"S200306"	"Response_Inhibition"	"LEFT"	"LEFT"	290.133399999945	733.3333348	n/a	n/a	n/a	n/a	n/a	n/a	n/a	"2020-03-06 13:43:46.218038"	"2020-03-06 13:43:46.715710"	21	5.13225605
"S200306"	"Response_Inhibition"	"LEFT"	"LEFT"	291.520800200035	633.3333346	n/a	n/a	n/a	n/a	n/a	n/a	n/a	"2020-03-06 13:43:47.357107"	"2020-03-06 13:43:47.858746"	22	5.13225605
"S200306"	"Response_Inhibition"	"RIGHT"	"RIGHT"	286.518333600008	583.3333345	n/a	n/a	n/a	n/a	n/a	n/a	n/a	"2020-03-06 13:43:48.450334"	"2020-03-06 13:43:48.947559"	23	5.13225605
"S200306"	"Response_Inhibition"	"LEFT"	"LEFT"	328.2332	783.3333349	n/a	n/a	n/a	n/a	n/a	n/a	n/a	"2020-03-06 13:43:49.740105"	"2020-03-06 13:43:50.275594"	24	5.13225605
"S200306"	"Response_Inhibition"	"RIGHT"	"RIGHT"	269.340399999976	666.666668	n/a	n/a	n/a	n/a	n/a	n/a	n/a	"2020-03-06 13:43:50.950800"	"2020-03-06 13:43:51.428294"	25	5.13225605
"S200306"	"Response_Inhibition"	"RIGHT"	"RIGHT"	326.961899999958	1016.6666687	n/a	n/a	n/a	n/a	n/a	n/a	n/a	"2020-03-06 13:43:52.453155"	"2020-03-06 13:43:52.987648"	26	5.13225605
"S200306"	"Response_Inhibition"	"RIGHT"	"RIGHT"	288.139199999989	1400.0000028	n/a	n/a	n/a	n/a	n/a	n/a	n/a	"2020-03-06 13:43:54.395681"	"2020-03-06 13:43:54.890691"	27	5.13225605
"S200306"	"Response_Inhibition"	"LEFT"	"LEFT"	302.513866900012	1150.0000023	n/a	n/a	n/a	n/a	n/a	n/a	n/a	"2020-03-06 13:43:56.050434"	"2020-03-06 13:43:56.564849"	28	5.13225605
"S200306"	"Response_Inhibition"	"RIGHT"	"RIGHT"	228.304100000003	1450.0000029	n/a	n/a	n/a	n/a	n/a	n/a	n/a	"2020-03-06 13:43:58.023758"	"2020-03-06 13:43:58.459903"	29	5.13225605
"S200306"	"Response_Inhibition"	"RIGHT"	"RIGHT"	297.684300000014	950.0000019	n/a	n/a	n/a	n/a	n/a	n/a	n/a	"2020-03-06 13:43:59.418064"	"2020-03-06 13:43:59.924398"	30	5.13225605
"S200306"	"Response_Inhibition"	"LEFT"	"LEFT"	282.536800000003	1100.0000022	n/a	n/a	n/a	n/a	n/a	n/a	n/a	"2020-03-06 13:44:01.033844"	"2020-03-06 13:44:01.524095"	31	5.13225605
"S200306"	"Response_Inhibition"	"LEFT"	"LEFT"	333.276699999999	1450.0000029	n/a	n/a	n/a	n/a	n/a	n/a	n/a	"2020-03-06 13:44:02.982665"	"2020-03-06 13:44:03.524503"	32	5.13225605
"S200306"	"Response_Inhibition"	"LEFT"	"LEFT"	287.168199999996	1000.000002	n/a	n/a	n/a	n/a	n/a	n/a	n/a	"2020-03-06 13:44:04.532857"	"2020-03-06 13:44:05.028079"	33	5.13225605
"S200306"	"Response_Inhibition"	"RIGHT"	"Time_Max_Exceeded"	1500.06566670002	500.000001	n/a	n/a	n/a	n/a	n/a	n/a	n/a	"2020-03-06 13:44:05.536905"	"2020-03-06 13:44:07.042523"	34	5.13225605
"S200306"	"Response_Inhibition"	"RIGHT"	"RIGHT"	301.912266800042	1366.6666694	n/a	n/a	n/a	n/a	n/a	n/a	n/a	"2020-03-06 13:44:08.418463"	"2020-03-06 13:44:08.931942"	35	5.13225605
"S200306"	"Response_Inhibition"	"RIGHT"	"RIGHT"	308.600299999966	1416.6666695	n/a	n/a	n/a	n/a	n/a	n/a	n/a	"2020-03-06 13:44:10.359931"	"2020-03-06 13:44:10.876075"	36	5.13225605
"S200306"	"Response_Inhibition"	"LEFT"	"LEFT"	316.386800000032	650.0000013	n/a	n/a	n/a	n/a	n/a	n/a	n/a	"2020-03-06 13:44:11.536222"	"2020-03-06 13:44:12.059696"	37	5.13225605
"S200306"	"Response_Inhibition"	"RIGHT"	"RIGHT"	386.567566999971	850.0000017	n/a	n/a	n/a	n/a	n/a	n/a	n/a	"2020-03-06 13:44:12.918016"	"2020-03-06 13:44:13.515975"	38	5.13225605
"S200306"	"Response_Inhibition"	"RIGHT"	"RIGHT"	445.645399999989	1050.0000021	n/a	n/a	n/a	n/a	n/a	n/a	n/a	"2020-03-06 13:44:14.573988"	"2020-03-06 13:44:15.229407"	39	5.13225605
"S200306"	"Response_Inhibition"	"LEFT"	"LEFT"	266.6428	1250.0000025	n/a	n/a	n/a	n/a	n/a	n/a	n/a	"2020-03-06 13:44:16.489746"	"2020-03-06 13:44:16.963723"	40	5.13225605
"S200306"	"Response_Inhibition"	"LEFT"	"LEFT"	309.319000000016	866.6666684	n/a	n/a	n/a	n/a	n/a	n/a	n/a	"2020-03-06 13:44:17.838387"	"2020-03-06 13:44:18.356048"	41	5.13225605
"S200306"	"Response_Inhibition"	"RIGHT"	"Time_Max_Exceeded"	1500.05410030002	650.0000013	n/a	n/a	n/a	n/a	n/a	n/a	n/a	"2020-03-06 13:44:19.014139"	"2020-03-06 13:44:20.517492"	42	5.13225605
"S200306"	"Response_Inhibition"	"RIGHT"	"RIGHT"	291.157400000031	1250.0000025	n/a	n/a	n/a	n/a	n/a	n/a	n/a	"2020-03-06 13:44:21.777094"	"2020-03-06 13:44:22.275952"	43	5.13225605
"S200306"	"Response_Inhibition"	"LEFT"	"LEFT"	242.312999999967	1333.333336	n/a	n/a	n/a	n/a	n/a	n/a	n/a	"2020-03-06 13:44:23.618135"	"2020-03-06 13:44:24.067624"	44	5.13225605
"S200306"	"Response_Inhibition"	"LEFT"	"LEFT"	319.686799999999	1200.0000024	n/a	n/a	n/a	n/a	n/a	n/a	n/a	"2020-03-06 13:44:25.276802"	"2020-03-06 13:44:25.804369"	45	5.13225605
"S200306"	"Response_Inhibition"	"RIGHT"	"RIGHT"	307.81079999997	1283.3333359	n/a	n/a	n/a	n/a	n/a	n/a	n/a	"2020-03-06 13:44:27.096702"	"2020-03-06 13:44:27.612248"	46	5.13225605
"S200306"	"Response_Inhibition"	"LEFT"	"LEFT"	355.244867099984	800.0000016	n/a	n/a	n/a	n/a	n/a	n/a	n/a	"2020-03-06 13:44:28.421880"	"2020-03-06 13:44:28.988039"	47	5.13225605
"S200306"	"Response_Inhibition"	"LEFT"	"Time_Max_Exceeded"	1500.11866710001	500.000001	n/a	n/a	n/a	n/a	n/a	n/a	n/a	"2020-03-06 13:44:29.496797"	"2020-03-06 13:44:31.000153"	48	5.13225605
"S200306"	"Response_Inhibition"	"LEFT"	"LEFT"	400.082600000019	850.0000017	n/a	n/a	n/a	n/a	n/a	n/a	n/a	"2020-03-06 13:44:31.859753"	"2020-03-06 13:44:32.467813"	49	5.13225605
"S200306"	"Response_Inhibition"	"LEFT"	"LEFT"	310.996400000022	816.6666683	n/a	n/a	n/a	n/a	n/a	n/a	n/a	"2020-03-06 13:44:33.292788"	"2020-03-06 13:44:33.812209"	50	5.13225605
"S200306"	"Response_Inhibition"	"RIGHT"	"RIGHT"	254.142300000012	833.333335	n/a	n/a	n/a	n/a	n/a	n/a	n/a	"2020-03-06 13:44:34.653552"	"2020-03-06 13:44:35.115896"	51	5.13225605
"S200306"	"Response_Inhibition"	"RIGHT"	"RIGHT"	278.604500000029	1216.6666691	n/a	n/a	n/a	n/a	n/a	n/a	n/a	"2020-03-06 13:44:36.341406"	"2020-03-06 13:44:36.828037"	52	5.13225605
"S200306"	"Response_Inhibition"	"RIGHT"	"RIGHT"	282.603600100061	816.6666683	n/a	n/a	n/a	n/a	n/a	n/a	n/a	"2020-03-06 13:44:37.654178"	"2020-03-06 13:44:38.147956"	53	5.13225605
"S200306"	"Response_Inhibition"	"RIGHT"	"Time_Max_Exceeded"	1500.05156720003	883.3333351	n/a	n/a	n/a	n/a	n/a	n/a	n/a	"2020-03-06 13:44:39.040234"	"2020-03-06 13:44:40.543224"	54	5.13225605
"S200306"	"Response_Inhibition"	"RIGHT"	"RIGHT"	301.026100000058	1350.0000027	n/a	n/a	n/a	n/a	n/a	n/a	n/a	"2020-03-06 13:44:41.903005"	"2020-03-06 13:44:42.412083"	55	5.13225605
"S200306"	"Response_Inhibition"	"LEFT"	"LEFT"	306.238000000008	1500.000003	n/a	n/a	n/a	n/a	n/a	n/a	n/a	"2020-03-06 13:44:43.922174"	"2020-03-06 13:44:44.437225"	56	5.13225605
"S200306"	"Response_Inhibition"	"LEFT"	"LEFT"	277.671900000087	1216.6666691	n/a	n/a	n/a	n/a	n/a	n/a	n/a	"2020-03-06 13:44:45.662475"	"2020-03-06 13:44:46.148504"	57	5.13225605
"S200306"	"Response_Inhibition"	"RIGHT"	"RIGHT"	507.059400000003	900.0000018	n/a	n/a	n/a	n/a	n/a	n/a	n/a	"2020-03-06 13:44:47.057393"	"2020-03-06 13:44:47.772194"	58	5.13225605
"S200306"	"Response_Inhibition"	"LEFT"	"LEFT"	277.17406699996	1166.666669	n/a	n/a	n/a	n/a	n/a	n/a	n/a	"2020-03-06 13:44:48.947424"	"2020-03-06 13:44:49.436124"	59	5.13225605
"S200306"	"Response_Inhibition"	"RIGHT"	"RIGHT"	281.404599999973	733.3333348	n/a	n/a	n/a	n/a	n/a	n/a	n/a	"2020-03-06 13:44:50.178892"	"2020-03-06 13:44:50.668192"	60	5.13225605
"S200306"	"Response_Inhibition"	"RIGHT"	"RIGHT"	314.446266700013	1416.6666695	n/a	n/a	n/a	n/a	n/a	n/a	n/a	"2020-03-06 13:44:52.093716"	"2020-03-06 13:44:52.620249"	61	5.13225605
"S200306"	"Response_Inhibition"	"RIGHT"	"RIGHT"	496.815699999956	566.6666678	n/a	n/a	n/a	n/a	n/a	n/a	n/a	"2020-03-06 13:44:53.195286"	"2020-03-06 13:44:53.900570"	62	5.13225605
"S200306"	"Response_Inhibition"	"LEFT"	"LEFT"	295.146700000032	600.0000012	n/a	n/a	n/a	n/a	n/a	n/a	n/a	"2020-03-06 13:44:54.508661"	"2020-03-06 13:44:55.012296"	63	5.13225605
"S200306"	"Response_Inhibition"	"LEFT"	"LEFT"	315.850599999976	1083.3333355	n/a	n/a	n/a	n/a	n/a	n/a	n/a	"2020-03-06 13:44:56.103697"	"2020-03-06 13:44:56.627597"	64	5.13225605
"S200306"	"Response_Inhibition"	"LEFT"	"LEFT"	349.262899999985	666.666668	n/a	n/a	n/a	n/a	n/a	n/a	n/a	"2020-03-06 13:44:57.303040"	"2020-03-06 13:44:57.859634"	65	5.13225605
"S200306"	"Response_Inhibition"	"RIGHT"	"RIGHT"	333.824800000002	850.0000017	n/a	n/a	n/a	n/a	n/a	n/a	n/a	"2020-03-06 13:44:58.718027"	"2020-03-06 13:44:59.259853"	66	5.13225605
"S200306"	"Response_Inhibition"	"LEFT"	"LEFT"	327.361800000062	1000.000002	n/a	n/a	n/a	n/a	n/a	n/a	n/a	"2020-03-06 13:45:00.268511"	"2020-03-06 13:45:00.803691"	67	5.13225605
"S200306"	"Response_Inhibition"	"LEFT"	"Time_Max_Exceeded"	1500.05406680002	533.3333344	n/a	n/a	n/a	n/a	n/a	n/a	n/a	"2020-03-06 13:45:01.345946"	"2020-03-06 13:45:02.848668"	68	5.13225605
"S200306"	"Response_Inhibition"	"LEFT"	"LEFT"	300.760967199992	833.333335	n/a	n/a	n/a	n/a	n/a	n/a	n/a	"2020-03-06 13:45:03.691866"	"2020-03-06 13:45:04.204686"	69	5.13225605
"S200306"	"Response_Inhibition"	"LEFT"	"LEFT"	320.569500400101	850.0000017	n/a	n/a	n/a	n/a	n/a	n/a	n/a	"2020-03-06 13:45:05.064534"	"2020-03-06 13:45:05.596716"	70	5.13225605
"S200306"	"Response_Inhibition"	"RIGHT"	"RIGHT"	423.234500000035	1183.3333357	n/a	n/a	n/a	n/a	n/a	n/a	n/a	"2020-03-06 13:45:06.788236"	"2020-03-06 13:45:07.419782"	71	5.13225605
"S200306"	"Response_Inhibition"	"LEFT"	"Time_Max_Exceeded"	1500.06670000005	983.3333353	n/a	n/a	n/a	n/a	n/a	n/a	n/a	"2020-03-06 13:45:08.411678"	"2020-03-06 13:45:09.911628"	72	5.13225605
"S200306"	"Response_Inhibition"	"LEFT"	"LEFT"	392.421033799986	583.3333345	n/a	n/a	n/a	n/a	n/a	n/a	n/a	"2020-03-06 13:45:10.504806"	"2020-03-06 13:45:11.107585"	73	5.13225605
"S200306"	"Response_Inhibition"	"RIGHT"	"RIGHT"	387.399500000015	1316.6666693	n/a	n/a	n/a	n/a	n/a	n/a	n/a	"2020-03-06 13:45:12.433121"	"2020-03-06 13:45:13.028526"	74	5.13225605
"S200306"	"Response_Inhibition"	"RIGHT"	"RIGHT"	289.975833800066	983.3333353	n/a	n/a	n/a	n/a	n/a	n/a	n/a	"2020-03-06 13:45:14.022680"	"2020-03-06 13:45:14.523704"	75	5.13225605
"S200306"	"Response_Inhibition"	"RIGHT"	"RIGHT"	847.703899999942	600.0000012	n/a	n/a	n/a	n/a	n/a	n/a	n/a	"2020-03-06 13:45:15.132670"	"2020-03-06 13:45:16.188545"	76	5.13225605
"S200306"	"Response_Inhibition"	"RIGHT"	"RIGHT"	318.820500000015	1200.0000024	n/a	n/a	n/a	n/a	n/a	n/a	n/a	"2020-03-06 13:45:17.397328"	"2020-03-06 13:45:17.924434"	77	5.13225605
"S200306"	"Response_Inhibition"	"LEFT"	"LEFT"	447.254799999996	566.6666678	n/a	n/a	n/a	n/a	n/a	n/a	n/a	"2020-03-06 13:45:18.500929"	"2020-03-06 13:45:19.155554"	78	5.13225605
"S200306"	"Response_Inhibition"	"RIGHT"	"RIGHT"	288.439799999992	583.3333345	n/a	n/a	n/a	n/a	n/a	n/a	n/a	"2020-03-06 13:45:19.747324"	"2020-03-06 13:45:20.244359"	79	5.13225605
"S200306"	"Response_Inhibition"	"RIGHT"	"RIGHT"	311.862499999961	1150.0000023	n/a	n/a	n/a	n/a	n/a	n/a	n/a	"2020-03-06 13:45:21.403949"	"2020-03-06 13:45:21.923821"	80	5.13225605
"S200306"	"Response_Inhibition"	"LEFT"	"LEFT"	350.098300000013	633.3333346	n/a	n/a	n/a	n/a	n/a	n/a	n/a	"2020-03-06 13:45:22.565810"	"2020-03-06 13:45:23.125252"	81	5.13225605
"S200306"	"Response_Inhibition"	"RIGHT"	"RIGHT"	292.593600000032	1433.3333362	n/a	n/a	n/a	n/a	n/a	n/a	n/a	"2020-03-06 13:45:24.567587"	"2020-03-06 13:45:25.067657"	82	5.13225605
"S200306"	"Response_Inhibition"	"LEFT"	"LEFT"	328.454933700039	683.3333347	n/a	n/a	n/a	n/a	n/a	n/a	n/a	"2020-03-06 13:45:25.760096"	"2020-03-06 13:45:26.301098"	83	5.13225605
"S200306"	"Response_Inhibition"	"LEFT"	"LEFT"	367.108300000041	783.3333349	n/a	n/a	n/a	n/a	n/a	n/a	n/a	"2020-03-06 13:45:27.093162"	"2020-03-06 13:45:27.668170"	84	5.13225605
"S200306"	"Response_Inhibition"	"LEFT"	"LEFT"	340.271099999995	1266.6666692	n/a	n/a	n/a	n/a	n/a	n/a	n/a	"2020-03-06 13:45:28.943492"	"2020-03-06 13:45:29.492259"	85	5.13225605
"S200306"	"Response_Inhibition"	"RIGHT"	"RIGHT"	351.01839999993	800.0000016	n/a	n/a	n/a	n/a	n/a	n/a	n/a	"2020-03-06 13:45:30.300888"	"2020-03-06 13:45:30.860257"	86	5.13225605
"S200306"	"Response_Inhibition"	"LEFT"	"LEFT"	305.292200000054	550.0000011	n/a	n/a	n/a	n/a	n/a	n/a	n/a	"2020-03-06 13:45:31.418228"	"2020-03-06 13:45:31.931852"	87	5.13225605
"S200306"	"Response_Inhibition"	"LEFT"	"LEFT"	308.830700000044	1266.6666692	n/a	n/a	n/a	n/a	n/a	n/a	n/a	"2020-03-06 13:45:33.207670"	"2020-03-06 13:45:33.725456"	88	5.13225605
"S200306"	"Response_Inhibition"	"RIGHT"	"RIGHT"	290.452399999936	1100.0000022	n/a	n/a	n/a	n/a	n/a	n/a	n/a	"2020-03-06 13:45:34.834279"	"2020-03-06 13:45:35.332527"	89	5.13225605
"S200306"	"Response_Inhibition"	"LEFT"	"LEFT"	311.01073379997	1316.6666693	n/a	n/a	n/a	n/a	n/a	n/a	n/a	"2020-03-06 13:45:36.657856"	"2020-03-06 13:45:37.180151"	90	5.13225605
"S200306"	"Response_Inhibition"	"RIGHT"	"Time_Max_Exceeded"	1500.051067	916.6666685	n/a	n/a	n/a	n/a	n/a	n/a	n/a	"2020-03-06 13:45:38.105818"	"2020-03-06 13:45:39.609252"	91	5.13225605
"S200306"	"Response_Inhibition"	"LEFT"	"LEFT"	286.672899999985	1066.6666688	n/a	n/a	n/a	n/a	n/a	n/a	n/a	"2020-03-06 13:45:40.685773"	"2020-03-06 13:45:41.179749"	92	5.13225605
"S200306"	"Response_Inhibition"	"RIGHT"	"RIGHT"	289.455300499986	1083.3333355	n/a	n/a	n/a	n/a	n/a	n/a	n/a	"2020-03-06 13:45:42.271620"	"2020-03-06 13:45:42.771825"	93	5.13225605
"S200306"	"Response_Inhibition"	"RIGHT"	"Time_Max_Exceeded"	1500.05083339996	1233.3333358	n/a	n/a	n/a	n/a	n/a	n/a	n/a	"2020-03-06 13:45:44.014125"	"2020-03-06 13:45:45.517239"	94	5.13225605
"S200306"	"Response_Inhibition"	"RIGHT"	"RIGHT"	354.665499999896	866.6666684	n/a	n/a	n/a	n/a	n/a	n/a	n/a	"2020-03-06 13:45:46.393367"	"2020-03-06 13:45:46.956629"	95	5.13225605
"S200306"	"Response_Inhibition"	"RIGHT"	"RIGHT"	659.450400000082	1483.3333363	n/a	n/a	n/a	n/a	n/a	n/a	n/a	"2020-03-06 13:45:48.448022"	"2020-03-06 13:45:49.316331"	96	5.13225605
"S200306"	"Response_Inhibition"	"LEFT"	"LEFT"	306.366400000002	1316.6666693	n/a	n/a	n/a	n/a	n/a	n/a	n/a	"2020-03-06 13:45:50.641206"	"2020-03-06 13:45:51.156299"	97	5.13225605
"S200306"	"Response_Inhibition"	"LEFT"	"LEFT"	686.579000000052	616.6666679	n/a	n/a	n/a	n/a	n/a	n/a	n/a	"2020-03-06 13:45:51.781466"	"2020-03-06 13:45:52.676214"	98	5.13225605
"S200306"	"Response_Inhibition"	"RIGHT"	"RIGHT"	354.208599999993	733.3333348	n/a	n/a	n/a	n/a	n/a	n/a	n/a	"2020-03-06 13:45:53.417934"	"2020-03-06 13:45:53.980200"	99	5.13225605
"S200306"	"Response_Inhibition"	"RIGHT"	"RIGHT"	314.015800000107	1333.333336	n/a	n/a	n/a	n/a	n/a	n/a	n/a	"2020-03-06 13:45:55.321485"	"2020-03-06 13:45:55.843688"	100	5.13225605
"S200306"	"Response_Inhibition"	"LEFT"	"LEFT"	320.330833699893	900.0000018	n/a	n/a	n/a	n/a	n/a	n/a	n/a	"2020-03-06 13:45:56.752479"	"2020-03-06 13:45:57.283822"	101	5.13225605
"S200306"	"Response_Inhibition"	"LEFT"	"LEFT"	362.32849999999	716.6666681	n/a	n/a	n/a	n/a	n/a	n/a	n/a	"2020-03-06 13:45:58.009583"	"2020-03-06 13:45:58.579685"	102	5.13225605
"S200306"	"Response_Inhibition"	"RIGHT"	"RIGHT"	505.454699999973	1150.0000023	n/a	n/a	n/a	n/a	n/a	n/a	n/a	"2020-03-06 13:45:59.738687"	"2020-03-06 13:46:00.452123"	103	5.13225605
"S200306"	"Response_Inhibition"	"LEFT"	"LEFT"	276.804200000015	1466.6666696	n/a	n/a	n/a	n/a	n/a	n/a	n/a	"2020-03-06 13:46:01.927158"	"2020-03-06 13:46:02.411948"	104	5.13225605
"S200306"	"Response_Inhibition"	"LEFT"	"LEFT"	308.976799999982	1466.6666696	n/a	n/a	n/a	n/a	n/a	n/a	n/a	"2020-03-06 13:46:03.886759"	"2020-03-06 13:46:04.403124"	105	5.13225605
"S200306"	"Response_Inhibition"	"RIGHT"	"RIGHT"	371.519800000101	1316.6666693	n/a	n/a	n/a	n/a	n/a	n/a	n/a	"2020-03-06 13:46:05.728734"	"2020-03-06 13:46:06.308103"	106	5.13225605
"S200306"	"Response_Inhibition"	"LEFT"	"LEFT"	306.184900200039	1050.0000021	n/a	n/a	n/a	n/a	n/a	n/a	n/a	"2020-03-06 13:46:07.366322"	"2020-03-06 13:46:07.883939"	107	5.13225605
"S200306"	"Response_Inhibition"	"RIGHT"	"RIGHT"	414.730599999984	1000.000002	n/a	n/a	n/a	n/a	n/a	n/a	n/a	"2020-03-06 13:46:08.893493"	"2020-03-06 13:46:09.516154"	108	5.13225605
"S200306"	"Response_Inhibition"	"RIGHT"	"RIGHT"	383.890900000097	783.3333349	n/a	n/a	n/a	n/a	n/a	n/a	n/a	"2020-03-06 13:46:10.308054"	"2020-03-06 13:46:10.899792"	109	5.13225605
"S200306"	"Response_Inhibition"	"LEFT"	"LEFT"	337.80999999999	950.0000019	n/a	n/a	n/a	n/a	n/a	n/a	n/a	"2020-03-06 13:46:11.858120"	"2020-03-06 13:46:12.405003"	110	5.13225605
"S200306"	"Response_Inhibition"	"LEFT"	"LEFT"	392.435100000057	750.0000015	n/a	n/a	n/a	n/a	n/a	n/a	n/a	"2020-03-06 13:46:13.163533"	"2020-03-06 13:46:13.763624"	111	5.13225605
"S200306"	"Response_Inhibition"	"LEFT"	"LEFT"	365.83096680003	766.6666682	n/a	n/a	n/a	n/a	n/a	n/a	n/a	"2020-03-06 13:46:14.538557"	"2020-03-06 13:46:15.115711"	112	5.13225605
"S200306"	"Response_Inhibition"	"LEFT"	"LEFT"	403.835200000003	700.0000014	n/a	n/a	n/a	n/a	n/a	n/a	n/a	"2020-03-06 13:46:15.824324"	"2020-03-06 13:46:16.435812"	113	5.13225605
"S200306"	"Response_Inhibition"	"LEFT"	"LEFT"	306.831399999965	900.0000018	n/a	n/a	n/a	n/a	n/a	n/a	n/a	"2020-03-06 13:46:17.345294"	"2020-03-06 13:46:17.859899"	114	5.13225605
"S200306"	"Response_Inhibition"	"RIGHT"	"RIGHT"	343.660333899916	1116.6666689	n/a	n/a	n/a	n/a	n/a	n/a	n/a	"2020-03-06 13:46:18.984938"	"2020-03-06 13:46:19.540050"	115	5.13225605
"S200306"	"Response_Inhibition"	"RIGHT"	"Time_Max_Exceeded"	1500.06053340004	633.3333346	n/a	n/a	n/a	n/a	n/a	n/a	n/a	"2020-03-06 13:46:20.181511"	"2020-03-06 13:46:21.686165"	116	5.13225605
"S200306"	"Response_Inhibition"	"LEFT"	"LEFT"	359.798900400055	1233.3333358	n/a	n/a	n/a	n/a	n/a	n/a	n/a	"2020-03-06 13:46:22.928752"	"2020-03-06 13:46:23.499276"	117	5.13225605
"S200306"	"Response_Inhibition"	"LEFT"	"LEFT"	325.626500499998	1366.6666694	n/a	n/a	n/a	n/a	n/a	n/a	n/a	"2020-03-06 13:46:24.874802"	"2020-03-06 13:46:25.412003"	118	5.13225605
"S200306"	"Response_Inhibition"	"RIGHT"	"RIGHT"	364.697400000068	1266.6666692	n/a	n/a	n/a	n/a	n/a	n/a	n/a	"2020-03-06 13:46:26.687385"	"2020-03-06 13:46:27.259912"	119	5.13225605
"S200306"	"Response_Inhibition"	"LEFT"	"LEFT"	466.730267200021	1033.3333354	n/a	n/a	n/a	n/a	n/a	n/a	n/a	"2020-03-06 13:46:28.302385"	"2020-03-06 13:46:28.979747"	120	5.13225605
"S200306"	"Response_Inhibition"	"RIGHT"	"RIGHT"	238.491999999951	1033.3333354	n/a	n/a	n/a	n/a	n/a	n/a	n/a	"2020-03-06 13:46:30.021232"	"2020-03-06 13:46:30.468016"	121	5.13225605
"S200306"	"Response_Inhibition"	"RIGHT"	"RIGHT"	546.068200000036	716.6666681	n/a	n/a	n/a	n/a	n/a	n/a	n/a	"2020-03-06 13:46:31.193731"	"2020-03-06 13:46:31.946584"	122	5.13225605
"S200306"	"Response_Inhibition"	"LEFT"	"LEFT"	304.149600000073	1016.6666687	n/a	n/a	n/a	n/a	n/a	n/a	n/a	"2020-03-06 13:46:32.972208"	"2020-03-06 13:46:33.483990"	123	5.13225605
"S200306"	"Response_Inhibition"	"LEFT"	"LEFT"	386.294300000031	516.6666677	n/a	n/a	n/a	n/a	n/a	n/a	n/a	"2020-03-06 13:46:34.009536"	"2020-03-06 13:46:34.603019"	124	5.13225605
"S200306"	"Response_Inhibition"	"RIGHT"	"RIGHT"	342.412200000012	1466.6666696	n/a	n/a	n/a	n/a	n/a	n/a	n/a	"2020-03-06 13:46:36.078133"	"2020-03-06 13:46:36.627795"	125	5.13225605
"S200306"	"Response_Inhibition"	"RIGHT"	"RIGHT"	318.793199999959	616.6666679	n/a	n/a	n/a	n/a	n/a	n/a	n/a	"2020-03-06 13:46:37.253057"	"2020-03-06 13:46:37.780504"	126	5.13225605
"S200306"	"Response_Inhibition"	"RIGHT"	"RIGHT"	393.563399999948	1133.3333356	n/a	n/a	n/a	n/a	n/a	n/a	n/a	"2020-03-06 13:46:38.922728"	"2020-03-06 13:46:39.523912"	127	5.13225605
"S200306"	"Response_Inhibition"	"LEFT"	"LEFT"	272.957266900034	1283.3333359	n/a	n/a	n/a	n/a	n/a	n/a	n/a	"2020-03-06 13:46:40.815647"	"2020-03-06 13:46:41.300390"	128	5.13225605
"S200306"	"Response_Inhibition"	"LEFT"	"LEFT"	482.979200000045	1100.0000022	n/a	n/a	n/a	n/a	n/a	n/a	n/a	"2020-03-06 13:46:42.408734"	"2020-03-06 13:46:43.099815"	129	5.13225605
"S200306"	"Response_Inhibition"	"LEFT"	"LEFT"	321.528899999976	1350.0000027	n/a	n/a	n/a	n/a	n/a	n/a	n/a	"2020-03-06 13:46:44.458052"	"2020-03-06 13:46:44.987792"	130	5.13225605
"S200306"	"Response_Inhibition"	"LEFT"	"LEFT"	329.939200000013	933.3333352	n/a	n/a	n/a	n/a	n/a	n/a	n/a	"2020-03-06 13:46:45.929680"	"2020-03-06 13:46:46.467940"	131	5.13225605
"S200306"	"Response_Inhibition"	"LEFT"	"LEFT"	294.333633500023	950.0000019	n/a	n/a	n/a	n/a	n/a	n/a	n/a	"2020-03-06 13:46:47.425906"	"2020-03-06 13:46:47.931609"	132	5.13225605
"S200306"	"Response_Inhibition"	"RIGHT"	"RIGHT"	267.528200000015	1500.000003	n/a	n/a	n/a	n/a	n/a	n/a	n/a	"2020-03-06 13:46:49.440389"	"2020-03-06 13:46:49.915645"	133	5.13225605
"S200306"	"Response_Inhibition"	"RIGHT"	"RIGHT"	345.703399999934	550.0000011	n/a	n/a	n/a	n/a	n/a	n/a	n/a	"2020-03-06 13:46:50.473978"	"2020-03-06 13:46:51.028528"	134	5.13225605
"S200306"	"Response_Inhibition"	"LEFT"	"LEFT"	281.760000000077	916.6666685	n/a	n/a	n/a	n/a	n/a	n/a	n/a	"2020-03-06 13:46:51.954636"	"2020-03-06 13:46:52.445100"	135	5.13225605
"S200306"	"Response_Inhibition"	"RIGHT"	"RIGHT"	328.901299999984	533.3333344	n/a	n/a	n/a	n/a	n/a	n/a	n/a	"2020-03-06 13:46:52.986724"	"2020-03-06 13:46:53.524392"	136	5.13225605
"S200306"	"Response_Inhibition"	"LEFT"	"LEFT"	271.858599999973	1183.3333357	n/a	n/a	n/a	n/a	n/a	n/a	n/a	"2020-03-06 13:46:54.715874"	"2020-03-06 13:46:55.195657"	137	5.13225605
"S200306"	"Response_Inhibition"	"RIGHT"	"RIGHT"	256.233700000053	966.6666686	n/a	n/a	n/a	n/a	n/a	n/a	n/a	"2020-03-06 13:46:56.171138"	"2020-03-06 13:46:56.636177"	138	5.13225605
"S200306"	"Response_Inhibition"	"LEFT"	"LEFT"	259.26470030004	1416.6666695	n/a	n/a	n/a	n/a	n/a	n/a	n/a	"2020-03-06 13:46:58.060992"	"2020-03-06 13:46:58.531612"	139	5.13225605
"S200306"	"Response_Inhibition"	"RIGHT"	"RIGHT"	443.297199999961	683.3333347	n/a	n/a	n/a	n/a	n/a	n/a	n/a	"2020-03-06 13:46:59.224767"	"2020-03-06 13:46:59.875771"	140	5.13225605
"S200306"	"Response_Inhibition"	"RIGHT"	"RIGHT"	341.79360049996	1366.6666694	n/a	n/a	n/a	n/a	n/a	n/a	n/a	"2020-03-06 13:47:01.251012"	"2020-03-06 13:47:01.804179"	141	5.13225605
"S200306"	"Response_Inhibition"	"RIGHT"	"RIGHT"	355.342999999948	900.0000018	n/a	n/a	n/a	n/a	n/a	n/a	n/a	"2020-03-06 13:47:02.713076"	"2020-03-06 13:47:03.276645"	142	5.13225605
"S200306"	"Response_Inhibition"	"RIGHT"	"RIGHT"	343.384399999991	766.6666682	n/a	n/a	n/a	n/a	n/a	n/a	n/a	"2020-03-06 13:47:04.052765"	"2020-03-06 13:47:04.604484"	143	5.13225605
"S200306"	"Response_Inhibition"	"RIGHT"	"RIGHT"	272.625800399969	1466.6666696	n/a	n/a	n/a	n/a	n/a	n/a	n/a	"2020-03-06 13:47:06.080403"	"2020-03-06 13:47:06.563749"	144	5.13225605
"S200306"	"Response_Inhibition"	"LEFT"	"LEFT"	260.326999999961	883.3333351	n/a	n/a	n/a	n/a	n/a	n/a	n/a	"2020-03-06 13:47:07.455873"	"2020-03-06 13:47:07.924501"	145	5.13225605
"S200306"	"Response_Inhibition"	"RIGHT"	"RIGHT"	303.619400000002	783.3333349	n/a	n/a	n/a	n/a	n/a	n/a	n/a	"2020-03-06 13:47:08.716113"	"2020-03-06 13:47:09.227997"	146	5.13225605
"S200306"	"Response_Inhibition"	"LEFT"	"LEFT"	248.377733599988	1483.3333363	n/a	n/a	n/a	n/a	n/a	n/a	n/a	"2020-03-06 13:47:10.719584"	"2020-03-06 13:47:11.179539"	147	5.13225605
"S200306"	"Response_Inhibition"	"LEFT"	"LEFT"	377.229499999999	1133.3333356	n/a	n/a	n/a	n/a	n/a	n/a	n/a	"2020-03-06 13:47:12.322620"	"2020-03-06 13:47:12.908022"	148	5.13225605
"S200306"	"Response_Inhibition"	"RIGHT"	"RIGHT"	295.094000199926	1300.0000026	n/a	n/a	n/a	n/a	n/a	n/a	n/a	"2020-03-06 13:47:14.217181"	"2020-03-06 13:47:14.723856"	149	5.13225605
"S200306"	"Response_Inhibition"	"LEFT"	"LEFT"	372.275299999956	683.3333347	n/a	n/a	n/a	n/a	n/a	n/a	n/a	"2020-03-06 13:47:15.415550"	"2020-03-06 13:47:15.995815"	150	5.13225605
"S200306"	"Response_Inhibition"	"RIGHT"	"Time_Max_Exceeded"	1500.05426689999	1266.6666692	n/a	n/a	n/a	n/a	n/a	n/a	n/a	"2020-03-06 13:47:17.272586"	"2020-03-06 13:47:18.775182"	151	5.13225605
"S200306"	"Response_Inhibition"	"RIGHT"	"RIGHT"	598.534700000073	516.6666677	n/a	n/a	n/a	n/a	n/a	n/a	n/a	"2020-03-06 13:47:19.300837"	"2020-03-06 13:47:20.107774"	152	5.13225605
"S200306"	"Response_Inhibition"	"LEFT"	"LEFT"	373.142733600013	583.3333345	n/a	n/a	n/a	n/a	n/a	n/a	n/a	"2020-03-06 13:47:20.699959"	"2020-03-06 13:47:21.284149"	153	5.13225605
"S200306"	"Response_Inhibition"	"RIGHT"	"Time_Max_Exceeded"	1500.04960009994	1216.6666691	n/a	n/a	n/a	n/a	n/a	n/a	n/a	"2020-03-06 13:47:22.509940"	"2020-03-06 13:47:24.012850"	154	5.13225605
"S200306"	"Response_Inhibition"	"RIGHT"	"RIGHT"	363.568200299941	1166.666669	n/a	n/a	n/a	n/a	n/a	n/a	n/a	"2020-03-06 13:47:25.188723"	"2020-03-06 13:47:25.764340"	155	5.13225605
"S200306"	"Response_Inhibition"	"RIGHT"	"RIGHT"	609.058100000084	950.0000019	n/a	n/a	n/a	n/a	n/a	n/a	n/a	"2020-03-06 13:47:26.723182"	"2020-03-06 13:47:27.539625"	156	5.13225605
"S200306"	"Response_Inhibition"	"RIGHT"	"RIGHT"	348.89249999992	1066.6666688	n/a	n/a	n/a	n/a	n/a	n/a	n/a	"2020-03-06 13:47:28.615217"	"2020-03-06 13:47:29.171698"	157	5.13225605
"S200306"	"Response_Inhibition"	"RIGHT"	"RIGHT"	380.622099999982	683.3333347	n/a	n/a	n/a	n/a	n/a	n/a	n/a	"2020-03-06 13:47:29.863344"	"2020-03-06 13:47:30.453369"	158	5.13225605
"S200306"	"Response_Inhibition"	"LEFT"	"LEFT"	432.790400000044	533.3333344	n/a	n/a	n/a	n/a	n/a	n/a	n/a	"2020-03-06 13:47:30.995506"	"2020-03-06 13:47:31.635937"	159	5.13225605
"S200306"	"Response_Inhibition"	"LEFT"	"LEFT"	311.648099999957	1400.0000028	n/a	n/a	n/a	n/a	n/a	n/a	n/a	"2020-03-06 13:47:33.044423"	"2020-03-06 13:47:33.564033"	160	5.13225605
"S200306"	"Response_Selection"	"RIGHT"	"RIGHT"	355.625999999972	1083.3333355	n/a	n/a	n/a	n/a	n/a	n/a	n/a	"2020-03-06 13:40:23.984507"	"2020-03-06 13:40:24.547605"	1	2.86210803333333
"S200306"	"Response_Selection"	"RIGHT"	"RIGHT"	354.621300000019	733.3333348	n/a	n/a	n/a	n/a	n/a	n/a	n/a	"2020-03-06 13:40:25.289887"	"2020-03-06 13:40:25.852671"	2	2.86210803333333
"S200306"	"Response_Selection"	"LEFT"	"LEFT"	308.255400000007	1066.6666688	n/a	n/a	n/a	n/a	n/a	n/a	n/a	"2020-03-06 13:40:26.928237"	"2020-03-06 13:40:27.443864"	3	2.86210803333333
"S200306"	"Response_Selection"	"LEFT"	"LEFT"	335.571900000048	1200.0000024	n/a	n/a	n/a	n/a	n/a	n/a	n/a	"2020-03-06 13:40:28.652331"	"2020-03-06 13:40:29.195761"	4	2.86210803333333
"S200306"	"Response_Selection"	"LEFT"	"LEFT"	321.819500000004	1316.6666693	n/a	n/a	n/a	n/a	n/a	n/a	n/a	"2020-03-06 13:40:30.522583"	"2020-03-06 13:40:31.051553"	5	2.86210803333333
"S200306"	"Response_Selection"	"LEFT"	"LEFT"	321.008199999994	983.3333353	n/a	n/a	n/a	n/a	n/a	n/a	n/a	"2020-03-06 13:40:32.043438"	"2020-03-06 13:40:32.572010"	6	2.86210803333333
"S200306"	"Response_Selection"	"LEFT"	"LEFT"	306.446699999981	733.3333348	n/a	n/a	n/a	n/a	n/a	n/a	n/a	"2020-03-06 13:40:33.313668"	"2020-03-06 13:40:33.828556"	7	2.86210803333333
"S200306"	"Response_Selection"	"RIGHT"	"RIGHT"	263.816499999962	983.3333353	n/a	n/a	n/a	n/a	n/a	n/a	n/a	"2020-03-06 13:40:34.820645"	"2020-03-06 13:40:35.292686"	8	2.86210803333333
"S200306"	"Response_Selection"	"RIGHT"	"RIGHT"	272.966499999995	1316.6666693	n/a	n/a	n/a	n/a	n/a	n/a	n/a	"2020-03-06 13:40:36.619789"	"2020-03-06 13:40:37.099765"	9	2.86210803333333
"S200306"	"Response_Selection"	"RIGHT"	"RIGHT"	285.309499999983	833.333335	n/a	n/a	n/a	n/a	n/a	n/a	n/a	"2020-03-06 13:40:37.942779"	"2020-03-06 13:40:38.435719"	10	2.86210803333333
"S200306"	"Response_Selection"	"RIGHT"	"RIGHT"	300.538099999983	883.3333351	n/a	n/a	n/a	n/a	n/a	n/a	n/a	"2020-03-06 13:40:39.327829"	"2020-03-06 13:40:39.837366"	11	2.86210803333333
"S200306"	"Response_Selection"	"LEFT"	"LEFT"	269.841799999995	1400.0000028	n/a	n/a	n/a	n/a	n/a	n/a	n/a	"2020-03-06 13:40:41.246103"	"2020-03-06 13:40:41.725490"	12	2.86210803333333
"S200306"	"Response_Selection"	"RIGHT"	"RIGHT"	275.309200000038	1266.6666692	n/a	n/a	n/a	n/a	n/a	n/a	n/a	"2020-03-06 13:40:43.001272"	"2020-03-06 13:40:43.483896"	13	2.86210803333333
"S200306"	"Response_Selection"	"RIGHT"	"RIGHT"	262.996499999986	1216.6666691	n/a	n/a	n/a	n/a	n/a	n/a	n/a	"2020-03-06 13:40:44.709614"	"2020-03-06 13:40:45.179973"	14	2.86210803333333
"S200306"	"Response_Selection"	"RIGHT"	"RIGHT"	255.070999999987	1400.0000028	n/a	n/a	n/a	n/a	n/a	n/a	n/a	"2020-03-06 13:40:46.589376"	"2020-03-06 13:40:47.051765"	15	2.86210803333333
"S200306"	"Response_Selection"	"LEFT"	"LEFT"	300.02810000002	1500.000003	n/a	n/a	n/a	n/a	n/a	n/a	n/a	"2020-03-06 13:40:48.559937"	"2020-03-06 13:40:49.067639"	16	2.86210803333333
"S200306"	"Response_Selection"	"RIGHT"	"RIGHT"	264.730300000053	583.3333345	n/a	n/a	n/a	n/a	n/a	n/a	n/a	"2020-03-06 13:40:49.659766"	"2020-03-06 13:40:50.133166"	17	2.86210803333333
"S200306"	"Response_Selection"	"LEFT"	"LEFT"	251.083100000017	883.3333351	n/a	n/a	n/a	n/a	n/a	n/a	n/a	"2020-03-06 13:40:51.024678"	"2020-03-06 13:40:51.484952"	18	2.86210803333333
"S200306"	"Response_Selection"	"LEFT"	"LEFT"	314.634699999999	500.000001	n/a	n/a	n/a	n/a	n/a	n/a	n/a	"2020-03-06 13:40:51.993935"	"2020-03-06 13:40:52.515781"	19	2.86210803333333
"S200306"	"Response_Selection"	"RIGHT"	"RIGHT"	302.970000000016	1350.0000027	n/a	n/a	n/a	n/a	n/a	n/a	n/a	"2020-03-06 13:40:53.876820"	"2020-03-06 13:40:54.387803"	20	2.86210803333333
"S200306"	"Response_Selection"	"LEFT"	"LEFT"	268.501300000025	1450.0000029	n/a	n/a	n/a	n/a	n/a	n/a	n/a	"2020-03-06 13:40:55.848166"	"2020-03-06 13:40:56.325177"	21	2.86210803333333
"S200306"	"Response_Selection"	"LEFT"	"LEFT"	266.180700000007	1266.6666692	n/a	n/a	n/a	n/a	n/a	n/a	n/a	"2020-03-06 13:40:57.602398"	"2020-03-06 13:40:58.077311"	22	2.86210803333333
"S200306"	"Response_Selection"	"RIGHT"	"RIGHT"	332.572099999993	1416.6666695	n/a	n/a	n/a	n/a	n/a	n/a	n/a	"2020-03-06 13:40:59.503070"	"2020-03-06 13:41:00.044891"	23	2.86210803333333
"S200306"	"Response_Selection"	"LEFT"	"LEFT"	274.921399999982	866.6666684	n/a	n/a	n/a	n/a	n/a	n/a	n/a	"2020-03-06 13:41:00.920889"	"2020-03-06 13:41:01.404267"	24	2.86210803333333
"S200306"	"Response_Selection"	"LEFT"	"LEFT"	303.550499999972	800.0000016	n/a	n/a	n/a	n/a	n/a	n/a	n/a	"2020-03-06 13:41:02.212320"	"2020-03-06 13:41:02.723723"	25	2.86210803333333
"S200306"	"Response_Selection"	"RIGHT"	"LEFT"	300.455999999997	683.3333347	n/a	n/a	n/a	n/a	n/a	n/a	n/a	"2020-03-06 13:41:03.416076"	"2020-03-06 13:41:03.923740"	26	2.86210803333333
"S200306"	"Response_Selection"	"LEFT"	"LEFT"	280.695899999955	783.3333349	n/a	n/a	n/a	n/a	n/a	n/a	n/a	"2020-03-06 13:41:04.715304"	"2020-03-06 13:41:05.204051"	27	2.86210803333333
"S200306"	"Response_Selection"	"LEFT"	"LEFT"	334.603799999968	1416.6666695	n/a	n/a	n/a	n/a	n/a	n/a	n/a	"2020-03-06 13:41:06.629680"	"2020-03-06 13:41:07.172354"	28	2.86210803333333
"S200306"	"Response_Selection"	"LEFT"	"LEFT"	378.245899999968	533.3333344	n/a	n/a	n/a	n/a	n/a	n/a	n/a	"2020-03-06 13:41:07.714002"	"2020-03-06 13:41:08.300800"	29	2.86210803333333
"S200306"	"Response_Selection"	"LEFT"	"LEFT"	329.740299999969	1133.3333356	n/a	n/a	n/a	n/a	n/a	n/a	n/a	"2020-03-06 13:41:09.442285"	"2020-03-06 13:41:09.980043"	30	2.86210803333333
"S200306"	"Response_Selection"	"LEFT"	"LEFT"	515.543100000002	700.0000014	n/a	n/a	n/a	n/a	n/a	n/a	n/a	"2020-03-06 13:41:10.688671"	"2020-03-06 13:41:11.412919"	31	2.86210803333333
"S200306"	"Response_Selection"	"LEFT"	"LEFT"	324.346100000014	1466.6666696	n/a	n/a	n/a	n/a	n/a	n/a	n/a	"2020-03-06 13:41:12.887933"	"2020-03-06 13:41:13.420172"	32	2.86210803333333
"S200306"	"Response_Selection"	"RIGHT"	"RIGHT"	245.32929999998	1450.0000029	n/a	n/a	n/a	n/a	n/a	n/a	n/a	"2020-03-06 13:41:14.878815"	"2020-03-06 13:41:15.332920"	33	2.86210803333333
"S200306"	"Response_Selection"	"RIGHT"	"RIGHT"	288.099400000021	1366.6666694	n/a	n/a	n/a	n/a	n/a	n/a	n/a	"2020-03-06 13:41:16.707528"	"2020-03-06 13:41:17.204744"	34	2.86210803333333
"S200306"	"Response_Selection"	"LEFT"	"LEFT"	312.1309	1166.666669	n/a	n/a	n/a	n/a	n/a	n/a	n/a	"2020-03-06 13:41:18.380098"	"2020-03-06 13:41:18.903344"	35	2.86210803333333
"S200306"	"Response_Selection"	"LEFT"	"LEFT"	299.18090000001	633.3333346	n/a	n/a	n/a	n/a	n/a	n/a	n/a	"2020-03-06 13:41:19.545510"	"2020-03-06 13:41:20.052757"	36	2.86210803333333
"S200306"	"Response_Selection"	"RIGHT"	"RIGHT"	353.935000000035	500.000001	n/a	n/a	n/a	n/a	n/a	n/a	n/a	"2020-03-06 13:41:20.562370"	"2020-03-06 13:41:21.124079"	37	2.86210803333333
"S200306"	"Response_Selection"	"LEFT"	"LEFT"	304.628300000047	966.6666686	n/a	n/a	n/a	n/a	n/a	n/a	n/a	"2020-03-06 13:41:22.099839"	"2020-03-06 13:41:22.612483"	38	2.86210803333333
"S200306"	"Response_Selection"	"RIGHT"	"RIGHT"	300.606700000003	866.6666684	n/a	n/a	n/a	n/a	n/a	n/a	n/a	"2020-03-06 13:41:23.487439"	"2020-03-06 13:41:23.995628"	39	2.86210803333333
"S200306"	"Response_Selection"	"LEFT"	"LEFT"	366.334900000027	583.3333345	n/a	n/a	n/a	n/a	n/a	n/a	n/a	"2020-03-06 13:41:24.589693"	"2020-03-06 13:41:25.163702"	40	2.86210803333333
"S200306"	"Response_Selection"	"LEFT"	"LEFT"	311.9102	600.0000012	n/a	n/a	n/a	n/a	n/a	n/a	n/a	"2020-03-06 13:41:25.772363"	"2020-03-06 13:41:26.291797"	41	2.86210803333333
"S200306"	"Response_Selection"	"RIGHT"	"RIGHT"	283.564500000011	1300.0000026	n/a	n/a	n/a	n/a	n/a	n/a	n/a	"2020-03-06 13:41:27.600417"	"2020-03-06 13:41:28.092297"	42	2.86210803333333
"S200306"	"Response_Selection"	"RIGHT"	"RIGHT"	341.499099999965	1250.0000025	n/a	n/a	n/a	n/a	n/a	n/a	n/a	"2020-03-06 13:41:29.350861"	"2020-03-06 13:41:29.900298"	43	2.86210803333333
"S200306"	"Response_Selection"	"LEFT"	"LEFT"	450.782500000003	916.6666685	n/a	n/a	n/a	n/a	n/a	n/a	n/a	"2020-03-06 13:41:30.825838"	"2020-03-06 13:41:31.483810"	44	2.86210803333333
"S200306"	"Response_Selection"	"RIGHT"	"RIGHT"	316.125999999997	700.0000014	n/a	n/a	n/a	n/a	n/a	n/a	n/a	"2020-03-06 13:41:32.192081"	"2020-03-06 13:41:32.715581"	45	2.86210803333333
"S200306"	"Response_Selection"	"RIGHT"	"RIGHT"	303.687400000001	1200.0000024	n/a	n/a	n/a	n/a	n/a	n/a	n/a	"2020-03-06 13:41:33.924981"	"2020-03-06 13:41:34.437115"	46	2.86210803333333
"S200306"	"Response_Selection"	"LEFT"	"LEFT"	295.081900000014	1366.6666694	n/a	n/a	n/a	n/a	n/a	n/a	n/a	"2020-03-06 13:41:35.812580"	"2020-03-06 13:41:36.315733"	47	2.86210803333333
"S200306"	"Response_Selection"	"RIGHT"	"RIGHT"	269.148200000018	1466.6666696	n/a	n/a	n/a	n/a	n/a	n/a	n/a	"2020-03-06 13:41:37.790693"	"2020-03-06 13:41:38.267794"	48	2.86210803333333
"S200306"	"Response_Selection"	"RIGHT"	"RIGHT"	410.140800000022	750.0000015	n/a	n/a	n/a	n/a	n/a	n/a	n/a	"2020-03-06 13:41:39.026385"	"2020-03-06 13:41:39.644348"	49	2.86210803333333
"S200306"	"Response_Selection"	"RIGHT"	"RIGHT"	313.80740000003	1116.6666689	n/a	n/a	n/a	n/a	n/a	n/a	n/a	"2020-03-06 13:41:40.770492"	"2020-03-06 13:41:41.292502"	50	2.86210803333333
"S200306"	"Response_Selection"	"LEFT"	"LEFT"	373.384299999998	650.0000013	n/a	n/a	n/a	n/a	n/a	n/a	n/a	"2020-03-06 13:41:41.951311"	"2020-03-06 13:41:42.531756"	51	2.86210803333333
"S200306"	"Response_Selection"	"LEFT"	"LEFT"	311.380100000008	1016.6666687	n/a	n/a	n/a	n/a	n/a	n/a	n/a	"2020-03-06 13:41:43.556480"	"2020-03-06 13:41:44.077477"	52	2.86210803333333
"S200306"	"Response_Selection"	"RIGHT"	"RIGHT"	328.554899999972	533.3333344	n/a	n/a	n/a	n/a	n/a	n/a	n/a	"2020-03-06 13:41:44.619377"	"2020-03-06 13:41:45.155770"	53	2.86210803333333
"S200306"	"Response_Selection"	"RIGHT"	"RIGHT"	371.544200000017	1500.000003	n/a	n/a	n/a	n/a	n/a	n/a	n/a	"2020-03-06 13:41:46.664370"	"2020-03-06 13:41:47.243725"	54	2.86210803333333
"S200306"	"Response_Selection"	"LEFT"	"LEFT"	291.704600000003	1300.0000026	n/a	n/a	n/a	n/a	n/a	n/a	n/a	"2020-03-06 13:41:48.552991"	"2020-03-06 13:41:49.051879"	55	2.86210803333333
"S200306"	"Response_Selection"	"RIGHT"	"RIGHT"	417.583699999966	550.0000011	n/a	n/a	n/a	n/a	n/a	n/a	n/a	"2020-03-06 13:41:49.610379"	"2020-03-06 13:41:50.237021"	56	2.86210803333333
"S200306"	"Response_Selection"	"RIGHT"	"RIGHT"	341.168499999981	633.3333346	n/a	n/a	n/a	n/a	n/a	n/a	n/a	"2020-03-06 13:41:50.879095"	"2020-03-06 13:41:51.428281"	57	2.86210803333333
"S200306"	"Response_Selection"	"RIGHT"	"RIGHT"	297.946899999999	1133.3333356	n/a	n/a	n/a	n/a	n/a	n/a	n/a	"2020-03-06 13:41:52.569884"	"2020-03-06 13:41:53.075789"	58	2.86210803333333
"S200306"	"Response_Selection"	"RIGHT"	"RIGHT"	373.317100000008	1066.6666688	n/a	n/a	n/a	n/a	n/a	n/a	n/a	"2020-03-06 13:41:54.150568"	"2020-03-06 13:41:54.732698"	59	2.86210803333333
"S200306"	"Response_Selection"	"RIGHT"	"RIGHT"	287.618000000009	783.3333349	n/a	n/a	n/a	n/a	n/a	n/a	n/a	"2020-03-06 13:41:55.524275"	"2020-03-06 13:41:56.020649"	60	2.86210803333333
"S200306"	"Response_Selection"	"LEFT"	"LEFT"	465.076100000033	750.0000015	n/a	n/a	n/a	n/a	n/a	n/a	n/a	"2020-03-06 13:41:56.778709"	"2020-03-06 13:41:57.452724"	61	2.86210803333333
"S200306"	"Response_Selection"	"RIGHT"	"RIGHT"	325.704300000041	1033.3333354	n/a	n/a	n/a	n/a	n/a	n/a	n/a	"2020-03-06 13:41:58.494806"	"2020-03-06 13:41:59.028338"	62	2.86210803333333
"S200306"	"Response_Selection"	"RIGHT"	"RIGHT"	309.861000000012	966.6666686	n/a	n/a	n/a	n/a	n/a	n/a	n/a	"2020-03-06 13:42:00.006497"	"2020-03-06 13:42:00.524253"	63	2.86210803333333
"S200306"	"Response_Selection"	"LEFT"	"LEFT"	237.390100000027	1250.0000025	n/a	n/a	n/a	n/a	n/a	n/a	n/a	"2020-03-06 13:42:01.782599"	"2020-03-06 13:42:02.228305"	64	2.86210803333333
"S200306"	"Response_Selection"	"LEFT"	"LEFT"	350.627299999985	1216.6666691	n/a	n/a	n/a	n/a	n/a	n/a	n/a	"2020-03-06 13:42:03.453932"	"2020-03-06 13:42:04.013194"	65	2.86210803333333
"S200306"	"Response_Selection"	"LEFT"	"LEFT"	425.917199999958	683.3333347	n/a	n/a	n/a	n/a	n/a	n/a	n/a	"2020-03-06 13:42:04.706459"	"2020-03-06 13:42:05.340235"	66	2.86210803333333
"S200306"	"Response_Selection"	"RIGHT"	"RIGHT"	415.018099999998	800.0000016	n/a	n/a	n/a	n/a	n/a	n/a	n/a	"2020-03-06 13:42:06.149023"	"2020-03-06 13:42:06.771668"	67	2.86210803333333
"S200306"	"Response_Selection"	"LEFT"	"LEFT"	289.704900000004	1350.0000027	n/a	n/a	n/a	n/a	n/a	n/a	n/a	"2020-03-06 13:42:08.130832"	"2020-03-06 13:42:08.628490"	68	2.86210803333333
"S200306"	"Response_Selection"	"LEFT"	"LEFT"	264.72160000003	933.3333352	n/a	n/a	n/a	n/a	n/a	n/a	n/a	"2020-03-06 13:42:09.571557"	"2020-03-06 13:42:10.043777"	69	2.86210803333333
"S200306"	"Response_Selection"	"LEFT"	"LEFT"	246.317699999963	1033.3333354	n/a	n/a	n/a	n/a	n/a	n/a	n/a	"2020-03-06 13:42:11.085940"	"2020-03-06 13:42:11.539759"	70	2.86210803333333
"S200306"	"Response_Selection"	"RIGHT"	"RIGHT"	282.709300000022	916.6666685	n/a	n/a	n/a	n/a	n/a	n/a	n/a	"2020-03-06 13:42:12.465907"	"2020-03-06 13:42:12.955847"	71	2.86210803333333
"S200306"	"Response_Selection"	"LEFT"	"LEFT"	298.60020000001	1116.6666689	n/a	n/a	n/a	n/a	n/a	n/a	n/a	"2020-03-06 13:42:14.081287"	"2020-03-06 13:42:14.587977"	72	2.86210803333333
"S200306"	"Response_Selection"	"RIGHT"	"RIGHT"	246.843300000023	1016.6666687	n/a	n/a	n/a	n/a	n/a	n/a	n/a	"2020-03-06 13:42:15.613775"	"2020-03-06 13:42:16.067699"	73	2.86210803333333
"S200306"	"Response_Selection"	"RIGHT"	"RIGHT"	301.22769999997	650.0000013	n/a	n/a	n/a	n/a	n/a	n/a	n/a	"2020-03-06 13:42:16.726729"	"2020-03-06 13:42:17.235551"	74	2.86210803333333
"S200306"	"Response_Selection"	"LEFT"	"LEFT"	266.921199999956	550.0000011	n/a	n/a	n/a	n/a	n/a	n/a	n/a	"2020-03-06 13:42:17.794990"	"2020-03-06 13:42:18.269021"	75	2.86210803333333
"S200306"	"Response_Selection"	"LEFT"	"LEFT"	261.183200000005	833.333335	n/a	n/a	n/a	n/a	n/a	n/a	n/a	"2020-03-06 13:42:19.111453"	"2020-03-06 13:42:19.581311"	76	2.86210803333333
"S200306"	"Response_Selection"	"RIGHT"	"RIGHT"	297.033499999998	933.3333352	n/a	n/a	n/a	n/a	n/a	n/a	n/a	"2020-03-06 13:42:20.523412"	"2020-03-06 13:42:21.027870"	77	2.86210803333333
"S200306"	"Response_Selection"	"LEFT"	"LEFT"	268.305600000019	1083.3333355	n/a	n/a	n/a	n/a	n/a	n/a	n/a	"2020-03-06 13:42:22.120225"	"2020-03-06 13:42:22.595549"	78	2.86210803333333
"S200306"	"Response_Selection"	"RIGHT"	"RIGHT"	328.41540000004	1166.666669	n/a	n/a	n/a	n/a	n/a	n/a	n/a	"2020-03-06 13:42:23.772079"	"2020-03-06 13:42:24.308269"	79	2.86210803333333
"S200306"	"Response_Selection"	"RIGHT"	"RIGHT"	438.449800000001	600.0000012	n/a	n/a	n/a	n/a	n/a	n/a	n/a	"2020-03-06 13:42:24.917959"	"2020-03-06 13:42:25.563956"	80	2.86210803333333
