Participant	Task	Stimulus_Side	Response	RT	ITI	Previous_Response	Previous_RT	Trial_Onset	Trial_End	Trial_Order	Duration	Conflict	Cue_Response	Cue_Response_RT	Stop_Signal	Stop_Signal_RT
S200309	Conflict_Resolution	LEFT	LEFT	1478.97620000003	533.3333344	n/a	n/a	2020-03-09 13:31:45.893957	2020-03-09 13:31:47.582116	1	6.38381556666667	True	n/a	n/a	n/a	n/a
S200309	Conflict_Resolution	LEFT	Time_Max_Exceeded	1500.1201	950.0000019	n/a	n/a	2020-03-09 13:31:48.550995	2020-03-09 13:31:50.051799	2	6.38381556666667	True	n/a	n/a	n/a	n/a
S200309	Conflict_Resolution	RIGHT	Time_Max_Exceeded	1500.05820000001	800.0000016	n/a	n/a	2020-03-09 13:31:50.872227	2020-03-09 13:31:52.371579	3	6.38381556666667	True	n/a	n/a	n/a	n/a
S200309	Conflict_Resolution	LEFT	RIGHT	924.328199999991	616.6666679	LEFT	-261.45	2020-03-09 13:31:53.008641	2020-03-09 13:31:54.141324	4	6.38381556666667	True	n/a	n/a	n/a	n/a
S200309	Conflict_Resolution	RIGHT	Time_Max_Exceeded	1500.08339999999	1333.333336	n/a	n/a	2020-03-09 13:31:55.492459	2020-03-09 13:31:56.992432	5	6.38381556666667	True	n/a	n/a	n/a	n/a
S200309	Conflict_Resolution	RIGHT	Time_Max_Exceeded	1500.05820000001	1366.6666694	n/a	n/a	2020-03-09 13:31:58.379861	2020-03-09 13:31:59.879221	6	6.38381556666667	True	n/a	n/a	n/a	n/a
S200309	Conflict_Resolution	LEFT	Time_Max_Exceeded	1500.06210000015	966.6666686	n/a	n/a	2020-03-09 13:32:00.865817	2020-03-09 13:32:02.366143	7	6.38381556666667	False	n/a	n/a	n/a	n/a
S200309	Conflict_Resolution	LEFT	LEFT	885.822699999835	733.3333348	n/a	n/a	2020-03-09 13:32:03.118920	2020-03-09 13:32:04.212827	8	6.38381556666667	False	n/a	n/a	n/a	n/a
S200309	Conflict_Resolution	RIGHT	Time_Max_Exceeded	1500.06619999999	700.0000014	n/a	n/a	2020-03-09 13:32:04.931945	2020-03-09 13:32:06.432505	9	6.38381556666667	True	n/a	n/a	n/a	n/a
S200309	Conflict_Resolution	LEFT	LEFT	768.197299999883	1200.0000024	n/a	n/a	2020-03-09 13:32:07.652300	2020-03-09 13:32:08.628318	10	6.38381556666667	False	n/a	n/a	n/a	n/a
S200309	Conflict_Resolution	LEFT	RIGHT	879.971699999942	566.6666678	n/a	n/a	2020-03-09 13:32:09.212355	2020-03-09 13:32:10.300520	11	6.38381556666667	True	n/a	n/a	n/a	n/a
S200309	Conflict_Resolution	LEFT	LEFT	1072.79599999993	716.6666681	n/a	n/a	2020-03-09 13:32:11.036432	2020-03-09 13:32:12.317970	12	6.38381556666667	False	n/a	n/a	n/a	n/a
S200309	Conflict_Resolution	LEFT	LEFT	457.409300000108	1066.6666688	n/a	n/a	2020-03-09 13:32:13.403887	2020-03-09 13:32:14.068262	13	6.38381556666667	False	n/a	n/a	n/a	n/a
S200309	Conflict_Resolution	RIGHT	LEFT	783.838699999933	733.3333348	n/a	n/a	2020-03-09 13:32:14.820878	2020-03-09 13:32:15.813524	14	6.38381556666667	True	n/a	n/a	n/a	n/a
S200309	Conflict_Resolution	LEFT	RIGHT	665.747499999952	1066.6666688	n/a	n/a	2020-03-09 13:32:16.899434	2020-03-09 13:32:17.772790	15	6.38381556666667	True	n/a	n/a	n/a	n/a
S200309	Conflict_Resolution	RIGHT	RIGHT	835.638700000118	1033.3333354	n/a	n/a	2020-03-09 13:32:18.825607	2020-03-09 13:32:19.868646	16	6.38381556666667	False	n/a	n/a	n/a	n/a
S200309	Conflict_Resolution	LEFT	LEFT	561.752699999943	516.6666677	n/a	n/a	2020-03-09 13:32:20.402805	2020-03-09 13:32:21.174012	17	6.38381556666667	False	n/a	n/a	n/a	n/a
S200309	Conflict_Resolution	RIGHT	Time_Max_Exceeded	1500.07809999988	683.3333347	n/a	n/a	2020-03-09 13:32:21.876139	2020-03-09 13:32:23.376373	18	6.38381556666667	True	n/a	n/a	n/a	n/a
S200309	Conflict_Resolution	LEFT	RIGHT	48.6075999999684	583.3333345	n/a	n/a	2020-03-09 13:32:23.980031	2020-03-09 13:32:24.236376	19	6.38381556666667	True	n/a	n/a	n/a	n/a
S200309	Conflict_Resolution	LEFT	LEFT	1110.59509999995	566.6666678	n/a	n/a	2020-03-09 13:32:24.822800	2020-03-09 13:32:26.140464	20	6.38381556666667	False	n/a	n/a	n/a	n/a
S200309	Conflict_Resolution	LEFT	Time_Max_Exceeded	1500.06630000007	633.3333346	n/a	n/a	2020-03-09 13:32:26.793291	2020-03-09 13:32:28.293859	21	6.38381556666667	True	n/a	n/a	n/a	n/a
S200309	Conflict_Resolution	RIGHT	RIGHT	802.258100000017	1483.3333363	LEFT	-1409.092	2020-03-09 13:32:29.794717	2020-03-09 13:32:30.805570	22	6.38381556666667	True	n/a	n/a	n/a	n/a
S200309	Conflict_Resolution	LEFT	LEFT	350.955299999896	1350.0000027	n/a	n/a	2020-03-09 13:32:32.173903	2020-03-09 13:32:32.732749	23	6.38381556666667	False	n/a	n/a	n/a	n/a
S200309	Conflict_Resolution	RIGHT	LEFT	369.806600000175	1433.3333362	n/a	n/a	2020-03-09 13:32:34.186907	2020-03-09 13:32:34.764893	24	6.38381556666667	True	n/a	n/a	n/a	n/a
S200309	Conflict_Resolution	RIGHT	RIGHT	502.454100000023	750.0000015	n/a	n/a	2020-03-09 13:32:35.534793	2020-03-09 13:32:36.244727	25	6.38381556666667	True	n/a	n/a	n/a	n/a
S200309	Conflict_Resolution	RIGHT	RIGHT	1043.4687999998	833.333335	n/a	n/a	2020-03-09 13:32:37.097671	2020-03-09 13:32:38.348237	26	6.38381556666667	True	n/a	n/a	n/a	n/a
S200309	Conflict_Resolution	RIGHT	RIGHT	606.579599999804	783.3333349	n/a	n/a	2020-03-09 13:32:39.150602	2020-03-09 13:32:39.965199	27	6.38381556666667	False	n/a	n/a	n/a	n/a
S200309	Conflict_Resolution	LEFT	LEFT	841.152299999976	1316.6666693	n/a	n/a	2020-03-09 13:32:41.299843	2020-03-09 13:32:42.349083	28	6.38381556666667	True	n/a	n/a	n/a	n/a
S200309	Conflict_Resolution	RIGHT	RIGHT	518.773600000031	750.0000015	n/a	n/a	2020-03-09 13:32:43.118252	2020-03-09 13:32:43.844393	29	6.38381556666667	False	n/a	n/a	n/a	n/a
S200309	Conflict_Resolution	LEFT	LEFT	613.822000000027	1400.0000028	n/a	n/a	2020-03-09 13:32:45.262699	2020-03-09 13:32:46.084173	30	6.38381556666667	True	n/a	n/a	n/a	n/a
S200309	Conflict_Resolution	LEFT	LEFT	524.783899999875	1216.6666691	n/a	n/a	2020-03-09 13:32:47.319666	2020-03-09 13:32:48.053849	31	6.38381556666667	False	n/a	n/a	n/a	n/a
S200309	Conflict_Resolution	RIGHT	RIGHT	370.989899999813	1416.6666695	n/a	n/a	2020-03-09 13:32:49.490079	2020-03-09 13:32:50.068812	32	6.38381556666667	False	n/a	n/a	n/a	n/a
S200309	Conflict_Resolution	RIGHT	RIGHT	498.051799999985	1466.6666696	n/a	n/a	2020-03-09 13:32:51.554708	2020-03-09 13:32:52.260507	33	6.38381556666667	False	n/a	n/a	n/a	n/a
S200309	Conflict_Resolution	RIGHT	RIGHT	652.098700000124	1216.6666691	n/a	n/a	2020-03-09 13:32:53.496965	2020-03-09 13:32:54.356677	34	6.38381556666667	True	n/a	n/a	n/a	n/a
S200309	Conflict_Resolution	LEFT	LEFT	475.97339999993	633.3333346	n/a	n/a	2020-03-09 13:32:55.009292	2020-03-09 13:32:55.692382	35	6.38381556666667	False	n/a	n/a	n/a	n/a
S200309	Conflict_Resolution	LEFT	LEFT	343.201299999919	1166.666669	n/a	n/a	2020-03-09 13:32:56.878029	2020-03-09 13:32:57.428564	36	6.38381556666667	False	n/a	n/a	n/a	n/a
S200309	Conflict_Resolution	LEFT	LEFT	303.361699999869	950.0000019	n/a	n/a	2020-03-09 13:32:58.397752	2020-03-09 13:32:58.909006	37	6.38381556666667	False	n/a	n/a	n/a	n/a
S200309	Conflict_Resolution	LEFT	RIGHT	450.186199999962	1466.6666696	n/a	n/a	2020-03-09 13:33:00.394554	2020-03-09 13:33:01.052467	38	6.38381556666667	True	n/a	n/a	n/a	n/a
S200309	Conflict_Resolution	RIGHT	RIGHT	453.861199999892	983.3333353	n/a	n/a	2020-03-09 13:33:02.055191	2020-03-09 13:33:02.716539	39	6.38381556666667	False	n/a	n/a	n/a	n/a
S200309	Conflict_Resolution	LEFT	LEFT	368.640599999935	1316.6666693	n/a	n/a	2020-03-09 13:33:04.052524	2020-03-09 13:33:04.628596	40	6.38381556666667	False	n/a	n/a	n/a	n/a
S200309	Conflict_Resolution	RIGHT	RIGHT	438.456300000098	1366.6666694	n/a	n/a	2020-03-09 13:33:06.014084	2020-03-09 13:33:06.660464	41	6.38381556666667	False	n/a	n/a	n/a	n/a
S200309	Conflict_Resolution	RIGHT	RIGHT	345.330899999908	700.0000014	n/a	n/a	2020-03-09 13:33:07.379522	2020-03-09 13:33:07.932953	42	6.38381556666667	False	n/a	n/a	n/a	n/a
S200309	Conflict_Resolution	LEFT	LEFT	383.235700000114	533.3333344	n/a	n/a	2020-03-09 13:33:08.485513	2020-03-09 13:33:09.076944	43	6.38381556666667	False	n/a	n/a	n/a	n/a
S200309	Conflict_Resolution	RIGHT	RIGHT	377.274499999885	1083.3333355	n/a	n/a	2020-03-09 13:33:10.179345	2020-03-09 13:33:10.764821	44	6.38381556666667	False	n/a	n/a	n/a	n/a
S200309	Conflict_Resolution	LEFT	LEFT	299.440200000163	1016.6666687	n/a	n/a	2020-03-09 13:33:11.801046	2020-03-09 13:33:12.308271	45	6.38381556666667	False	n/a	n/a	n/a	n/a
S200309	Conflict_Resolution	RIGHT	RIGHT	414.460200000121	1383.3333361	n/a	n/a	2020-03-09 13:33:13.710499	2020-03-09 13:33:14.333839	46	6.38381556666667	False	n/a	n/a	n/a	n/a
S200309	Conflict_Resolution	LEFT	LEFT	504.54979999995	683.3333347	n/a	n/a	2020-03-09 13:33:15.036649	2020-03-09 13:33:15.748580	47	6.38381556666667	True	n/a	n/a	n/a	n/a
S200309	Conflict_Resolution	LEFT	LEFT	780.003999999963	1216.6666691	n/a	n/a	2020-03-09 13:33:16.984956	2020-03-09 13:33:17.972455	48	6.38381556666667	True	n/a	n/a	n/a	n/a
S200309	Conflict_Resolution	RIGHT	RIGHT	553.104800000028	1100.0000022	n/a	n/a	2020-03-09 13:33:19.091565	2020-03-09 13:33:19.852532	49	6.38381556666667	True	n/a	n/a	n/a	n/a
S200309	Conflict_Resolution	RIGHT	RIGHT	370.782100000042	1433.3333362	n/a	n/a	2020-03-09 13:33:21.306020	2020-03-09 13:33:21.884424	50	6.38381556666667	False	n/a	n/a	n/a	n/a
S200309	Conflict_Resolution	RIGHT	LEFT	362.370499999997	1050.0000021	n/a	n/a	2020-03-09 13:33:22.954421	2020-03-09 13:33:23.524925	51	6.38381556666667	True	n/a	n/a	n/a	n/a
S200309	Conflict_Resolution	LEFT	LEFT	364.128500000106	1400.0000028	n/a	n/a	2020-03-09 13:33:24.944307	2020-03-09 13:33:25.516787	52	6.38381556666667	False	n/a	n/a	n/a	n/a
S200309	Conflict_Resolution	RIGHT	LEFT	386.426400000119	650.0000013	n/a	n/a	2020-03-09 13:33:26.186315	2020-03-09 13:33:26.781742	53	6.38381556666667	True	n/a	n/a	n/a	n/a
S200309	Conflict_Resolution	RIGHT	RIGHT	537.542799999983	850.0000017	RIGHT	-790.587	2020-03-09 13:33:27.651046	2020-03-09 13:33:28.396784	54	6.38381556666667	True	n/a	n/a	n/a	n/a
S200309	Conflict_Resolution	RIGHT	RIGHT	486.718500000052	1133.3333356	n/a	n/a	2020-03-09 13:33:29.550546	2020-03-09 13:33:30.245704	55	6.38381556666667	True	n/a	n/a	n/a	n/a
S200309	Conflict_Resolution	LEFT	LEFT	407.247900000129	1300.0000026	n/a	n/a	2020-03-09 13:33:31.565638	2020-03-09 13:33:32.181727	56	6.38381556666667	False	n/a	n/a	n/a	n/a
S200309	Conflict_Resolution	LEFT	LEFT	390.244200000097	783.3333349	n/a	n/a	2020-03-09 13:33:32.982839	2020-03-09 13:33:33.580949	57	6.38381556666667	False	n/a	n/a	n/a	n/a
S200309	Conflict_Resolution	RIGHT	RIGHT	509.992599999805	550.0000011	n/a	n/a	2020-03-09 13:33:34.151227	2020-03-09 13:33:34.869915	58	6.38381556666667	True	n/a	n/a	n/a	n/a
S200309	Conflict_Resolution	RIGHT	RIGHT	563.992999999982	583.3333345	n/a	n/a	2020-03-09 13:33:35.473252	2020-03-09 13:33:36.244558	59	6.38381556666667	True	n/a	n/a	n/a	n/a
S200309	Conflict_Resolution	RIGHT	RIGHT	620.019299999967	983.3333353	n/a	n/a	2020-03-09 13:33:37.249242	2020-03-09 13:33:38.077620	60	6.38381556666667	True	n/a	n/a	n/a	n/a
S200309	Conflict_Resolution	RIGHT	RIGHT	518.560499999921	1133.3333356	n/a	n/a	2020-03-09 13:33:39.230343	2020-03-09 13:33:39.956596	61	6.38381556666667	False	n/a	n/a	n/a	n/a
S200309	Conflict_Resolution	LEFT	RIGHT	360.612400000036	1350.0000027	n/a	n/a	2020-03-09 13:33:41.323933	2020-03-09 13:33:41.893499	62	6.38381556666667	True	n/a	n/a	n/a	n/a
S200309	Conflict_Resolution	RIGHT	RIGHT	559.347499999831	1416.6666695	n/a	n/a	2020-03-09 13:33:43.333565	2020-03-09 13:33:44.100162	63	6.38381556666667	True	n/a	n/a	n/a	n/a
S200309	Conflict_Resolution	LEFT	LEFT	495.093400000087	966.6666686	n/a	n/a	2020-03-09 13:33:45.086058	2020-03-09 13:33:45.788994	64	6.38381556666667	True	n/a	n/a	n/a	n/a
S200309	Conflict_Resolution	LEFT	LEFT	1004.81390000004	1200.0000024	n/a	n/a	2020-03-09 13:33:47.008514	2020-03-09 13:33:48.221067	65	6.38381556666667	True	n/a	n/a	n/a	n/a
S200309	Conflict_Resolution	LEFT	LEFT	529.168499999969	666.666668	n/a	n/a	2020-03-09 13:33:48.907852	2020-03-09 13:33:49.645713	66	6.38381556666667	False	n/a	n/a	n/a	n/a
S200309	Conflict_Resolution	LEFT	LEFT	633.619899999985	1500.000003	n/a	n/a	2020-03-09 13:33:51.163013	2020-03-09 13:33:52.004945	67	6.38381556666667	True	n/a	n/a	n/a	n/a
S200309	Conflict_Resolution	LEFT	LEFT	527.593600000046	1500.000003	n/a	n/a	2020-03-09 13:33:53.525754	2020-03-09 13:33:54.262103	68	6.38381556666667	False	n/a	n/a	n/a	n/a
S200309	Conflict_Resolution	RIGHT	RIGHT	451.397600000064	1183.3333357	n/a	n/a	2020-03-09 13:33:55.465589	2020-03-09 13:33:56.125842	69	6.38381556666667	False	n/a	n/a	n/a	n/a
S200309	Conflict_Resolution	RIGHT	RIGHT	362.029500000062	1233.3333358	n/a	n/a	2020-03-09 13:33:57.378694	2020-03-09 13:33:57.948847	70	6.38381556666667	False	n/a	n/a	n/a	n/a
S200309	Conflict_Resolution	RIGHT	RIGHT	497.621199999912	1266.6666692	n/a	n/a	2020-03-09 13:33:59.235791	2020-03-09 13:33:59.941911	71	6.38381556666667	True	n/a	n/a	n/a	n/a
S200309	Conflict_Resolution	RIGHT	RIGHT	376.054199999999	1283.3333359	n/a	n/a	2020-03-09 13:34:01.244391	2020-03-09 13:34:01.829074	72	6.38381556666667	True	n/a	n/a	n/a	n/a
S200309	Conflict_Resolution	RIGHT	RIGHT	338.242700000137	1050.0000021	n/a	n/a	2020-03-09 13:34:02.898321	2020-03-09 13:34:03.445048	73	6.38381556666667	False	n/a	n/a	n/a	n/a
S200309	Conflict_Resolution	LEFT	LEFT	453.8806999999	1366.6666694	n/a	n/a	2020-03-09 13:34:04.831313	2020-03-09 13:34:05.492446	74	6.38381556666667	False	n/a	n/a	n/a	n/a
S200309	Conflict_Resolution	LEFT	LEFT	327.603299999964	916.6666685	n/a	n/a	2020-03-09 13:34:06.429100	2020-03-09 13:34:06.964417	75	6.38381556666667	False	n/a	n/a	n/a	n/a
S200309	Conflict_Resolution	LEFT	LEFT	812.174099999993	866.6666684	n/a	n/a	2020-03-09 13:34:07.848336	2020-03-09 13:34:08.868519	76	6.38381556666667	True	n/a	n/a	n/a	n/a
S200309	Conflict_Resolution	RIGHT	RIGHT	477.999700000055	783.3333349	n/a	n/a	2020-03-09 13:34:09.671391	2020-03-09 13:34:10.356547	77	6.38381556666667	True	n/a	n/a	n/a	n/a
S200309	Conflict_Resolution	LEFT	LEFT	372.396299999991	1416.6666695	n/a	n/a	2020-03-09 13:34:11.792545	2020-03-09 13:34:12.372998	78	6.38381556666667	False	n/a	n/a	n/a	n/a
S200309	Conflict_Resolution	LEFT	LEFT	460.908500000187	1016.6666687	n/a	n/a	2020-03-09 13:34:13.407375	2020-03-09 13:34:14.078128	79	6.38381556666667	True	n/a	n/a	n/a	n/a
S200309	Conflict_Resolution	LEFT	LEFT	337.280300000202	850.0000017	n/a	n/a	2020-03-09 13:34:14.947783	2020-03-09 13:34:15.492944	80	6.38381556666667	False	n/a	n/a	n/a	n/a
S200309	Conflict_Resolution	RIGHT	RIGHT	485.061900000119	1183.3333357	n/a	n/a	2020-03-09 13:34:16.695950	2020-03-09 13:34:17.389885	81	6.38381556666667	True	n/a	n/a	n/a	n/a
S200309	Conflict_Resolution	RIGHT	RIGHT	399.407600000131	1316.6666693	n/a	n/a	2020-03-09 13:34:18.725575	2020-03-09 13:34:19.332189	82	6.38381556666667	True	n/a	n/a	n/a	n/a
S200309	Conflict_Resolution	LEFT	LEFT	363.570600000003	1266.6666692	n/a	n/a	2020-03-09 13:34:20.616672	2020-03-09 13:34:21.188255	83	6.38381556666667	False	n/a	n/a	n/a	n/a
S200309	Conflict_Resolution	RIGHT	RIGHT	709.606800000074	800.0000016	n/a	n/a	2020-03-09 13:34:22.007579	2020-03-09 13:34:22.926054	84	6.38381556666667	False	n/a	n/a	n/a	n/a
S200309	Conflict_Resolution	LEFT	LEFT	493.053099999997	1150.0000023	n/a	n/a	2020-03-09 13:34:24.095679	2020-03-09 13:34:24.798077	85	6.38381556666667	True	n/a	n/a	n/a	n/a
S200309	Conflict_Resolution	LEFT	LEFT	331.754699999919	1000.000002	n/a	n/a	2020-03-09 13:34:25.816646	2020-03-09 13:34:26.356389	86	6.38381556666667	False	n/a	n/a	n/a	n/a
S200309	Conflict_Resolution	LEFT	RIGHT	363.883299999998	816.6666683	n/a	n/a	2020-03-09 13:34:27.192803	2020-03-09 13:34:27.764960	87	6.38381556666667	True	n/a	n/a	n/a	n/a
S200309	Conflict_Resolution	LEFT	LEFT	389.835500000117	766.6666682	n/a	n/a	2020-03-09 13:34:28.551436	2020-03-09 13:34:29.148419	88	6.38381556666667	False	n/a	n/a	n/a	n/a
S200309	Conflict_Resolution	RIGHT	RIGHT	393.597600000021	1083.3333355	n/a	n/a	2020-03-09 13:34:30.251675	2020-03-09 13:34:30.852172	89	6.38381556666667	True	n/a	n/a	n/a	n/a
S200309	Conflict_Resolution	LEFT	LEFT	323.241800000005	1050.0000021	n/a	n/a	2020-03-09 13:34:31.921476	2020-03-09 13:34:32.453747	90	6.38381556666667	False	n/a	n/a	n/a	n/a
S200309	Conflict_Resolution	RIGHT	RIGHT	359.47729999998	1150.0000023	n/a	n/a	2020-03-09 13:34:33.620970	2020-03-09 13:34:34.188679	91	6.38381556666667	False	n/a	n/a	n/a	n/a
S200309	Conflict_Resolution	LEFT	RIGHT	410.08150000016	1266.6666692	n/a	n/a	2020-03-09 13:34:35.475097	2020-03-09 13:34:36.092832	92	6.38381556666667	True	n/a	n/a	n/a	n/a
S200309	Conflict_Resolution	LEFT	LEFT	439.452999999958	716.6666681	n/a	n/a	2020-03-09 13:34:36.829423	2020-03-09 13:34:37.476632	93	6.38381556666667	True	n/a	n/a	n/a	n/a
S200309	Conflict_Resolution	RIGHT	RIGHT	458.241599999837	683.3333347	n/a	n/a	2020-03-09 13:34:38.179003	2020-03-09 13:34:38.844243	94	6.38381556666667	False	n/a	n/a	n/a	n/a
S200309	Conflict_Resolution	RIGHT	RIGHT	399.879499999997	1333.333336	n/a	n/a	2020-03-09 13:34:40.197565	2020-03-09 13:34:40.804817	95	6.38381556666667	False	n/a	n/a	n/a	n/a
S200309	Conflict_Resolution	LEFT	LEFT	336.318399999982	1116.6666689	n/a	n/a	2020-03-09 13:34:41.941074	2020-03-09 13:34:42.486125	96	6.38381556666667	False	n/a	n/a	n/a	n/a
S200309	Conflict_Resolution	LEFT	LEFT	420.984600000111	1366.6666694	n/a	n/a	2020-03-09 13:34:43.872124	2020-03-09 13:34:44.501096	97	6.38381556666667	True	n/a	n/a	n/a	n/a
S200309	Conflict_Resolution	LEFT	LEFT	283.048300000019	1450.0000029	n/a	n/a	2020-03-09 13:34:45.969681	2020-03-09 13:34:46.460619	98	6.38381556666667	False	n/a	n/a	n/a	n/a
S200309	Conflict_Resolution	LEFT	LEFT	350.024200000007	583.3333345	n/a	n/a	2020-03-09 13:34:47.063001	2020-03-09 13:34:47.620523	99	6.38381556666667	False	n/a	n/a	n/a	n/a
S200309	Conflict_Resolution	RIGHT	RIGHT	378.097900000057	1483.3333363	n/a	n/a	2020-03-09 13:34:49.122841	2020-03-09 13:34:49.708337	100	6.38381556666667	False	n/a	n/a	n/a	n/a
S200309	Conflict_Resolution	LEFT	LEFT	491.567400000122	1450.0000029	n/a	n/a	2020-03-09 13:34:51.177386	2020-03-09 13:34:51.876526	101	6.38381556666667	True	n/a	n/a	n/a	n/a
S200309	Conflict_Resolution	RIGHT	RIGHT	542.321899999934	1000.000002	n/a	n/a	2020-03-09 13:34:52.894850	2020-03-09 13:34:53.644878	102	6.38381556666667	True	n/a	n/a	n/a	n/a
S200309	Conflict_Resolution	RIGHT	RIGHT	441.713899999968	1233.3333358	n/a	n/a	2020-03-09 13:34:54.898600	2020-03-09 13:34:55.548465	103	6.38381556666667	True	n/a	n/a	n/a	n/a
S200309	Conflict_Resolution	RIGHT	RIGHT	495.129700000007	1383.3333361	n/a	n/a	2020-03-09 13:34:56.949747	2020-03-09 13:34:57.652232	104	6.38381556666667	True	n/a	n/a	n/a	n/a
S200309	Conflict_Resolution	LEFT	LEFT	475.22210000011	1050.0000021	n/a	n/a	2020-03-09 13:34:58.721137	2020-03-09 13:34:59.404433	105	6.38381556666667	True	n/a	n/a	n/a	n/a
S200309	Conflict_Resolution	RIGHT	RIGHT	345.806700000139	883.3333351	n/a	n/a	2020-03-09 13:35:00.306577	2020-03-09 13:35:00.860233	106	6.38381556666667	False	n/a	n/a	n/a	n/a
S200309	Conflict_Resolution	RIGHT	RIGHT	314.551999999821	1100.0000022	n/a	n/a	2020-03-09 13:35:01.978559	2020-03-09 13:35:02.501146	107	6.38381556666667	False	n/a	n/a	n/a	n/a
S200309	Conflict_Resolution	LEFT	LEFT	472.662599999921	683.3333347	n/a	n/a	2020-03-09 13:35:03.204269	2020-03-09 13:35:03.884529	108	6.38381556666667	False	n/a	n/a	n/a	n/a
S200309	Conflict_Resolution	LEFT	RIGHT	352.975799999967	666.666668	n/a	n/a	2020-03-09 13:35:04.571730	2020-03-09 13:35:05.132501	109	6.38381556666667	True	n/a	n/a	n/a	n/a
S200309	Conflict_Resolution	LEFT	LEFT	455.727100000104	733.3333348	n/a	n/a	2020-03-09 13:35:05.884683	2020-03-09 13:35:06.549910	110	6.38381556666667	True	n/a	n/a	n/a	n/a
S200309	Conflict_Resolution	LEFT	LEFT	370.849700000008	1416.6666695	n/a	n/a	2020-03-09 13:35:07.986391	2020-03-09 13:35:08.565155	111	6.38381556666667	True	n/a	n/a	n/a	n/a
S200309	Conflict_Resolution	RIGHT	RIGHT	776.062400000001	500.000001	n/a	n/a	2020-03-09 13:35:09.084351	2020-03-09 13:35:10.068180	112	6.38381556666667	True	n/a	n/a	n/a	n/a
S200309	Conflict_Resolution	RIGHT	RIGHT	372.399599999881	1266.6666692	n/a	n/a	2020-03-09 13:35:11.352534	2020-03-09 13:35:11.934075	113	6.38381556666667	False	n/a	n/a	n/a	n/a
S200309	Conflict_Resolution	LEFT	RIGHT	345.429299999978	1250.0000025	n/a	n/a	2020-03-09 13:35:13.203247	2020-03-09 13:35:13.756410	114	6.38381556666667	True	n/a	n/a	n/a	n/a
S200309	Conflict_Resolution	RIGHT	RIGHT	767.102999999906	950.0000019	n/a	n/a	2020-03-09 13:35:14.725662	2020-03-09 13:35:15.701008	115	6.38381556666667	True	n/a	n/a	n/a	n/a
S200309	Conflict_Resolution	LEFT	LEFT	328.882900000053	1100.0000022	n/a	n/a	2020-03-09 13:35:16.820148	2020-03-09 13:35:17.356298	116	6.38381556666667	False	n/a	n/a	n/a	n/a
S200309	Conflict_Resolution	LEFT	LEFT	351.159999999936	1150.0000023	n/a	n/a	2020-03-09 13:35:18.525930	2020-03-09 13:35:19.085045	117	6.38381556666667	False	n/a	n/a	n/a	n/a
S200309	Conflict_Resolution	RIGHT	RIGHT	521.426199999951	1283.3333359	n/a	n/a	2020-03-09 13:35:20.387060	2020-03-09 13:35:21.116939	118	6.38381556666667	False	n/a	n/a	n/a	n/a
S200309	Conflict_Resolution	RIGHT	RIGHT	381.903599999987	533.3333344	n/a	n/a	2020-03-09 13:35:21.670971	2020-03-09 13:35:22.262032	119	6.38381556666667	False	n/a	n/a	n/a	n/a
S200309	Conflict_Resolution	LEFT	LEFT	491.519200000084	1000.000002	n/a	n/a	2020-03-09 13:35:23.281273	2020-03-09 13:35:23.981948	120	6.38381556666667	True	n/a	n/a	n/a	n/a
S200309	Conflict_Resolution	RIGHT	RIGHT	517.053000000033	933.3333352	n/a	n/a	2020-03-09 13:35:24.935411	2020-03-09 13:35:25.661028	121	6.38381556666667	True	n/a	n/a	n/a	n/a
S200309	Conflict_Resolution	RIGHT	RIGHT	516.486800000166	600.0000012	n/a	n/a	2020-03-09 13:35:26.279979	2020-03-09 13:35:27.005745	122	6.38381556666667	True	n/a	n/a	n/a	n/a
S200309	Conflict_Resolution	LEFT	LEFT	471.643799999811	1300.0000026	n/a	n/a	2020-03-09 13:35:28.324810	2020-03-09 13:35:29.005092	123	6.38381556666667	True	n/a	n/a	n/a	n/a
S200309	Conflict_Resolution	RIGHT	RIGHT	415.287399999897	733.3333348	n/a	n/a	2020-03-09 13:35:29.757432	2020-03-09 13:35:30.381719	124	6.38381556666667	False	n/a	n/a	n/a	n/a
S200309	Conflict_Resolution	RIGHT	RIGHT	391.406299999971	950.0000019	n/a	n/a	2020-03-09 13:35:31.349500	2020-03-09 13:35:31.949102	125	6.38381556666667	False	n/a	n/a	n/a	n/a
S200309	Conflict_Resolution	RIGHT	LEFT	512.262300000202	883.3333351	n/a	n/a	2020-03-09 13:35:32.852269	2020-03-09 13:35:33.573628	126	6.38381556666667	True	n/a	n/a	n/a	n/a
S200309	Conflict_Resolution	RIGHT	RIGHT	529.192899999998	1466.6666696	n/a	n/a	2020-03-09 13:35:35.059181	2020-03-09 13:35:35.796916	127	6.38381556666667	True	n/a	n/a	n/a	n/a
S200309	Conflict_Resolution	LEFT	LEFT	856.992499999933	900.0000018	n/a	n/a	2020-03-09 13:35:36.716167	2020-03-09 13:35:37.780972	128	6.38381556666667	True	n/a	n/a	n/a	n/a
S200309	Conflict_Resolution	LEFT	LEFT	413.70239999992	1166.666669	n/a	n/a	2020-03-09 13:35:38.967401	2020-03-09 13:35:39.589828	129	6.38381556666667	True	n/a	n/a	n/a	n/a
S200309	Conflict_Resolution	RIGHT	RIGHT	345.41820000004	900.0000018	n/a	n/a	2020-03-09 13:35:40.507059	2020-03-09 13:35:41.060578	130	6.38381556666667	False	n/a	n/a	n/a	n/a
S200309	Conflict_Resolution	LEFT	LEFT	361.582400000088	1466.6666696	n/a	n/a	2020-03-09 13:35:42.547477	2020-03-09 13:35:43.117968	131	6.38381556666667	False	n/a	n/a	n/a	n/a
S200309	Conflict_Resolution	LEFT	LEFT	416.421599999921	1100.0000022	n/a	n/a	2020-03-09 13:35:44.236391	2020-03-09 13:35:44.860730	132	6.38381556666667	True	n/a	n/a	n/a	n/a
S200309	Conflict_Resolution	LEFT	LEFT	375.594899999896	916.6666685	n/a	n/a	2020-03-09 13:35:45.797292	2020-03-09 13:35:46.380586	133	6.38381556666667	True	n/a	n/a	n/a	n/a
S200309	Conflict_Resolution	LEFT	LEFT	460.595199999943	616.6666679	n/a	n/a	2020-03-09 13:35:47.015881	2020-03-09 13:35:47.684932	134	6.38381556666667	False	n/a	n/a	n/a	n/a
S200309	Conflict_Resolution	LEFT	LEFT	331.936999999925	816.6666683	n/a	n/a	2020-03-09 13:35:48.521109	2020-03-09 13:35:49.061682	135	6.38381556666667	False	n/a	n/a	n/a	n/a
S200309	Conflict_Resolution	LEFT	LEFT	370.106200000009	1250.0000025	n/a	n/a	2020-03-09 13:35:50.330564	2020-03-09 13:35:50.908503	136	6.38381556666667	False	n/a	n/a	n/a	n/a
S200309	Conflict_Resolution	RIGHT	RIGHT	356.663499999968	1000.000002	n/a	n/a	2020-03-09 13:35:51.928552	2020-03-09 13:35:52.493034	137	6.38381556666667	False	n/a	n/a	n/a	n/a
S200309	Conflict_Resolution	RIGHT	RIGHT	488.329700000122	533.3333344	n/a	n/a	2020-03-09 13:35:53.044283	2020-03-09 13:35:53.740198	138	6.38381556666667	True	n/a	n/a	n/a	n/a
S200309	Conflict_Resolution	RIGHT	RIGHT	341.289299999971	600.0000012	n/a	n/a	2020-03-09 13:35:54.359078	2020-03-09 13:35:54.909002	139	6.38381556666667	False	n/a	n/a	n/a	n/a
S200309	Conflict_Resolution	LEFT	RIGHT	295.926999999892	1116.6666689	n/a	n/a	2020-03-09 13:35:56.045127	2020-03-09 13:35:56.548710	140	6.38381556666667	True	n/a	n/a	n/a	n/a
S200309	Conflict_Resolution	RIGHT	RIGHT	520.779300000186	900.0000018	n/a	n/a	2020-03-09 13:35:57.467621	2020-03-09 13:35:58.196737	141	6.38381556666667	True	n/a	n/a	n/a	n/a
S200309	Conflict_Resolution	RIGHT	RIGHT	405.414399999927	583.3333345	n/a	n/a	2020-03-09 13:35:58.799549	2020-03-09 13:35:59.412174	142	6.38381556666667	False	n/a	n/a	n/a	n/a
S200309	Conflict_Resolution	RIGHT	RIGHT	303.008399999953	550.0000011	n/a	n/a	2020-03-09 13:35:59.981408	2020-03-09 13:36:00.492622	143	6.38381556666667	False	n/a	n/a	n/a	n/a
S200309	Conflict_Resolution	RIGHT	RIGHT	523.499399999992	1033.3333354	n/a	n/a	2020-03-09 13:36:01.544899	2020-03-09 13:36:02.276982	144	6.38381556666667	True	n/a	n/a	n/a	n/a
S200309	Conflict_Resolution	RIGHT	RIGHT	439.80160000001	500.000001	n/a	n/a	2020-03-09 13:36:02.797029	2020-03-09 13:36:03.444642	145	6.38381556666667	False	n/a	n/a	n/a	n/a
S200309	Conflict_Resolution	RIGHT	RIGHT	287.368400000105	933.3333352	n/a	n/a	2020-03-09 13:36:04.397099	2020-03-09 13:36:04.892899	146	6.38381556666667	False	n/a	n/a	n/a	n/a
S200309	Conflict_Resolution	RIGHT	RIGHT	335.533500000111	1316.6666693	n/a	n/a	2020-03-09 13:36:06.229740	2020-03-09 13:36:06.773090	147	6.38381556666667	False	n/a	n/a	n/a	n/a
S200309	Conflict_Resolution	RIGHT	RIGHT	426.497199999858	633.3333346	n/a	n/a	2020-03-09 13:36:07.426298	2020-03-09 13:36:08.061053	148	6.38381556666667	True	n/a	n/a	n/a	n/a
S200309	Conflict_Resolution	LEFT	LEFT	418.863699999974	866.6666684	n/a	n/a	2020-03-09 13:36:08.945887	2020-03-09 13:36:09.573810	149	6.38381556666667	False	n/a	n/a	n/a	n/a
S200309	Conflict_Resolution	LEFT	LEFT	335.522999999966	900.0000018	n/a	n/a	2020-03-09 13:36:10.493168	2020-03-09 13:36:11.036925	150	6.38381556666667	False	n/a	n/a	n/a	n/a
S200309	Conflict_Resolution	LEFT	LEFT	487.722299999859	516.6666677	n/a	n/a	2020-03-09 13:36:11.572869	2020-03-09 13:36:12.268562	151	6.38381556666667	True	n/a	n/a	n/a	n/a
S200309	Conflict_Resolution	RIGHT	RIGHT	346.594299999879	650.0000013	n/a	n/a	2020-03-09 13:36:12.938126	2020-03-09 13:36:13.493158	152	6.38381556666667	False	n/a	n/a	n/a	n/a
S200309	Conflict_Resolution	RIGHT	RIGHT	323.687500000005	1216.6666691	n/a	n/a	2020-03-09 13:36:14.729064	2020-03-09 13:36:15.260213	153	6.38381556666667	False	n/a	n/a	n/a	n/a
S200309	Conflict_Resolution	LEFT	LEFT	614.436800000021	766.6666682	n/a	n/a	2020-03-09 13:36:16.046095	2020-03-09 13:36:16.868212	154	6.38381556666667	True	n/a	n/a	n/a	n/a
S200309	Conflict_Resolution	RIGHT	RIGHT	461.360799999966	833.333335	n/a	n/a	2020-03-09 13:36:17.719205	2020-03-09 13:36:18.388600	155	6.38381556666667	False	n/a	n/a	n/a	n/a
S200309	Conflict_Resolution	RIGHT	RIGHT	315.08789999998	850.0000017	n/a	n/a	2020-03-09 13:36:19.257946	2020-03-09 13:36:19.781773	156	6.38381556666667	False	n/a	n/a	n/a	n/a
S200309	Conflict_Resolution	LEFT	LEFT	357.743000000028	783.3333349	n/a	n/a	2020-03-09 13:36:20.582905	2020-03-09 13:36:21.148989	157	6.38381556666667	True	n/a	n/a	n/a	n/a
S200309	Conflict_Resolution	RIGHT	RIGHT	332.125400000223	633.3333346	n/a	n/a	2020-03-09 13:36:21.800082	2020-03-09 13:36:22.340238	158	6.38381556666667	False	n/a	n/a	n/a	n/a
S200309	Conflict_Resolution	LEFT	RIGHT	315.512500000068	850.0000017	n/a	n/a	2020-03-09 13:36:23.209512	2020-03-09 13:36:23.733099	159	6.38381556666667	True	n/a	n/a	n/a	n/a
S200309	Conflict_Resolution	RIGHT	RIGHT	542.609000000084	1150.0000023	n/a	n/a	2020-03-09 13:36:24.901750	2020-03-09 13:36:25.652889	160	6.38381556666667	True	n/a	n/a	n/a	n/a
