"Participant"	"Task"	"Stimulus_Side"	"Response"	"RT"	"ITI"	"Previous_Response"	"Previous_RT"	"Stop_Signal"	"Stop_Signal_RT"	"Conflict"	"Cue_Response"	"Cue_Response_RT"	"Trial_Onset"	"Trial_End"	"Trial_Order"	"Duration"
"S201210"	"Conflict_Resolution"	"RIGHT"	"RIGHT"	711.533900000063	1316.6666693	n/a	n/a	n/a	n/a	"True"	n/a	n/a	"2020-12-10 13:45:25.970035"	"2020-12-10 13:45:26.888128"	1	6.89667063333333
"S201210"	"Conflict_Resolution"	"RIGHT"	"RIGHT"	470.438599999966	983.3333353	n/a	n/a	n/a	n/a	"False"	n/a	n/a	"2020-12-10 13:45:27.890164"	"2020-12-10 13:45:28.568467"	2	6.89667063333333
"S201210"	"Conflict_Resolution"	"RIGHT"	"RIGHT"	579.435300000114	650.0000013	n/a	n/a	n/a	n/a	"True"	n/a	n/a	"2020-12-10 13:45:29.237358"	"2020-12-10 13:45:30.025565"	3	6.89667063333333
"S201210"	"Conflict_Resolution"	"RIGHT"	"RIGHT"	440.269400000034	550.0000011	n/a	n/a	n/a	n/a	"False"	n/a	n/a	"2020-12-10 13:45:30.592579"	"2020-12-10 13:45:31.241690"	4	6.89667063333333
"S201210"	"Conflict_Resolution"	"LEFT"	"LEFT"	477.561000000151	783.3333349	n/a	n/a	n/a	n/a	"True"	n/a	n/a	"2020-12-10 13:45:32.043510"	"2020-12-10 13:45:32.729758"	5	6.89667063333333
"S201210"	"Conflict_Resolution"	"LEFT"	"LEFT"	527.421000000004	916.6666685	n/a	n/a	n/a	n/a	"True"	n/a	n/a	"2020-12-10 13:45:33.665479"	"2020-12-10 13:45:34.401852"	6	6.89667063333333
"S201210"	"Conflict_Resolution"	"LEFT"	"LEFT"	398.332900000014	950.0000019	n/a	n/a	n/a	n/a	"False"	n/a	n/a	"2020-12-10 13:45:35.370866"	"2020-12-10 13:45:35.977788"	7	6.89667063333333
"S201210"	"Conflict_Resolution"	"RIGHT"	"RIGHT"	454.64939999988	1333.333336	n/a	n/a	n/a	n/a	"False"	n/a	n/a	"2020-12-10 13:45:37.330518"	"2020-12-10 13:45:37.993236"	8	6.89667063333333
"S201210"	"Conflict_Resolution"	"LEFT"	"LEFT"	450.307699999939	866.6666684	n/a	n/a	n/a	n/a	"False"	n/a	n/a	"2020-12-10 13:45:38.878868"	"2020-12-10 13:45:39.537086"	9	6.89667063333333
"S201210"	"Conflict_Resolution"	"LEFT"	"LEFT"	478.142299999945	766.6666682	n/a	n/a	n/a	n/a	"False"	n/a	n/a	"2020-12-10 13:45:40.322991"	"2020-12-10 13:45:41.009708"	10	6.89667063333333
"S201210"	"Conflict_Resolution"	"LEFT"	"LEFT"	381.187100000034	583.3333345	n/a	n/a	n/a	n/a	"False"	n/a	n/a	"2020-12-10 13:45:41.612097"	"2020-12-10 13:45:42.201672"	11	6.89667063333333
"S201210"	"Conflict_Resolution"	"LEFT"	"LEFT"	606.476500000099	1350.0000027	n/a	n/a	n/a	n/a	"True"	n/a	n/a	"2020-12-10 13:45:43.571174"	"2020-12-10 13:45:44.385500"	12	6.89667063333333
"S201210"	"Conflict_Resolution"	"LEFT"	"LEFT"	409.840199999962	1450.0000029	n/a	n/a	n/a	n/a	"False"	n/a	n/a	"2020-12-10 13:45:45.855189"	"2020-12-10 13:45:46.473149"	13	6.89667063333333
"S201210"	"Conflict_Resolution"	"LEFT"	"LEFT"	472.85399999987	1100.0000022	n/a	n/a	n/a	n/a	"False"	n/a	n/a	"2020-12-10 13:45:47.592701"	"2020-12-10 13:45:48.272371"	14	6.89667063333333
"S201210"	"Conflict_Resolution"	"RIGHT"	"RIGHT"	420.433500000172	1050.0000021	n/a	n/a	n/a	n/a	"False"	n/a	n/a	"2020-12-10 13:45:49.341559"	"2020-12-10 13:45:49.969865"	15	6.89667063333333
"S201210"	"Conflict_Resolution"	"RIGHT"	"RIGHT"	650.053699999944	850.0000017	n/a	n/a	n/a	n/a	"True"	n/a	n/a	"2020-12-10 13:45:50.838772"	"2020-12-10 13:45:51.697505"	16	6.89667063333333
"S201210"	"Conflict_Resolution"	"RIGHT"	"RIGHT"	587.021499999992	833.333335	n/a	n/a	n/a	n/a	"True"	n/a	n/a	"2020-12-10 13:45:52.550383"	"2020-12-10 13:45:53.345811"	17	6.89667063333333
"S201210"	"Conflict_Resolution"	"RIGHT"	"RIGHT"	492.37119999998	983.3333353	n/a	n/a	n/a	n/a	"True"	n/a	n/a	"2020-12-10 13:45:54.348974"	"2020-12-10 13:45:55.048694"	18	6.89667063333333
"S201210"	"Conflict_Resolution"	"RIGHT"	"RIGHT"	408.161800000016	733.3333348	n/a	n/a	n/a	n/a	"False"	n/a	n/a	"2020-12-10 13:45:55.801309"	"2020-12-10 13:45:56.417592"	19	6.89667063333333
"S201210"	"Conflict_Resolution"	"LEFT"	"LEFT"	419.740999999931	1016.6666687	n/a	n/a	n/a	n/a	"False"	n/a	n/a	"2020-12-10 13:45:57.453529"	"2020-12-10 13:45:58.081062"	20	6.89667063333333
"S201210"	"Conflict_Resolution"	"LEFT"	"LEFT"	457.988299999897	900.0000018	n/a	n/a	n/a	n/a	"False"	n/a	n/a	"2020-12-10 13:45:58.998797"	"2020-12-10 13:45:59.666568"	21	6.89667063333333
"S201210"	"Conflict_Resolution"	"RIGHT"	"RIGHT"	392.211999999972	1483.3333363	n/a	n/a	n/a	n/a	"False"	n/a	n/a	"2020-12-10 13:46:01.169228"	"2020-12-10 13:46:01.768491"	22	6.89667063333333
"S201210"	"Conflict_Resolution"	"LEFT"	"LEFT"	480.628400000114	1300.0000026	n/a	n/a	n/a	n/a	"True"	n/a	n/a	"2020-12-10 13:46:03.087971"	"2020-12-10 13:46:03.776073"	23	6.89667063333333
"S201210"	"Conflict_Resolution"	"RIGHT"	"RIGHT"	484.452000000147	1050.0000021	n/a	n/a	n/a	n/a	"True"	n/a	n/a	"2020-12-10 13:46:04.844804"	"2020-12-10 13:46:05.537223"	24	6.89667063333333
"S201210"	"Conflict_Resolution"	"LEFT"	"LEFT"	586.866100000179	1050.0000021	n/a	n/a	n/a	n/a	"True"	n/a	n/a	"2020-12-10 13:46:06.606069"	"2020-12-10 13:46:07.401941"	25	6.89667063333333
"S201210"	"Conflict_Resolution"	"LEFT"	"LEFT"	445.544300000165	1166.666669	n/a	n/a	n/a	n/a	"False"	n/a	n/a	"2020-12-10 13:46:08.587355"	"2020-12-10 13:46:09.241791"	26	6.89667063333333
"S201210"	"Conflict_Resolution"	"LEFT"	"LEFT"	557.352099999889	783.3333349	n/a	n/a	n/a	n/a	"False"	n/a	n/a	"2020-12-10 13:46:10.044158"	"2020-12-10 13:46:10.810606"	27	6.89667063333333
"S201210"	"Conflict_Resolution"	"LEFT"	"LEFT"	553.086200000052	866.6666684	n/a	n/a	n/a	n/a	"True"	n/a	n/a	"2020-12-10 13:46:11.695699"	"2020-12-10 13:46:12.457659"	28	6.89667063333333
"S201210"	"Conflict_Resolution"	"LEFT"	"LEFT"	387.863799999877	1216.6666691	n/a	n/a	n/a	n/a	"False"	n/a	n/a	"2020-12-10 13:46:13.693451"	"2020-12-10 13:46:14.288366"	29	6.89667063333333
"S201210"	"Conflict_Resolution"	"LEFT"	"LEFT"	515.195899999981	1466.6666696	n/a	n/a	n/a	n/a	"True"	n/a	n/a	"2020-12-10 13:46:15.773583"	"2020-12-10 13:46:16.496537"	30	6.89667063333333
"S201210"	"Conflict_Resolution"	"RIGHT"	"RIGHT"	495.566699999927	583.3333345	n/a	n/a	n/a	n/a	"False"	n/a	n/a	"2020-12-10 13:46:17.097005"	"2020-12-10 13:46:17.801557"	31	6.89667063333333
"S201210"	"Conflict_Resolution"	"RIGHT"	"RIGHT"	454.901099999915	1133.3333356	n/a	n/a	n/a	n/a	"True"	n/a	n/a	"2020-12-10 13:46:18.954571"	"2020-12-10 13:46:19.616290"	32	6.89667063333333
"S201210"	"Conflict_Resolution"	"RIGHT"	"RIGHT"	437.264899999946	1416.6666695	n/a	n/a	n/a	n/a	"False"	n/a	n/a	"2020-12-10 13:46:21.052106"	"2020-12-10 13:46:21.697778"	33	6.89667063333333
"S201210"	"Conflict_Resolution"	"LEFT"	"LEFT"	469.792300000108	1166.666669	n/a	n/a	n/a	n/a	"True"	n/a	n/a	"2020-12-10 13:46:22.883758"	"2020-12-10 13:46:23.561277"	34	6.89667063333333
"S201210"	"Conflict_Resolution"	"RIGHT"	"RIGHT"	460.514300000114	600.0000012	n/a	n/a	n/a	n/a	"False"	n/a	n/a	"2020-12-10 13:46:24.180193"	"2020-12-10 13:46:24.848018"	35	6.89667063333333
"S201210"	"Conflict_Resolution"	"RIGHT"	"RIGHT"	409.51229999996	700.0000014	n/a	n/a	n/a	n/a	"False"	n/a	n/a	"2020-12-10 13:46:25.568059"	"2020-12-10 13:46:26.185526"	36	6.89667063333333
"S201210"	"Conflict_Resolution"	"LEFT"	"LEFT"	449.009800000113	1316.6666693	n/a	n/a	n/a	n/a	"False"	n/a	n/a	"2020-12-10 13:46:27.520403"	"2020-12-10 13:46:28.176231"	37	6.89667063333333
"S201210"	"Conflict_Resolution"	"LEFT"	"LEFT"	373.844599999984	1000.000002	n/a	n/a	n/a	n/a	"False"	n/a	n/a	"2020-12-10 13:46:29.195075"	"2020-12-10 13:46:29.777086"	38	6.89667063333333
"S201210"	"Conflict_Resolution"	"RIGHT"	"RIGHT"	401.004099999909	500.000001	n/a	n/a	n/a	n/a	"False"	n/a	n/a	"2020-12-10 13:46:30.296238"	"2020-12-10 13:46:30.905622"	39	6.89667063333333
"S201210"	"Conflict_Resolution"	"RIGHT"	"RIGHT"	365.037600000051	1383.3333361	n/a	n/a	n/a	n/a	"False"	n/a	n/a	"2020-12-10 13:46:32.307784"	"2020-12-10 13:46:32.880975"	40	6.89667063333333
"S201210"	"Conflict_Resolution"	"RIGHT"	"RIGHT"	403.214599999956	633.3333346	n/a	n/a	n/a	n/a	"False"	n/a	n/a	"2020-12-10 13:46:33.533976"	"2020-12-10 13:46:34.144364"	41	6.89667063333333
"S201210"	"Conflict_Resolution"	"RIGHT"	"RIGHT"	332.996300000104	833.333335	n/a	n/a	n/a	n/a	"False"	n/a	n/a	"2020-12-10 13:46:34.996463"	"2020-12-10 13:46:35.536145"	42	6.89667063333333
"S201210"	"Conflict_Resolution"	"LEFT"	"LEFT"	489.220799999885	900.0000018	n/a	n/a	n/a	n/a	"True"	n/a	n/a	"2020-12-10 13:46:36.455691"	"2020-12-10 13:46:37.153205"	43	6.89667063333333
"S201210"	"Conflict_Resolution"	"RIGHT"	"RIGHT"	509.960299999875	1183.3333357	n/a	n/a	n/a	n/a	"True"	n/a	n/a	"2020-12-10 13:46:38.355545"	"2020-12-10 13:46:39.072125"	44	6.89667063333333
"S201210"	"Conflict_Resolution"	"RIGHT"	"RIGHT"	515.412800000149	1466.6666696	n/a	n/a	n/a	n/a	"True"	n/a	n/a	"2020-12-10 13:46:40.557653"	"2020-12-10 13:46:41.280318"	45	6.89667063333333
"S201210"	"Conflict_Resolution"	"RIGHT"	"RIGHT"	520.754399999987	900.0000018	n/a	n/a	n/a	n/a	"True"	n/a	n/a	"2020-12-10 13:46:42.200398"	"2020-12-10 13:46:42.929206"	46	6.89667063333333
"S201210"	"Conflict_Resolution"	"LEFT"	"LEFT"	416.63850000009	1266.6666692	n/a	n/a	n/a	n/a	"False"	n/a	n/a	"2020-12-10 13:46:44.216892"	"2020-12-10 13:46:44.841216"	47	6.89667063333333
"S201210"	"Conflict_Resolution"	"RIGHT"	"RIGHT"	510.703500000091	933.3333352	n/a	n/a	n/a	n/a	"True"	n/a	n/a	"2020-12-10 13:46:45.794186"	"2020-12-10 13:46:46.512467"	48	6.89667063333333
"S201210"	"Conflict_Resolution"	"LEFT"	"LEFT"	395.377100000132	1050.0000021	n/a	n/a	n/a	n/a	"False"	n/a	n/a	"2020-12-10 13:46:47.582309"	"2020-12-10 13:46:48.185854"	49	6.89667063333333
"S201210"	"Conflict_Resolution"	"RIGHT"	"RIGHT"	575.023899999906	533.3333344	n/a	n/a	n/a	n/a	"True"	n/a	n/a	"2020-12-10 13:46:48.738508"	"2020-12-10 13:46:49.520404"	50	6.89667063333333
"S201210"	"Conflict_Resolution"	"LEFT"	"LEFT"	360.900899999933	716.6666681	n/a	n/a	n/a	n/a	"False"	n/a	n/a	"2020-12-10 13:46:50.255803"	"2020-12-10 13:46:50.825828"	51	6.89667063333333
"S201210"	"Conflict_Resolution"	"LEFT"	"LEFT"	607.501599999978	516.6666677	n/a	n/a	n/a	n/a	"False"	n/a	n/a	"2020-12-10 13:46:51.361384"	"2020-12-10 13:46:52.176782"	52	6.89667063333333
"S201210"	"Conflict_Resolution"	"LEFT"	"LEFT"	375.770600000124	966.6666686	n/a	n/a	n/a	n/a	"False"	n/a	n/a	"2020-12-10 13:46:53.161053"	"2020-12-10 13:46:53.745522"	53	6.89667063333333
"S201210"	"Conflict_Resolution"	"LEFT"	"LEFT"	375.810199999933	1116.6666689	n/a	n/a	n/a	n/a	"False"	n/a	n/a	"2020-12-10 13:46:54.881034"	"2020-12-10 13:46:55.465586"	54	6.89667063333333
"S201210"	"Conflict_Resolution"	"LEFT"	"LEFT"	397.733199999948	1366.6666694	n/a	n/a	n/a	n/a	"False"	n/a	n/a	"2020-12-10 13:46:56.851734"	"2020-12-10 13:46:57.457618"	55	6.89667063333333
"S201210"	"Conflict_Resolution"	"RIGHT"	"RIGHT"	381.77410000003	1150.0000023	n/a	n/a	n/a	n/a	"False"	n/a	n/a	"2020-12-10 13:46:58.627143"	"2020-12-10 13:46:59.217972"	56	6.89667063333333
"S201210"	"Conflict_Resolution"	"LEFT"	"LEFT"	462.424199999987	733.3333348	n/a	n/a	n/a	n/a	"False"	n/a	n/a	"2020-12-10 13:46:59.970921"	"2020-12-10 13:47:00.641806"	57	6.89667063333333
"S201210"	"Conflict_Resolution"	"LEFT"	"LEFT"	352.109800000107	1500.000003	n/a	n/a	n/a	n/a	"False"	n/a	n/a	"2020-12-10 13:47:02.161186"	"2020-12-10 13:47:02.721942"	58	6.89667063333333
"S201210"	"Conflict_Resolution"	"LEFT"	"LEFT"	530.747100000099	633.3333346	n/a	n/a	n/a	n/a	"True"	n/a	n/a	"2020-12-10 13:47:03.374707"	"2020-12-10 13:47:04.112143"	59	6.89667063333333
"S201210"	"Conflict_Resolution"	"RIGHT"	"RIGHT"	354.396299999962	1283.3333359	n/a	n/a	n/a	n/a	"False"	n/a	n/a	"2020-12-10 13:47:05.415146"	"2020-12-10 13:47:05.977642"	60	6.89667063333333
"S201210"	"Conflict_Resolution"	"LEFT"	"LEFT"	353.828600000043	1466.6666696	n/a	n/a	n/a	n/a	"False"	n/a	n/a	"2020-12-10 13:47:07.463271"	"2020-12-10 13:47:08.024289"	61	6.89667063333333
"S201210"	"Conflict_Resolution"	"RIGHT"	"RIGHT"	462.302299999919	1416.6666695	n/a	n/a	n/a	n/a	"True"	n/a	n/a	"2020-12-10 13:47:09.459996"	"2020-12-10 13:47:10.130837"	62	6.89667063333333
"S201210"	"Conflict_Resolution"	"RIGHT"	"RIGHT"	445.6682	750.0000015	n/a	n/a	n/a	n/a	"False"	n/a	n/a	"2020-12-10 13:47:10.899296"	"2020-12-10 13:47:11.553863"	63	6.89667063333333
"S201210"	"Conflict_Resolution"	"LEFT"	"LEFT"	507.612599999902	1016.6666687	n/a	n/a	n/a	n/a	"True"	n/a	n/a	"2020-12-10 13:47:12.589201"	"2020-12-10 13:47:13.304660"	64	6.89667063333333
"S201210"	"Conflict_Resolution"	"RIGHT"	"RIGHT"	404.654299999947	1033.3333354	n/a	n/a	n/a	n/a	"False"	n/a	n/a	"2020-12-10 13:47:14.355917"	"2020-12-10 13:47:14.968652"	65	6.89667063333333
"S201210"	"Conflict_Resolution"	"RIGHT"	"RIGHT"	381.579799999827	1000.000002	n/a	n/a	n/a	n/a	"False"	n/a	n/a	"2020-12-10 13:47:15.988005"	"2020-12-10 13:47:16.577530"	66	6.89667063333333
"S201210"	"Conflict_Resolution"	"LEFT"	"LEFT"	389.043900000161	1400.0000028	n/a	n/a	n/a	n/a	"True"	n/a	n/a	"2020-12-10 13:47:17.997094"	"2020-12-10 13:47:18.593317"	67	6.89667063333333
"S201210"	"Conflict_Resolution"	"LEFT"	"LEFT"	571.003300000029	850.0000017	n/a	n/a	n/a	n/a	"True"	n/a	n/a	"2020-12-10 13:47:19.462145"	"2020-12-10 13:47:20.242523"	68	6.89667063333333
"S201210"	"Conflict_Resolution"	"RIGHT"	"RIGHT"	450.129000000061	1233.3333358	n/a	n/a	n/a	n/a	"True"	n/a	n/a	"2020-12-10 13:47:21.494600"	"2020-12-10 13:47:22.152300"	69	6.89667063333333
"S201210"	"Conflict_Resolution"	"RIGHT"	"RIGHT"	529.535399999986	1083.3333355	n/a	n/a	n/a	n/a	"True"	n/a	n/a	"2020-12-10 13:47:23.255564"	"2020-12-10 13:47:23.992909"	70	6.89667063333333
"S201210"	"Conflict_Resolution"	"LEFT"	"LEFT"	415.096699999822	1150.0000023	n/a	n/a	n/a	n/a	"False"	n/a	n/a	"2020-12-10 13:47:25.161737"	"2020-12-10 13:47:25.785156"	71	6.89667063333333
"S201210"	"Conflict_Resolution"	"RIGHT"	"RIGHT"	449.493899999879	883.3333351	n/a	n/a	n/a	n/a	"True"	n/a	n/a	"2020-12-10 13:47:26.687343"	"2020-12-10 13:47:27.345826"	72	6.89667063333333
"S201210"	"Conflict_Resolution"	"RIGHT"	"RIGHT"	576.529599999958	1483.3333363	n/a	n/a	n/a	n/a	"True"	n/a	n/a	"2020-12-10 13:47:28.848982"	"2020-12-10 13:47:29.633409"	73	6.89667063333333
"S201210"	"Conflict_Resolution"	"RIGHT"	"RIGHT"	382.871099999875	950.0000019	n/a	n/a	n/a	n/a	"False"	n/a	n/a	"2020-12-10 13:47:30.602527"	"2020-12-10 13:47:31.193399"	74	6.89667063333333
"S201210"	"Conflict_Resolution"	"LEFT"	"LEFT"	481.359399999974	683.3333347	n/a	n/a	n/a	n/a	"True"	n/a	n/a	"2020-12-10 13:47:31.896125"	"2020-12-10 13:47:32.584243"	75	6.89667063333333
"S201210"	"Conflict_Resolution"	"RIGHT"	"RIGHT"	521.707699999979	1100.0000022	n/a	n/a	n/a	n/a	"True"	n/a	n/a	"2020-12-10 13:47:33.703054"	"2020-12-10 13:47:34.432055"	76	6.89667063333333
"S201210"	"Conflict_Resolution"	"RIGHT"	"RIGHT"	373.754999999846	1216.6666691	n/a	n/a	n/a	n/a	"False"	n/a	n/a	"2020-12-10 13:47:35.666979"	"2020-12-10 13:47:36.248405"	77	6.89667063333333
"S201210"	"Conflict_Resolution"	"LEFT"	"LEFT"	556.223199999977	1250.0000025	n/a	n/a	n/a	n/a	"True"	n/a	n/a	"2020-12-10 13:47:37.516575"	"2020-12-10 13:47:38.281750"	78	6.89667063333333
"S201210"	"Conflict_Resolution"	"LEFT"	"LEFT"	550.88150000006	1366.6666694	n/a	n/a	n/a	n/a	"True"	n/a	n/a	"2020-12-10 13:47:39.665720"	"2020-12-10 13:47:40.424337"	79	6.89667063333333
"S201210"	"Conflict_Resolution"	"LEFT"	"LEFT"	447.665599999937	1350.0000027	n/a	n/a	n/a	n/a	"False"	n/a	n/a	"2020-12-10 13:47:41.794005"	"2020-12-10 13:47:42.449559"	80	6.89667063333333
"S201210"	"Conflict_Resolution"	"LEFT"	"LEFT"	459.396199999901	633.3333346	n/a	n/a	n/a	n/a	"False"	n/a	n/a	"2020-12-10 13:47:43.101252"	"2020-12-10 13:47:43.769841"	81	6.89667063333333
"S201210"	"Conflict_Resolution"	"LEFT"	"LEFT"	437.560100000155	966.6666686	n/a	n/a	n/a	n/a	"True"	n/a	n/a	"2020-12-10 13:47:44.755973"	"2020-12-10 13:47:45.401545"	82	6.89667063333333
"S201210"	"Conflict_Resolution"	"RIGHT"	"RIGHT"	475.977000000057	1216.6666691	n/a	n/a	n/a	n/a	"True"	n/a	n/a	"2020-12-10 13:47:46.637496"	"2020-12-10 13:47:47.321675"	83	6.89667063333333
"S201210"	"Conflict_Resolution"	"LEFT"	"LEFT"	570.559000000003	666.666668	n/a	n/a	n/a	n/a	"False"	n/a	n/a	"2020-12-10 13:47:48.006013"	"2020-12-10 13:47:48.785122"	84	6.89667063333333
"S201210"	"Conflict_Resolution"	"RIGHT"	"RIGHT"	456.033500000103	533.3333344	n/a	n/a	n/a	n/a	"False"	n/a	n/a	"2020-12-10 13:47:49.337492"	"2020-12-10 13:47:50.000292"	85	6.89667063333333
"S201210"	"Conflict_Resolution"	"LEFT"	"LEFT"	523.004299999911	1266.6666692	n/a	n/a	n/a	n/a	"True"	n/a	n/a	"2020-12-10 13:47:51.286615"	"2020-12-10 13:47:52.017612"	86	6.89667063333333
"S201210"	"Conflict_Resolution"	"RIGHT"	"RIGHT"	410.423400000127	883.3333351	n/a	n/a	n/a	n/a	"False"	n/a	n/a	"2020-12-10 13:47:52.918276"	"2020-12-10 13:47:53.537611"	87	6.89667063333333
"S201210"	"Conflict_Resolution"	"RIGHT"	"RIGHT"	432.903900000156	1466.6666696	n/a	n/a	n/a	n/a	"False"	n/a	n/a	"2020-12-10 13:47:55.024316"	"2020-12-10 13:47:55.664467"	88	6.89667063333333
"S201210"	"Conflict_Resolution"	"LEFT"	"LEFT"	536.354299999857	766.6666682	n/a	n/a	n/a	n/a	"True"	n/a	n/a	"2020-12-10 13:47:56.449125"	"2020-12-10 13:47:57.193796"	89	6.89667063333333
"S201210"	"Conflict_Resolution"	"RIGHT"	"RIGHT"	376.641099999915	1083.3333355	n/a	n/a	n/a	n/a	"False"	n/a	n/a	"2020-12-10 13:47:58.295958"	"2020-12-10 13:47:58.881918"	90	6.89667063333333
"S201210"	"Conflict_Resolution"	"LEFT"	"LEFT"	477.977499999952	533.3333344	n/a	n/a	n/a	n/a	"False"	n/a	n/a	"2020-12-10 13:47:59.435121"	"2020-12-10 13:48:00.120897"	91	6.89667063333333
"S201210"	"Conflict_Resolution"	"LEFT"	"LEFT"	501.084800000172	1200.0000024	n/a	n/a	n/a	n/a	"True"	n/a	n/a	"2020-12-10 13:48:01.340384"	"2020-12-10 13:48:02.049607"	92	6.89667063333333
"S201210"	"Conflict_Resolution"	"LEFT"	"LEFT"	538.449299999911	1450.0000029	n/a	n/a	n/a	n/a	"True"	n/a	n/a	"2020-12-10 13:48:03.519232"	"2020-12-10 13:48:04.265930"	93	6.89667063333333
"S201210"	"Conflict_Resolution"	"LEFT"	"LEFT"	453.748900000164	950.0000019	n/a	n/a	n/a	n/a	"True"	n/a	n/a	"2020-12-10 13:48:05.235880"	"2020-12-10 13:48:05.897653"	94	6.89667063333333
"S201210"	"Conflict_Resolution"	"LEFT"	"LEFT"	515.504100000044	1416.6666695	n/a	n/a	n/a	n/a	"True"	n/a	n/a	"2020-12-10 13:48:07.333264"	"2020-12-10 13:48:08.057663"	95	6.89667063333333
"S201210"	"Conflict_Resolution"	"LEFT"	"LEFT"	392.53020000001	916.6666685	n/a	n/a	n/a	n/a	"False"	n/a	n/a	"2020-12-10 13:48:08.993464"	"2020-12-10 13:48:09.594576"	96	6.89667063333333
"S201210"	"Conflict_Resolution"	"LEFT"	"LEFT"	519.767300000012	1500.000003	n/a	n/a	n/a	n/a	"True"	n/a	n/a	"2020-12-10 13:48:11.113049"	"2020-12-10 13:48:11.841689"	97	6.89667063333333
"S201210"	"Conflict_Resolution"	"LEFT"	"LEFT"	485.881900000095	1150.0000023	n/a	n/a	n/a	n/a	"True"	n/a	n/a	"2020-12-10 13:48:13.011502"	"2020-12-10 13:48:13.704244"	98	6.89667063333333
"S201210"	"Conflict_Resolution"	"RIGHT"	"RIGHT"	558.672399999978	1383.3333361	n/a	n/a	n/a	n/a	"True"	n/a	n/a	"2020-12-10 13:48:15.106993"	"2020-12-10 13:48:15.873452"	99	6.89667063333333
"S201210"	"Conflict_Resolution"	"RIGHT"	"RIGHT"	726.366499999813	1150.0000023	n/a	n/a	n/a	n/a	"True"	n/a	n/a	"2020-12-10 13:48:17.042402"	"2020-12-10 13:48:17.977787"	100	6.89667063333333
"S201210"	"Conflict_Resolution"	"LEFT"	"LEFT"	440.531599999986	1066.6666688	n/a	n/a	n/a	n/a	"False"	n/a	n/a	"2020-12-10 13:48:19.064920"	"2020-12-10 13:48:19.713200"	101	6.89667063333333
"S201210"	"Conflict_Resolution"	"RIGHT"	"RIGHT"	351.089199999933	1366.6666694	n/a	n/a	n/a	n/a	"False"	n/a	n/a	"2020-12-10 13:48:21.099266"	"2020-12-10 13:48:21.658424"	102	6.89667063333333
"S201210"	"Conflict_Resolution"	"RIGHT"	"RIGHT"	590.518099999827	500.000001	n/a	n/a	n/a	n/a	"True"	n/a	n/a	"2020-12-10 13:48:22.179040"	"2020-12-10 13:48:22.977953"	103	6.89667063333333
"S201210"	"Conflict_Resolution"	"RIGHT"	"RIGHT"	404.387499999984	800.0000016	n/a	n/a	n/a	n/a	"False"	n/a	n/a	"2020-12-10 13:48:23.796763"	"2020-12-10 13:48:24.408184"	104	6.89667063333333
"S201210"	"Conflict_Resolution"	"RIGHT"	"RIGHT"	467.241399999921	1266.6666692	n/a	n/a	n/a	n/a	"True"	n/a	n/a	"2020-12-10 13:48:25.693550"	"2020-12-10 13:48:26.368629"	105	6.89667063333333
"S201210"	"Conflict_Resolution"	"LEFT"	"LEFT"	555.572399999846	1066.6666688	n/a	n/a	n/a	n/a	"True"	n/a	n/a	"2020-12-10 13:48:27.453318"	"2020-12-10 13:48:28.217154"	106	6.89667063333333
"S201210"	"Conflict_Resolution"	"RIGHT"	"RIGHT"	359.285500000169	1133.3333356	n/a	n/a	n/a	n/a	"False"	n/a	n/a	"2020-12-10 13:48:29.369781"	"2020-12-10 13:48:29.936249"	107	6.89667063333333
"S201210"	"Conflict_Resolution"	"LEFT"	"LEFT"	452.497099999846	1416.6666695	n/a	n/a	n/a	n/a	"False"	n/a	n/a	"2020-12-10 13:48:31.372751"	"2020-12-10 13:48:32.033679"	108	6.89667063333333
"S201210"	"Conflict_Resolution"	"LEFT"	"LEFT"	571.556999999984	616.6666679	n/a	n/a	n/a	n/a	"True"	n/a	n/a	"2020-12-10 13:48:32.669192"	"2020-12-10 13:48:33.449131"	109	6.89667063333333
"S201210"	"Conflict_Resolution"	"LEFT"	"LEFT"	436.039400000027	616.6666679	n/a	n/a	n/a	n/a	"False"	n/a	n/a	"2020-12-10 13:48:34.085160"	"2020-12-10 13:48:34.728437"	110	6.89667063333333
"S201210"	"Conflict_Resolution"	"LEFT"	"LEFT"	412.18959999992	816.6666683	n/a	n/a	n/a	n/a	"False"	n/a	n/a	"2020-12-10 13:48:35.564811"	"2020-12-10 13:48:36.184532"	111	6.89667063333333
"S201210"	"Conflict_Resolution"	"LEFT"	"LEFT"	473.13250000002	1300.0000026	n/a	n/a	n/a	n/a	"False"	n/a	n/a	"2020-12-10 13:48:37.503656"	"2020-12-10 13:48:38.185864"	112	6.89667063333333
"S201210"	"Conflict_Resolution"	"RIGHT"	"RIGHT"	586.095999999998	850.0000017	n/a	n/a	n/a	n/a	"False"	n/a	n/a	"2020-12-10 13:48:39.055543"	"2020-12-10 13:48:39.848425"	113	6.89667063333333
"S201210"	"Conflict_Resolution"	"RIGHT"	"RIGHT"	439.530399999967	950.0000019	n/a	n/a	n/a	n/a	"True"	n/a	n/a	"2020-12-10 13:48:40.817273"	"2020-12-10 13:48:41.465514"	114	6.89667063333333
"S201210"	"Conflict_Resolution"	"RIGHT"	"RIGHT"	444.263699999965	1000.000002	n/a	n/a	n/a	n/a	"True"	n/a	n/a	"2020-12-10 13:48:42.485238"	"2020-12-10 13:48:43.138489"	115	6.89667063333333
"S201210"	"Conflict_Resolution"	"LEFT"	"LEFT"	557.980900000075	733.3333348	n/a	n/a	n/a	n/a	"True"	n/a	n/a	"2020-12-10 13:48:43.891528"	"2020-12-10 13:48:44.656471"	116	6.89667063333333
"S201210"	"Conflict_Resolution"	"RIGHT"	"RIGHT"	371.924600000057	1433.3333362	n/a	n/a	n/a	n/a	"False"	n/a	n/a	"2020-12-10 13:48:46.109189"	"2020-12-10 13:48:46.689634"	117	6.89667063333333
"S201210"	"Conflict_Resolution"	"RIGHT"	"RIGHT"	359.325800000079	1316.6666693	n/a	n/a	n/a	n/a	"False"	n/a	n/a	"2020-12-10 13:48:48.026197"	"2020-12-10 13:48:48.592338"	118	6.89667063333333
"S201210"	"Conflict_Resolution"	"RIGHT"	"RIGHT"	415.575399999852	550.0000011	n/a	n/a	n/a	n/a	"True"	n/a	n/a	"2020-12-10 13:48:49.161981"	"2020-12-10 13:48:49.784289"	119	6.89667063333333
"S201210"	"Conflict_Resolution"	"RIGHT"	"RIGHT"	537.999599999921	683.3333347	n/a	n/a	n/a	n/a	"True"	n/a	n/a	"2020-12-10 13:48:50.487512"	"2020-12-10 13:48:51.232765"	120	6.89667063333333
"S201210"	"Conflict_Resolution"	"RIGHT"	"RIGHT"	443.461700000171	600.0000012	n/a	n/a	n/a	n/a	"True"	n/a	n/a	"2020-12-10 13:48:51.854136"	"2020-12-10 13:48:52.504998"	121	6.89667063333333
"S201210"	"Conflict_Resolution"	"RIGHT"	"RIGHT"	352.922499999977	900.0000018	n/a	n/a	n/a	n/a	"False"	n/a	n/a	"2020-12-10 13:48:53.423843"	"2020-12-10 13:48:53.984091"	122	6.89667063333333
"S201210"	"Conflict_Resolution"	"RIGHT"	"RIGHT"	338.110700000016	1100.0000022	n/a	n/a	n/a	n/a	"False"	n/a	n/a	"2020-12-10 13:48:55.103257"	"2020-12-10 13:48:55.649622"	123	6.89667063333333
"S201210"	"Conflict_Resolution"	"RIGHT"	"RIGHT"	522.880700000087	633.3333346	n/a	n/a	n/a	n/a	"True"	n/a	n/a	"2020-12-10 13:48:56.302723"	"2020-12-10 13:48:57.033192"	124	6.89667063333333
"S201210"	"Conflict_Resolution"	"LEFT"	"LEFT"	387.16149999982	850.0000017	n/a	n/a	n/a	n/a	"False"	n/a	n/a	"2020-12-10 13:48:57.902343"	"2020-12-10 13:48:58.497748"	125	6.89667063333333
"S201210"	"Conflict_Resolution"	"LEFT"	"LEFT"	429.231399999935	566.6666678	n/a	n/a	n/a	n/a	"False"	n/a	n/a	"2020-12-10 13:48:59.083600"	"2020-12-10 13:48:59.721095"	126	6.89667063333333
"S201210"	"Conflict_Resolution"	"LEFT"	"LEFT"	505.255400000124	666.666668	n/a	n/a	n/a	n/a	"True"	n/a	n/a	"2020-12-10 13:49:00.407532"	"2020-12-10 13:49:01.121739"	127	6.89667063333333
"S201210"	"Conflict_Resolution"	"LEFT"	"LEFT"	503.750499999796	516.6666677	n/a	n/a	n/a	n/a	"True"	n/a	n/a	"2020-12-10 13:49:01.657578"	"2020-12-10 13:49:02.368325"	128	6.89667063333333
"S201210"	"Conflict_Resolution"	"LEFT"	"LEFT"	536.90830000005	1100.0000022	n/a	n/a	n/a	n/a	"True"	n/a	n/a	"2020-12-10 13:49:03.488209"	"2020-12-10 13:49:04.233199"	129	6.89667063333333
"S201210"	"Conflict_Resolution"	"LEFT"	"LEFT"	507.57990000011	1000.000002	n/a	n/a	n/a	n/a	"True"	n/a	n/a	"2020-12-10 13:49:05.253402"	"2020-12-10 13:49:05.969482"	130	6.89667063333333
"S201210"	"Conflict_Resolution"	"LEFT"	"LEFT"	660.70969999987	583.3333345	n/a	n/a	n/a	n/a	"True"	n/a	n/a	"2020-12-10 13:49:06.572488"	"2020-12-10 13:49:07.441248"	131	6.89667063333333
"S201210"	"Conflict_Resolution"	"RIGHT"	"RIGHT"	622.693100000106	1366.6666694	n/a	n/a	n/a	n/a	"True"	n/a	n/a	"2020-12-10 13:49:08.826093"	"2020-12-10 13:49:09.656404"	132	6.89667063333333
"S201210"	"Conflict_Resolution"	"LEFT"	"LEFT"	460.256399999935	1250.0000025	n/a	n/a	n/a	n/a	"False"	n/a	n/a	"2020-12-10 13:49:10.924498"	"2020-12-10 13:49:11.593936"	133	6.89667063333333
"S201210"	"Conflict_Resolution"	"RIGHT"	"RIGHT"	610.256899999968	1033.3333354	n/a	n/a	n/a	n/a	"True"	n/a	n/a	"2020-12-10 13:49:12.646923"	"2020-12-10 13:49:13.465337"	134	6.89667063333333
"S201210"	"Conflict_Resolution"	"RIGHT"	"RIGHT"	475.494300000037	1433.3333362	n/a	n/a	n/a	n/a	"True"	n/a	n/a	"2020-12-10 13:49:14.917255"	"2020-12-10 13:49:15.600239"	135	6.89667063333333
"S201210"	"Conflict_Resolution"	"RIGHT"	"RIGHT"	530.956800000013	683.3333347	n/a	n/a	n/a	n/a	"False"	n/a	n/a	"2020-12-10 13:49:16.301727"	"2020-12-10 13:49:17.039987"	136	6.89667063333333
"S201210"	"Conflict_Resolution"	"LEFT"	"LEFT"	673.148200000014	533.3333344	n/a	n/a	n/a	n/a	"True"	n/a	n/a	"2020-12-10 13:49:17.592387"	"2020-12-10 13:49:18.473927"	137	6.89667063333333
"S201210"	"Conflict_Resolution"	"LEFT"	"LEFT"	527.569699999958	1316.6666693	n/a	n/a	n/a	n/a	"True"	n/a	n/a	"2020-12-10 13:49:19.810040"	"2020-12-10 13:49:20.545328"	138	6.89667063333333
"S201210"	"Conflict_Resolution"	"LEFT"	"LEFT"	596.569300000056	816.6666683	n/a	n/a	n/a	n/a	"True"	n/a	n/a	"2020-12-10 13:49:21.380007"	"2020-12-10 13:49:22.185863"	139	6.89667063333333
"S201210"	"Conflict_Resolution"	"RIGHT"	"RIGHT"	606.380800000125	733.3333348	n/a	n/a	n/a	n/a	"True"	n/a	n/a	"2020-12-10 13:49:22.939050"	"2020-12-10 13:49:23.753237"	140	6.89667063333333
"S201210"	"Conflict_Resolution"	"LEFT"	"LEFT"	902.484699999832	566.6666678	n/a	n/a	n/a	n/a	"True"	n/a	n/a	"2020-12-10 13:49:24.338304"	"2020-12-10 13:49:25.449020"	141	6.89667063333333
"S201210"	"Conflict_Resolution"	"LEFT"	"LEFT"	696.558200000027	1116.6666689	n/a	n/a	n/a	n/a	"True"	n/a	n/a	"2020-12-10 13:49:26.584985"	"2020-12-10 13:49:27.489047"	142	6.89667063333333
"S201210"	"Conflict_Resolution"	"RIGHT"	"RIGHT"	631.56099999992	750.0000015	n/a	n/a	n/a	n/a	"True"	n/a	n/a	"2020-12-10 13:49:28.257280"	"2020-12-10 13:49:29.096097"	143	6.89667063333333
"S201210"	"Conflict_Resolution"	"LEFT"	"LEFT"	406.124300000101	1200.0000024	n/a	n/a	n/a	n/a	"False"	n/a	n/a	"2020-12-10 13:49:30.315262"	"2020-12-10 13:49:30.929604"	144	6.89667063333333
"S201210"	"Conflict_Resolution"	"RIGHT"	"RIGHT"	613.189499999862	583.3333345	n/a	n/a	n/a	n/a	"True"	n/a	n/a	"2020-12-10 13:49:31.531578"	"2020-12-10 13:49:32.352706"	145	6.89667063333333
"S201210"	"Conflict_Resolution"	"LEFT"	"LEFT"	435.019300000022	683.3333347	n/a	n/a	n/a	n/a	"False"	n/a	n/a	"2020-12-10 13:49:33.053528"	"2020-12-10 13:49:33.696782"	146	6.89667063333333
"S201210"	"Conflict_Resolution"	"RIGHT"	"RIGHT"	411.643500000082	1233.3333358	n/a	n/a	n/a	n/a	"False"	n/a	n/a	"2020-12-10 13:49:34.949807"	"2020-12-10 13:49:35.569357"	147	6.89667063333333
"S201210"	"Conflict_Resolution"	"RIGHT"	"RIGHT"	385.688099999925	1266.6666692	n/a	n/a	n/a	n/a	"False"	n/a	n/a	"2020-12-10 13:49:36.855806"	"2020-12-10 13:49:37.448850"	148	6.89667063333333
"S201210"	"Conflict_Resolution"	"RIGHT"	"RIGHT"	406.686600000057	933.3333352	n/a	n/a	n/a	n/a	"False"	n/a	n/a	"2020-12-10 13:49:38.402166"	"2020-12-10 13:49:39.017898"	149	6.89667063333333
"S201210"	"Conflict_Resolution"	"RIGHT"	"RIGHT"	468.843499999821	783.3333349	n/a	n/a	n/a	n/a	"True"	n/a	n/a	"2020-12-10 13:49:39.819807"	"2020-12-10 13:49:40.497488"	150	6.89667063333333
"S201210"	"Conflict_Resolution"	"RIGHT"	"RIGHT"	478.948799999898	1333.333336	n/a	n/a	n/a	n/a	"True"	n/a	n/a	"2020-12-10 13:49:41.850033"	"2020-12-10 13:49:42.536316"	151	6.89667063333333
"S201210"	"Conflict_Resolution"	"RIGHT"	"RIGHT"	437.817799999948	800.0000016	n/a	n/a	n/a	n/a	"True"	n/a	n/a	"2020-12-10 13:49:43.355694"	"2020-12-10 13:49:44.000368"	152	6.89667063333333
"S201210"	"Conflict_Resolution"	"LEFT"	"LEFT"	421.496599999955	1400.0000028	n/a	n/a	n/a	n/a	"False"	n/a	n/a	"2020-12-10 13:49:45.419392"	"2020-12-10 13:49:46.049740"	153	6.89667063333333
"S201210"	"Conflict_Resolution"	"RIGHT"	"RIGHT"	410.349100000076	650.0000013	n/a	n/a	n/a	n/a	"False"	n/a	n/a	"2020-12-10 13:49:46.718375"	"2020-12-10 13:49:47.337750"	154	6.89667063333333
"S201210"	"Conflict_Resolution"	"LEFT"	"LEFT"	537.674000000152	716.6666681	n/a	n/a	n/a	n/a	"True"	n/a	n/a	"2020-12-10 13:49:48.071822"	"2020-12-10 13:49:48.817661"	155	6.89667063333333
"S201210"	"Conflict_Resolution"	"RIGHT"	"RIGHT"	357.66620000004	783.3333349	n/a	n/a	n/a	n/a	"False"	n/a	n/a	"2020-12-10 13:49:49.618949"	"2020-12-10 13:49:50.185709"	156	6.89667063333333
"S201210"	"Conflict_Resolution"	"RIGHT"	"RIGHT"	480.767699999888	1283.3333359	n/a	n/a	n/a	n/a	"True"	n/a	n/a	"2020-12-10 13:49:51.488786"	"2020-12-10 13:49:52.177907"	157	6.89667063333333
"S201210"	"Conflict_Resolution"	"LEFT"	"LEFT"	459.51140000011	1216.6666691	n/a	n/a	n/a	n/a	"True"	n/a	n/a	"2020-12-10 13:49:53.413552"	"2020-12-10 13:49:54.080115"	158	6.89667063333333
"S201210"	"Conflict_Resolution"	"RIGHT"	"RIGHT"	351.963699999942	1183.3333357	n/a	n/a	n/a	n/a	"False"	n/a	n/a	"2020-12-10 13:49:55.281471"	"2020-12-10 13:49:55.841475"	159	6.89667063333333
"S201210"	"Conflict_Resolution"	"RIGHT"	"RIGHT"	464.71570000017	700.0000014	n/a	n/a	n/a	n/a	"True"	n/a	n/a	"2020-12-10 13:49:56.560630"	"2020-12-10 13:49:57.232866"	160	6.89667063333333
"S201210"	"Processing_Speed"	"RIGHT"	"DOWN"	423.750299999995	1116.6666689	n/a	n/a	n/a	n/a	n/a	n/a	n/a	"2020-12-10 13:32:33.505746"	"2020-12-10 13:32:34.154198"	1	2.19746241666667
"S201210"	"Processing_Speed"	"LEFT"	"DOWN"	251.944899999984	1466.6666696	n/a	n/a	n/a	n/a	n/a	n/a	n/a	"2020-12-10 13:32:35.629763"	"2020-12-10 13:32:36.089146"	2	2.19746241666667
"S201210"	"Processing_Speed"	"LEFT"	"DOWN"	285.322600000001	850.0000017	n/a	n/a	n/a	n/a	n/a	n/a	n/a	"2020-12-10 13:32:36.947820"	"2020-12-10 13:32:37.441881"	3	2.19746241666667
"S201210"	"Processing_Speed"	"RIGHT"	"DOWN"	266.773900000004	1500.000003	n/a	n/a	n/a	n/a	n/a	n/a	n/a	"2020-12-10 13:32:38.950241"	"2020-12-10 13:32:39.425601"	4	2.19746241666667
"S201210"	"Processing_Speed"	"LEFT"	"DOWN"	266.469799999982	1116.6666689	n/a	n/a	n/a	n/a	n/a	n/a	n/a	"2020-12-10 13:32:40.550367"	"2020-12-10 13:32:41.025128"	5	2.19746241666667
"S201210"	"Processing_Speed"	"RIGHT"	"DOWN"	296.646799999962	983.3333353	n/a	n/a	n/a	n/a	n/a	n/a	n/a	"2020-12-10 13:32:42.016582"	"2020-12-10 13:32:42.520280"	6	2.19746241666667
"S201210"	"Processing_Speed"	"LEFT"	"DOWN"	376.404600000001	600.0000012	n/a	n/a	n/a	n/a	n/a	n/a	n/a	"2020-12-10 13:32:43.129262"	"2020-12-10 13:32:43.713725"	7	2.19746241666667
"S201210"	"Processing_Speed"	"RIGHT"	"DOWN"	263.458200000002	1183.3333357	n/a	n/a	n/a	n/a	n/a	n/a	n/a	"2020-12-10 13:32:44.906074"	"2020-12-10 13:32:45.377000"	8	2.19746241666667
"S201210"	"Processing_Speed"	"RIGHT"	"DOWN"	308.620200000007	883.3333351	n/a	n/a	n/a	n/a	n/a	n/a	n/a	"2020-12-10 13:32:46.269095"	"2020-12-10 13:32:46.784648"	9	2.19746241666667
"S201210"	"Processing_Speed"	"LEFT"	"DOWN"	370.288800000026	1150.0000023	n/a	n/a	n/a	n/a	n/a	n/a	n/a	"2020-12-10 13:32:47.943383"	"2020-12-10 13:32:48.521219"	10	2.19746241666667
"S201210"	"Processing_Speed"	"RIGHT"	"DOWN"	282.122300000026	733.3333348	n/a	n/a	n/a	n/a	n/a	n/a	n/a	"2020-12-10 13:32:49.262899"	"2020-12-10 13:32:49.753619"	11	2.19746241666667
"S201210"	"Processing_Speed"	"RIGHT"	"DOWN"	326.671400000009	816.6666683	n/a	n/a	n/a	n/a	n/a	n/a	n/a	"2020-12-10 13:32:50.579146"	"2020-12-10 13:32:51.113110"	12	2.19746241666667
"S201210"	"Processing_Speed"	"RIGHT"	"DOWN"	240.550400000018	1400.0000028	n/a	n/a	n/a	n/a	n/a	n/a	n/a	"2020-12-10 13:32:52.521493"	"2020-12-10 13:32:52.970301"	13	2.19746241666667
"S201210"	"Processing_Speed"	"LEFT"	"DOWN"	291.362399999969	883.3333351	n/a	n/a	n/a	n/a	n/a	n/a	n/a	"2020-12-10 13:32:53.861997"	"2020-12-10 13:32:54.361693"	14	2.19746241666667
"S201210"	"Processing_Speed"	"RIGHT"	"DOWN"	257.219700000007	1150.0000023	n/a	n/a	n/a	n/a	n/a	n/a	n/a	"2020-12-10 13:32:55.519719"	"2020-12-10 13:32:55.985174"	15	2.19746241666667
"S201210"	"Processing_Speed"	"LEFT"	"DOWN"	217.735500000003	950.0000019	n/a	n/a	n/a	n/a	n/a	n/a	n/a	"2020-12-10 13:32:56.943327"	"2020-12-10 13:32:57.368375"	16	2.19746241666667
"S201210"	"Processing_Speed"	"RIGHT"	"DOWN"	291.050700000028	533.3333344	n/a	n/a	n/a	n/a	n/a	n/a	n/a	"2020-12-10 13:32:57.909934"	"2020-12-10 13:32:58.409915"	17	2.19746241666667
"S201210"	"Processing_Speed"	"LEFT"	"DOWN"	227.565099999993	666.666668	n/a	n/a	n/a	n/a	n/a	n/a	n/a	"2020-12-10 13:32:59.086059"	"2020-12-10 13:32:59.521679"	18	2.19746241666667
"S201210"	"Processing_Speed"	"LEFT"	"DOWN"	252.632800000015	1266.6666692	n/a	n/a	n/a	n/a	n/a	n/a	n/a	"2020-12-10 13:33:00.796799"	"2020-12-10 13:33:01.257650"	19	2.19746241666667
"S201210"	"Processing_Speed"	"RIGHT"	"DOWN"	247.319500000003	1366.6666694	n/a	n/a	n/a	n/a	n/a	n/a	n/a	"2020-12-10 13:33:02.634118"	"2020-12-10 13:33:03.088464"	20	2.19746241666667
"S201210"	"Processing_Speed"	"LEFT"	"DOWN"	235.355599999991	1300.0000026	n/a	n/a	n/a	n/a	n/a	n/a	n/a	"2020-12-10 13:33:04.398105"	"2020-12-10 13:33:04.841952"	21	2.19746241666667
"S201210"	"Processing_Speed"	"RIGHT"	"DOWN"	280.50189999999	950.0000019	n/a	n/a	n/a	n/a	n/a	n/a	n/a	"2020-12-10 13:33:05.801251"	"2020-12-10 13:33:06.289957"	22	2.19746241666667
"S201210"	"Processing_Speed"	"LEFT"	"DOWN"	223.588000000007	1183.3333357	n/a	n/a	n/a	n/a	n/a	n/a	n/a	"2020-12-10 13:33:07.481480"	"2020-12-10 13:33:07.912420"	23	2.19746241666667
"S201210"	"Processing_Speed"	"RIGHT"	"DOWN"	246.426600000007	850.0000017	n/a	n/a	n/a	n/a	n/a	n/a	n/a	"2020-12-10 13:33:08.771129"	"2020-12-10 13:33:09.225175"	24	2.19746241666667
"S201210"	"Processing_Speed"	"RIGHT"	"DOWN"	220.560799999987	1266.6666692	n/a	n/a	n/a	n/a	n/a	n/a	n/a	"2020-12-10 13:33:10.501061"	"2020-12-10 13:33:10.928368"	25	2.19746241666667
"S201210"	"Processing_Speed"	"RIGHT"	"DOWN"	246.910500000013	1433.3333362	n/a	n/a	n/a	n/a	n/a	n/a	n/a	"2020-12-10 13:33:12.370464"	"2020-12-10 13:33:12.824758"	26	2.19746241666667
"S201210"	"Processing_Speed"	"LEFT"	"DOWN"	260.222300000009	1500.000003	n/a	n/a	n/a	n/a	n/a	n/a	n/a	"2020-12-10 13:33:14.333102"	"2020-12-10 13:33:14.801537"	27	2.19746241666667
"S201210"	"Processing_Speed"	"RIGHT"	"DOWN"	243.095900000014	1333.333336	n/a	n/a	n/a	n/a	n/a	n/a	n/a	"2020-12-10 13:33:16.142964"	"2020-12-10 13:33:16.593522"	28	2.19746241666667
"S201210"	"Processing_Speed"	"LEFT"	"DOWN"	270.581500000048	816.6666683	n/a	n/a	n/a	n/a	n/a	n/a	n/a	"2020-12-10 13:33:17.418470"	"2020-12-10 13:33:17.897234"	29	2.19746241666667
"S201210"	"Processing_Speed"	"RIGHT"	"DOWN"	269.855500000006	633.3333346	n/a	n/a	n/a	n/a	n/a	n/a	n/a	"2020-12-10 13:33:18.539161"	"2020-12-10 13:33:19.017319"	30	2.19746241666667
"S201210"	"Processing_Speed"	"RIGHT"	"DOWN"	340.673199999969	666.666668	n/a	n/a	n/a	n/a	n/a	n/a	n/a	"2020-12-10 13:33:19.692518"	"2020-12-10 13:33:20.241540"	31	2.19746241666667
"S201210"	"Processing_Speed"	"LEFT"	"DOWN"	253.768799999989	633.3333346	n/a	n/a	n/a	n/a	n/a	n/a	n/a	"2020-12-10 13:33:20.883962"	"2020-12-10 13:33:21.344345"	32	2.19746241666667
"S201210"	"Processing_Speed"	"RIGHT"	"DOWN"	246.150400000033	1050.0000021	n/a	n/a	n/a	n/a	n/a	n/a	n/a	"2020-12-10 13:33:22.402664"	"2020-12-10 13:33:22.858477"	33	2.19746241666667
"S201210"	"Processing_Speed"	"RIGHT"	"DOWN"	242.571999999996	1300.0000026	n/a	n/a	n/a	n/a	n/a	n/a	n/a	"2020-12-10 13:33:24.166957"	"2020-12-10 13:33:24.616450"	34	2.19746241666667
"S201210"	"Processing_Speed"	"RIGHT"	"DOWN"	280.919100000006	783.3333349	n/a	n/a	n/a	n/a	n/a	n/a	n/a	"2020-12-10 13:33:25.408338"	"2020-12-10 13:33:25.897032"	35	2.19746241666667
"S201210"	"Processing_Speed"	"LEFT"	"DOWN"	228.499499999998	1083.3333355	n/a	n/a	n/a	n/a	n/a	n/a	n/a	"2020-12-10 13:33:26.988643"	"2020-12-10 13:33:27.425748"	36	2.19746241666667
"S201210"	"Processing_Speed"	"RIGHT"	"DOWN"	273.867699999983	500.000001	n/a	n/a	n/a	n/a	n/a	n/a	n/a	"2020-12-10 13:33:27.935435"	"2020-12-10 13:33:28.416143"	37	2.19746241666667
"S201210"	"Processing_Speed"	"LEFT"	"DOWN"	260.579199999995	500.000001	n/a	n/a	n/a	n/a	n/a	n/a	n/a	"2020-12-10 13:33:28.924392"	"2020-12-10 13:33:29.392421"	38	2.19746241666667
"S201210"	"Processing_Speed"	"LEFT"	"DOWN"	328.028800000027	1216.6666691	n/a	n/a	n/a	n/a	n/a	n/a	n/a	"2020-12-10 13:33:30.617557"	"2020-12-10 13:33:31.153302"	39	2.19746241666667
"S201210"	"Processing_Speed"	"LEFT"	"DOWN"	318.909499999961	1016.6666687	n/a	n/a	n/a	n/a	n/a	n/a	n/a	"2020-12-10 13:33:32.178102"	"2020-12-10 13:33:32.705149"	40	2.19746241666667
"S201210"	"Processing_Speed"	"LEFT"	"DOWN"	266.278600000021	916.6666685	n/a	n/a	n/a	n/a	n/a	n/a	n/a	"2020-12-10 13:33:33.631027"	"2020-12-10 13:33:34.104742"	41	2.19746241666667
"S201210"	"Processing_Speed"	"LEFT"	"DOWN"	279.647699999998	1400.0000028	n/a	n/a	n/a	n/a	n/a	n/a	n/a	"2020-12-10 13:33:35.513967"	"2020-12-10 13:33:36.001109"	42	2.19746241666667
"S201210"	"Processing_Speed"	"LEFT"	"DOWN"	259.299799999951	700.0000014	n/a	n/a	n/a	n/a	n/a	n/a	n/a	"2020-12-10 13:33:36.710174"	"2020-12-10 13:33:37.177920"	43	2.19746241666667
"S201210"	"Processing_Speed"	"RIGHT"	"DOWN"	235.85079999998	1466.6666696	n/a	n/a	n/a	n/a	n/a	n/a	n/a	"2020-12-10 13:33:38.652796"	"2020-12-10 13:33:39.097645"	44	2.19746241666667
"S201210"	"Processing_Speed"	"LEFT"	"DOWN"	248.616700000014	566.6666678	n/a	n/a	n/a	n/a	n/a	n/a	n/a	"2020-12-10 13:33:39.673087"	"2020-12-10 13:33:40.129377"	45	2.19746241666667
"S201210"	"Processing_Speed"	"RIGHT"	"DOWN"	222.744700000021	1216.6666691	n/a	n/a	n/a	n/a	n/a	n/a	n/a	"2020-12-10 13:33:41.354202"	"2020-12-10 13:33:41.785189"	46	2.19746241666667
"S201210"	"Processing_Speed"	"LEFT"	"DOWN"	289.934700000003	533.3333344	n/a	n/a	n/a	n/a	n/a	n/a	n/a	"2020-12-10 13:33:42.327216"	"2020-12-10 13:33:42.825925"	47	2.19746241666667
"S201210"	"Processing_Speed"	"RIGHT"	"DOWN"	302.261000000044	600.0000012	n/a	n/a	n/a	n/a	n/a	n/a	n/a	"2020-12-10 13:33:43.435491"	"2020-12-10 13:33:43.945695"	48	2.19746241666667
"S201210"	"Processing_Speed"	"LEFT"	"DOWN"	229.573300000027	1433.3333362	n/a	n/a	n/a	n/a	n/a	n/a	n/a	"2020-12-10 13:33:45.388095"	"2020-12-10 13:33:45.825491"	49	2.19746241666667
"S201210"	"Processing_Speed"	"RIGHT"	"DOWN"	238.499899999965	1016.6666687	n/a	n/a	n/a	n/a	n/a	n/a	n/a	"2020-12-10 13:33:46.850710"	"2020-12-10 13:33:47.297458"	50	2.19746241666667
"S201210"	"Processing_Speed"	"LEFT"	"DOWN"	224.593800000036	1366.6666694	n/a	n/a	n/a	n/a	n/a	n/a	n/a	"2020-12-10 13:33:48.672545"	"2020-12-10 13:33:49.104422"	51	2.19746241666667
"S201210"	"Processing_Speed"	"LEFT"	"DOWN"	238.651699999991	1050.0000021	n/a	n/a	n/a	n/a	n/a	n/a	n/a	"2020-12-10 13:33:50.162694"	"2020-12-10 13:33:50.609512"	52	2.19746241666667
"S201210"	"Processing_Speed"	"RIGHT"	"DOWN"	250.767699999983	916.6666685	n/a	n/a	n/a	n/a	n/a	n/a	n/a	"2020-12-10 13:33:51.535124"	"2020-12-10 13:33:51.993588"	53	2.19746241666667
"S201210"	"Processing_Speed"	"LEFT"	"DOWN"	239.704899999992	983.3333353	n/a	n/a	n/a	n/a	n/a	n/a	n/a	"2020-12-10 13:33:52.985230"	"2020-12-10 13:33:53.433076"	54	2.19746241666667
"S201210"	"Processing_Speed"	"RIGHT"	"DOWN"	220.559100000003	1083.3333355	n/a	n/a	n/a	n/a	n/a	n/a	n/a	"2020-12-10 13:33:54.525127"	"2020-12-10 13:33:54.952937"	55	2.19746241666667
"S201210"	"Processing_Speed"	"LEFT"	"DOWN"	232.475000000022	783.3333349	n/a	n/a	n/a	n/a	n/a	n/a	n/a	"2020-12-10 13:33:55.744366"	"2020-12-10 13:33:56.184441"	56	2.19746241666667
"S201210"	"Processing_Speed"	"RIGHT"	"DOWN"	289.426400000025	566.6666678	n/a	n/a	n/a	n/a	n/a	n/a	n/a	"2020-12-10 13:33:56.759671"	"2020-12-10 13:33:57.257242"	57	2.19746241666667
"S201210"	"Processing_Speed"	"LEFT"	"DOWN"	250.308000000018	733.3333348	n/a	n/a	n/a	n/a	n/a	n/a	n/a	"2020-12-10 13:33:57.999442"	"2020-12-10 13:33:58.457370"	58	2.19746241666667
"S201210"	"Processing_Speed"	"LEFT"	"DOWN"	241.821399999992	1333.333336	n/a	n/a	n/a	n/a	n/a	n/a	n/a	"2020-12-10 13:33:59.799312"	"2020-12-10 13:34:00.249597"	59	2.19746241666667
"S201210"	"Processing_Speed"	"RIGHT"	"DOWN"	267.026600000008	700.0000014	n/a	n/a	n/a	n/a	n/a	n/a	n/a	"2020-12-10 13:34:00.958276"	"2020-12-10 13:34:01.433095"	60	2.19746241666667
"S201210"	"Response_Inhibition"	"RIGHT"	"Time_Max_Exceeded"	1500.05033340002	683.3333347	n/a	n/a	n/a	n/a	n/a	n/a	n/a	"2020-12-10 13:37:42.108027"	"2020-12-10 13:37:43.611838"	1	6.09130421666667
"S201210"	"Response_Inhibition"	"RIGHT"	"RIGHT"	384.746700000051	1083.3333355	n/a	n/a	n/a	n/a	n/a	n/a	n/a	"2020-12-10 13:37:44.704940"	"2020-12-10 13:37:45.296443"	2	6.09130421666667
"S201210"	"Response_Inhibition"	"LEFT"	"LEFT"	387.110000000007	1500.000003	n/a	n/a	n/a	n/a	n/a	n/a	n/a	"2020-12-10 13:37:46.806185"	"2020-12-10 13:37:47.400998"	3	6.09130421666667
"S201210"	"Response_Inhibition"	"LEFT"	"LEFT"	377.602799999977	750.0000015	n/a	n/a	n/a	n/a	n/a	n/a	n/a	"2020-12-10 13:37:48.159548"	"2020-12-10 13:37:48.745146"	4	6.09130421666667
"S201210"	"Response_Inhibition"	"RIGHT"	"Time_Max_Exceeded"	1500.04823359992	750.0000015	n/a	n/a	n/a	n/a	n/a	n/a	n/a	"2020-12-10 13:37:49.504073"	"2020-12-10 13:37:51.006917"	5	6.09130421666667
"S201210"	"Response_Inhibition"	"RIGHT"	"RIGHT"	345.737900000017	983.3333353	n/a	n/a	n/a	n/a	n/a	n/a	n/a	"2020-12-10 13:37:51.999646"	"2020-12-10 13:37:52.552330"	6	6.09130421666667
"S201210"	"Response_Inhibition"	"RIGHT"	"RIGHT"	349.821600000041	650.0000013	n/a	n/a	n/a	n/a	n/a	n/a	n/a	"2020-12-10 13:37:53.211241"	"2020-12-10 13:37:53.769625"	7	6.09130421666667
"S201210"	"Response_Inhibition"	"LEFT"	"LEFT"	358.412000000044	1016.6666687	n/a	n/a	n/a	n/a	n/a	n/a	n/a	"2020-12-10 13:37:54.794915"	"2020-12-10 13:37:55.360378"	8	6.09130421666667
"S201210"	"Response_Inhibition"	"LEFT"	"LEFT"	335.859099999993	1183.3333357	n/a	n/a	n/a	n/a	n/a	n/a	n/a	"2020-12-10 13:37:56.553777"	"2020-12-10 13:37:57.096460"	9	6.09130421666667
"S201210"	"Response_Inhibition"	"RIGHT"	"RIGHT"	310.590199999979	850.0000017	n/a	n/a	n/a	n/a	n/a	n/a	n/a	"2020-12-10 13:37:57.954554"	"2020-12-10 13:37:58.473816"	10	6.09130421666667
"S201210"	"Response_Inhibition"	"LEFT"	"LEFT"	352.588933800088	1466.6666696	n/a	n/a	n/a	n/a	n/a	n/a	n/a	"2020-12-10 13:37:59.948991"	"2020-12-10 13:38:00.513904"	11	6.09130421666667
"S201210"	"Response_Inhibition"	"LEFT"	"LEFT"	444.496500000014	633.3333346	n/a	n/a	n/a	n/a	n/a	n/a	n/a	"2020-12-10 13:38:01.156737"	"2020-12-10 13:38:01.809038"	12	6.09130421666667
"S201210"	"Response_Inhibition"	"RIGHT"	"RIGHT"	750.250699999924	850.0000017	n/a	n/a	n/a	n/a	n/a	n/a	n/a	"2020-12-10 13:38:02.667761"	"2020-12-10 13:38:03.625751"	13	6.09130421666667
"S201210"	"Response_Inhibition"	"RIGHT"	"RIGHT"	576.01360000001	566.6666678	n/a	n/a	n/a	n/a	n/a	n/a	n/a	"2020-12-10 13:38:04.201200"	"2020-12-10 13:38:04.984368"	14	6.09130421666667
"S201210"	"Response_Inhibition"	"RIGHT"	"RIGHT"	312.66866719993	1316.6666693	n/a	n/a	n/a	n/a	n/a	n/a	n/a	"2020-12-10 13:38:06.309150"	"2020-12-10 13:38:06.833767"	15	6.09130421666667
"S201210"	"Response_Inhibition"	"RIGHT"	"RIGHT"	638.636899999938	816.6666683	n/a	n/a	n/a	n/a	n/a	n/a	n/a	"2020-12-10 13:38:07.658854"	"2020-12-10 13:38:08.504983"	16	6.09130421666667
"S201210"	"Response_Inhibition"	"LEFT"	"LEFT"	673.126599999932	1366.6666694	n/a	n/a	n/a	n/a	n/a	n/a	n/a	"2020-12-10 13:38:09.880504"	"2020-12-10 13:38:10.761608"	17	6.09130421666667
"S201210"	"Response_Inhibition"	"RIGHT"	"Time_Max_Exceeded"	1500.04713360007	1366.6666694	n/a	n/a	n/a	n/a	n/a	n/a	n/a	"2020-12-10 13:38:12.137383"	"2020-12-10 13:38:13.640324"	18	6.09130421666667
"S201210"	"Response_Inhibition"	"LEFT"	"LEFT"	594.123299999978	1333.333336	n/a	n/a	n/a	n/a	n/a	n/a	n/a	"2020-12-10 13:38:14.982890"	"2020-12-10 13:38:15.785002"	19	6.09130421666667
"S201210"	"Response_Inhibition"	"RIGHT"	"RIGHT"	751.128900000026	1016.6666687	n/a	n/a	n/a	n/a	n/a	n/a	n/a	"2020-12-10 13:38:16.809746"	"2020-12-10 13:38:17.769228"	20	6.09130421666667
"S201210"	"Response_Inhibition"	"LEFT"	"LEFT"	355.545333499968	1416.6666695	n/a	n/a	n/a	n/a	n/a	n/a	n/a	"2020-12-10 13:38:19.194124"	"2020-12-10 13:38:19.761015"	21	6.09130421666667
"S201210"	"Response_Inhibition"	"LEFT"	"Time_Max_Exceeded"	1500.05106679991	983.3333353	n/a	n/a	n/a	n/a	n/a	n/a	n/a	"2020-12-10 13:38:20.752847"	"2020-12-10 13:38:22.256672"	22	6.09130421666667
"S201210"	"Response_Inhibition"	"LEFT"	"Time_Max_Exceeded"	1500.07353380007	950.0000019	n/a	n/a	n/a	n/a	n/a	n/a	n/a	"2020-12-10 13:38:23.216865"	"2020-12-10 13:38:24.719871"	23	6.09130421666667
"S201210"	"Response_Inhibition"	"RIGHT"	"Time_Max_Exceeded"	1500.06690010002	1500.000003	n/a	n/a	n/a	n/a	n/a	n/a	n/a	"2020-12-10 13:38:26.229780"	"2020-12-10 13:38:27.733318"	24	6.09130421666667
"S201210"	"Response_Inhibition"	"LEFT"	"LEFT"	658.742799999914	616.6666679	n/a	n/a	n/a	n/a	n/a	n/a	n/a	"2020-12-10 13:38:28.358824"	"2020-12-10 13:38:29.225506"	25	6.09130421666667
"S201210"	"Response_Inhibition"	"RIGHT"	"Time_Max_Exceeded"	1500.0494668	800.0000016	n/a	n/a	n/a	n/a	n/a	n/a	n/a	"2020-12-10 13:38:30.034556"	"2020-12-10 13:38:31.537690"	26	6.09130421666667
"S201210"	"Response_Inhibition"	"LEFT"	"Time_Max_Exceeded"	1500.04850020003	1200.0000024	n/a	n/a	n/a	n/a	n/a	n/a	n/a	"2020-12-10 13:38:32.746758"	"2020-12-10 13:38:34.250138"	27	6.09130421666667
"S201210"	"Response_Inhibition"	"LEFT"	"LEFT"	649.116100000015	933.3333352	n/a	n/a	n/a	n/a	n/a	n/a	n/a	"2020-12-10 13:38:35.191837"	"2020-12-10 13:38:36.048994"	28	6.09130421666667
"S201210"	"Response_Inhibition"	"LEFT"	"LEFT"	681.779299999903	950.0000019	n/a	n/a	n/a	n/a	n/a	n/a	n/a	"2020-12-10 13:38:37.007443"	"2020-12-10 13:38:37.897158"	29	6.09130421666667
"S201210"	"Response_Inhibition"	"LEFT"	"LEFT"	671.101600000043	600.0000012	n/a	n/a	n/a	n/a	n/a	n/a	n/a	"2020-12-10 13:38:38.506010"	"2020-12-10 13:38:39.385941"	30	6.09130421666667
"S201210"	"Response_Inhibition"	"RIGHT"	"RIGHT"	924.844699999994	1433.3333362	n/a	n/a	n/a	n/a	n/a	n/a	n/a	"2020-12-10 13:38:40.828654"	"2020-12-10 13:38:41.961822"	31	6.09130421666667
"S201210"	"Response_Inhibition"	"LEFT"	"Time_Max_Exceeded"	1500.05426720001	783.3333349	n/a	n/a	n/a	n/a	n/a	n/a	n/a	"2020-12-10 13:38:42.754365"	"2020-12-10 13:38:44.257972"	32	6.09130421666667
"S201210"	"Response_Inhibition"	"LEFT"	"Time_Max_Exceeded"	1500.06333339998	1416.6666695	n/a	n/a	n/a	n/a	n/a	n/a	n/a	"2020-12-10 13:38:45.685564"	"2020-12-10 13:38:47.188431"	33	6.09130421666667
"S201210"	"Response_Inhibition"	"LEFT"	"Time_Max_Exceeded"	1500.05440020004	1316.6666693	n/a	n/a	n/a	n/a	n/a	n/a	n/a	"2020-12-10 13:38:48.515129"	"2020-12-10 13:38:50.018138"	34	6.09130421666667
"S201210"	"Response_Inhibition"	"RIGHT"	"RIGHT"	602.156000000036	1283.3333359	n/a	n/a	n/a	n/a	n/a	n/a	n/a	"2020-12-10 13:38:51.311068"	"2020-12-10 13:38:52.120533"	35	6.09130421666667
"S201210"	"Response_Inhibition"	"LEFT"	"Time_Max_Exceeded"	1500.07320060002	1050.0000021	n/a	n/a	n/a	n/a	n/a	n/a	n/a	"2020-12-10 13:38:53.179208"	"2020-12-10 13:38:54.683218"	36	6.09130421666667
"S201210"	"Response_Inhibition"	"RIGHT"	"RIGHT"	710.226699999907	583.3333345	n/a	n/a	n/a	n/a	n/a	n/a	n/a	"2020-12-10 13:38:55.275110"	"2020-12-10 13:38:56.193865"	37	6.09130421666667
"S201210"	"Response_Inhibition"	"LEFT"	"LEFT"	767.206399999964	566.6666678	n/a	n/a	n/a	n/a	n/a	n/a	n/a	"2020-12-10 13:38:56.770333"	"2020-12-10 13:38:57.745856"	38	6.09130421666667
"S201210"	"Response_Inhibition"	"RIGHT"	"Time_Max_Exceeded"	1500.05586669992	766.6666682	n/a	n/a	n/a	n/a	n/a	n/a	n/a	"2020-12-10 13:38:58.521739"	"2020-12-10 13:39:00.024644"	39	6.09130421666667
"S201210"	"Response_Inhibition"	"RIGHT"	"RIGHT"	694.024199999944	1216.6666691	n/a	n/a	n/a	n/a	n/a	n/a	n/a	"2020-12-10 13:39:01.251686"	"2020-12-10 13:39:02.153723"	40	6.09130421666667
"S201210"	"Response_Inhibition"	"RIGHT"	"RIGHT"	800.494600000093	533.3333344	n/a	n/a	n/a	n/a	n/a	n/a	n/a	"2020-12-10 13:39:02.696671"	"2020-12-10 13:39:03.705620"	41	6.09130421666667
"S201210"	"Response_Inhibition"	"RIGHT"	"RIGHT"	660.770800000023	1050.0000021	n/a	n/a	n/a	n/a	n/a	n/a	n/a	"2020-12-10 13:39:04.764167"	"2020-12-10 13:39:05.633938"	42	6.09130421666667
"S201210"	"Response_Inhibition"	"LEFT"	"Time_Max_Exceeded"	1500.05106679991	1300.0000026	n/a	n/a	n/a	n/a	n/a	n/a	n/a	"2020-12-10 13:39:06.942569"	"2020-12-10 13:39:08.446294"	43	6.09130421666667
"S201210"	"Response_Inhibition"	"RIGHT"	"RIGHT"	603.767500000004	933.3333352	n/a	n/a	n/a	n/a	n/a	n/a	n/a	"2020-12-10 13:39:09.388869"	"2020-12-10 13:39:10.201670"	44	6.09130421666667
"S201210"	"Response_Inhibition"	"LEFT"	"LEFT"	588.450200000011	866.6666684	n/a	n/a	n/a	n/a	n/a	n/a	n/a	"2020-12-10 13:39:11.076919"	"2020-12-10 13:39:11.873725"	45	6.09130421666667
"S201210"	"Response_Inhibition"	"RIGHT"	"RIGHT"	901.11330000002	1050.0000021	n/a	n/a	n/a	n/a	n/a	n/a	n/a	"2020-12-10 13:39:12.931960"	"2020-12-10 13:39:14.041094"	46	6.09130421666667
"S201210"	"Response_Inhibition"	"LEFT"	"LEFT"	573.574100000087	1033.3333354	n/a	n/a	n/a	n/a	n/a	n/a	n/a	"2020-12-10 13:39:15.083483"	"2020-12-10 13:39:15.865934"	47	6.09130421666667
"S201210"	"Response_Inhibition"	"LEFT"	"LEFT"	554.305800000066	1100.0000022	n/a	n/a	n/a	n/a	n/a	n/a	n/a	"2020-12-10 13:39:16.974691"	"2020-12-10 13:39:17.737640"	48	6.09130421666667
"S201210"	"Response_Inhibition"	"RIGHT"	"RIGHT"	546.304000000077	1316.6666693	n/a	n/a	n/a	n/a	n/a	n/a	n/a	"2020-12-10 13:39:19.062875"	"2020-12-10 13:39:19.817888"	49	6.09130421666667
"S201210"	"Response_Inhibition"	"LEFT"	"LEFT"	468.073899999922	1466.6666696	n/a	n/a	n/a	n/a	n/a	n/a	n/a	"2020-12-10 13:39:21.293301"	"2020-12-10 13:39:21.970729"	50	6.09130421666667
"S201210"	"Response_Inhibition"	"LEFT"	"LEFT"	486.513500000001	1166.666669	n/a	n/a	n/a	n/a	n/a	n/a	n/a	"2020-12-10 13:39:23.147217"	"2020-12-10 13:39:23.842756"	51	6.09130421666667
"S201210"	"Response_Inhibition"	"RIGHT"	"RIGHT"	492.820700000038	1400.0000028	n/a	n/a	n/a	n/a	n/a	n/a	n/a	"2020-12-10 13:39:25.252106"	"2020-12-10 13:39:25.952956"	52	6.09130421666667
"S201210"	"Response_Inhibition"	"RIGHT"	"Time_Max_Exceeded"	1500.04600040007	616.6666679	n/a	n/a	n/a	n/a	n/a	n/a	n/a	"2020-12-10 13:39:26.578454"	"2020-12-10 13:39:28.081715"	53	6.09130421666667
"S201210"	"Response_Inhibition"	"RIGHT"	"RIGHT"	376.433799999973	1300.0000026	n/a	n/a	n/a	n/a	n/a	n/a	n/a	"2020-12-10 13:39:29.392105"	"2020-12-10 13:39:29.976422"	54	6.09130421666667
"S201210"	"Response_Inhibition"	"LEFT"	"LEFT"	882.686499999977	716.6666681	n/a	n/a	n/a	n/a	n/a	n/a	n/a	"2020-12-10 13:39:30.702944"	"2020-12-10 13:39:31.793067"	55	6.09130421666667
"S201210"	"Response_Inhibition"	"RIGHT"	"Time_Max_Exceeded"	1500.05163390003	550.0000011	n/a	n/a	n/a	n/a	n/a	n/a	n/a	"2020-12-10 13:39:32.351828"	"2020-12-10 13:39:33.855359"	56	6.09130421666667
"S201210"	"Response_Inhibition"	"RIGHT"	"RIGHT"	353.1531000001	783.3333349	n/a	n/a	n/a	n/a	n/a	n/a	n/a	"2020-12-10 13:39:34.648521"	"2020-12-10 13:39:35.209578"	57	6.09130421666667
"S201210"	"Response_Inhibition"	"RIGHT"	"RIGHT"	538.569100000018	716.6666681	n/a	n/a	n/a	n/a	n/a	n/a	n/a	"2020-12-10 13:39:35.934659"	"2020-12-10 13:39:36.681726"	58	6.09130421666667
"S201210"	"Response_Inhibition"	"RIGHT"	"RIGHT"	535.56530000003	783.3333349	n/a	n/a	n/a	n/a	n/a	n/a	n/a	"2020-12-10 13:39:37.473897"	"2020-12-10 13:39:38.217694"	59	6.09130421666667
"S201210"	"Response_Inhibition"	"LEFT"	"Time_Max_Exceeded"	1500.0506667	1000.000002	n/a	n/a	n/a	n/a	n/a	n/a	n/a	"2020-12-10 13:39:39.226624"	"2020-12-10 13:39:40.729654"	60	6.09130421666667
"S201210"	"Response_Inhibition"	"LEFT"	"LEFT"	474.032599999987	900.0000018	n/a	n/a	n/a	n/a	n/a	n/a	n/a	"2020-12-10 13:39:41.639398"	"2020-12-10 13:39:42.321048"	61	6.09130421666667
"S201210"	"Response_Inhibition"	"RIGHT"	"RIGHT"	432.509999999979	1366.6666694	n/a	n/a	n/a	n/a	n/a	n/a	n/a	"2020-12-10 13:39:43.696890"	"2020-12-10 13:39:44.337193"	62	6.09130421666667
"S201210"	"Response_Inhibition"	"LEFT"	"LEFT"	524.138300000004	1283.3333359	n/a	n/a	n/a	n/a	n/a	n/a	n/a	"2020-12-10 13:39:45.628739"	"2020-12-10 13:39:46.361798"	63	6.09130421666667
"S201210"	"Response_Inhibition"	"RIGHT"	"RIGHT"	510.009200000013	633.3333346	n/a	n/a	n/a	n/a	n/a	n/a	n/a	"2020-12-10 13:39:47.003372"	"2020-12-10 13:39:47.721550"	64	6.09130421666667
"S201210"	"Response_Inhibition"	"LEFT"	"LEFT"	484.331600000019	1066.6666688	n/a	n/a	n/a	n/a	n/a	n/a	n/a	"2020-12-10 13:39:48.797316"	"2020-12-10 13:39:49.488569"	65	6.09130421666667
"S201210"	"Response_Inhibition"	"LEFT"	"LEFT"	414.314499999932	1050.0000021	n/a	n/a	n/a	n/a	n/a	n/a	n/a	"2020-12-10 13:39:50.546714"	"2020-12-10 13:39:51.168352"	66	6.09130421666667
"S201210"	"Response_Inhibition"	"RIGHT"	"RIGHT"	394.597299999987	950.0000019	n/a	n/a	n/a	n/a	n/a	n/a	n/a	"2020-12-10 13:39:52.127170"	"2020-12-10 13:39:52.729766"	67	6.09130421666667
"S201210"	"Response_Inhibition"	"RIGHT"	"RIGHT"	480.243733899979	683.3333347	n/a	n/a	n/a	n/a	n/a	n/a	n/a	"2020-12-10 13:39:53.421696"	"2020-12-10 13:39:54.112992"	68	6.09130421666667
"S201210"	"Response_Inhibition"	"RIGHT"	"Time_Max_Exceeded"	1500.05190019999	1000.000002	n/a	n/a	n/a	n/a	n/a	n/a	n/a	"2020-12-10 13:39:55.121704"	"2020-12-10 13:39:56.625248"	69	6.09130421666667
"S201210"	"Response_Inhibition"	"LEFT"	"LEFT"	416.62359999998	550.0000011	n/a	n/a	n/a	n/a	n/a	n/a	n/a	"2020-12-10 13:39:57.184866"	"2020-12-10 13:39:57.809926"	70	6.09130421666667
"S201210"	"Response_Inhibition"	"LEFT"	"LEFT"	555.230700000038	683.3333347	n/a	n/a	n/a	n/a	n/a	n/a	n/a	"2020-12-10 13:39:58.501590"	"2020-12-10 13:39:59.265551"	71	6.09130421666667
"S201210"	"Response_Inhibition"	"RIGHT"	"Time_Max_Exceeded"	1500.05490000001	1133.3333356	n/a	n/a	n/a	n/a	n/a	n/a	n/a	"2020-12-10 13:40:00.407772"	"2020-12-10 13:40:01.907821"	72	6.09130421666667
"S201210"	"Response_Inhibition"	"LEFT"	"LEFT"	337.203500000101	1266.6666692	n/a	n/a	n/a	n/a	n/a	n/a	n/a	"2020-12-10 13:40:03.183692"	"2020-12-10 13:40:03.728324"	73	6.09130421666667
"S201210"	"Response_Inhibition"	"RIGHT"	"RIGHT"	416.393599999992	1200.0000024	n/a	n/a	n/a	n/a	n/a	n/a	n/a	"2020-12-10 13:40:04.936750"	"2020-12-10 13:40:05.560339"	74	6.09130421666667
"S201210"	"Response_Inhibition"	"LEFT"	"LEFT"	555.720599999972	1316.6666693	n/a	n/a	n/a	n/a	n/a	n/a	n/a	"2020-12-10 13:40:06.885351"	"2020-12-10 13:40:07.649915"	75	6.09130421666667
"S201210"	"Response_Inhibition"	"LEFT"	"Time_Max_Exceeded"	1500.04876689995	700.0000014	n/a	n/a	n/a	n/a	n/a	n/a	n/a	"2020-12-10 13:40:08.358009"	"2020-12-10 13:40:09.862272"	76	6.09130421666667
"S201210"	"Response_Inhibition"	"LEFT"	"Time_Max_Exceeded"	1500.05583349999	766.6666682	n/a	n/a	n/a	n/a	n/a	n/a	n/a	"2020-12-10 13:40:10.637914"	"2020-12-10 13:40:12.140892"	77	6.09130421666667
"S201210"	"Response_Inhibition"	"RIGHT"	"RIGHT"	410.773000499949	516.6666677	n/a	n/a	n/a	n/a	n/a	n/a	n/a	"2020-12-10 13:40:12.667496"	"2020-12-10 13:40:13.289920"	78	6.09130421666667
"S201210"	"Response_Inhibition"	"LEFT"	"LEFT"	387.973199999919	833.333335	n/a	n/a	n/a	n/a	n/a	n/a	n/a	"2020-12-10 13:40:14.132946"	"2020-12-10 13:40:14.728175"	79	6.09130421666667
"S201210"	"Response_Inhibition"	"RIGHT"	"RIGHT"	705.253500000026	583.3333345	n/a	n/a	n/a	n/a	n/a	n/a	n/a	"2020-12-10 13:40:15.320069"	"2020-12-10 13:40:16.234258"	80	6.09130421666667
"S201210"	"Response_Inhibition"	"RIGHT"	"RIGHT"	1178.46109999994	500.000001	n/a	n/a	n/a	n/a	n/a	n/a	n/a	"2020-12-10 13:40:16.742901"	"2020-12-10 13:40:18.129197"	81	6.09130421666667
"S201210"	"Response_Inhibition"	"RIGHT"	"Time_Max_Exceeded"	1500.06123369993	1416.6666695	n/a	n/a	n/a	n/a	n/a	n/a	n/a	"2020-12-10 13:40:19.555588"	"2020-12-10 13:40:21.059423"	82	6.09130421666667
"S201210"	"Response_Inhibition"	"RIGHT"	"Time_Max_Exceeded"	1500.04926709998	1383.3333361	n/a	n/a	n/a	n/a	n/a	n/a	n/a	"2020-12-10 13:40:22.452624"	"2020-12-10 13:40:23.955887"	83	6.09130421666667
"S201210"	"Response_Inhibition"	"LEFT"	"Time_Max_Exceeded"	1500.04556690003	583.3333345	n/a	n/a	n/a	n/a	n/a	n/a	n/a	"2020-12-10 13:40:24.548466"	"2020-12-10 13:40:26.052199"	84	6.09130421666667
"S201210"	"Response_Inhibition"	"RIGHT"	"Time_Max_Exceeded"	1500.04666700003	1166.666669	n/a	n/a	n/a	n/a	n/a	n/a	n/a	"2020-12-10 13:40:27.227037"	"2020-12-10 13:40:28.731223"	85	6.09130421666667
"S201210"	"Response_Inhibition"	"LEFT"	"Time_Max_Exceeded"	1500.0620001	683.3333347	n/a	n/a	n/a	n/a	n/a	n/a	n/a	"2020-12-10 13:40:29.423389"	"2020-12-10 13:40:30.926525"	86	6.09130421666667
"S201210"	"Response_Inhibition"	"LEFT"	"Time_Max_Exceeded"	1500.05626709996	1100.0000022	n/a	n/a	n/a	n/a	n/a	n/a	n/a	"2020-12-10 13:40:32.035587"	"2020-12-10 13:40:33.539320"	87	6.09130421666667
"S201210"	"Response_Inhibition"	"LEFT"	"LEFT"	669.641200000001	1366.6666694	n/a	n/a	n/a	n/a	n/a	n/a	n/a	"2020-12-10 13:40:34.915784"	"2020-12-10 13:40:35.793099"	88	6.09130421666667
"S201210"	"Response_Inhibition"	"RIGHT"	"Time_Max_Exceeded"	1500.06090049999	950.0000019	n/a	n/a	n/a	n/a	n/a	n/a	n/a	"2020-12-10 13:40:36.751545"	"2020-12-10 13:40:38.254520"	89	6.09130421666667
"S201210"	"Response_Inhibition"	"RIGHT"	"RIGHT"	749.36439999999	666.666668	n/a	n/a	n/a	n/a	n/a	n/a	n/a	"2020-12-10 13:40:38.932038"	"2020-12-10 13:40:39.890648"	90	6.09130421666667
"S201210"	"Response_Inhibition"	"RIGHT"	"RIGHT"	763.911199999939	833.333335	n/a	n/a	n/a	n/a	n/a	n/a	n/a	"2020-12-10 13:40:40.733052"	"2020-12-10 13:40:41.705976"	91	6.09130421666667
"S201210"	"Response_Inhibition"	"RIGHT"	"Time_Max_Exceeded"	1500.05629999998	600.0000012	n/a	n/a	n/a	n/a	n/a	n/a	n/a	"2020-12-10 13:40:42.314978"	"2020-12-10 13:40:43.815270"	92	6.09130421666667
"S201210"	"Response_Inhibition"	"LEFT"	"LEFT"	774.524000000042	1450.0000029	n/a	n/a	n/a	n/a	n/a	n/a	n/a	"2020-12-10 13:40:45.275050"	"2020-12-10 13:40:46.257416"	93	6.09130421666667
"S201210"	"Response_Inhibition"	"LEFT"	"LEFT"	725.098099999968	633.3333346	n/a	n/a	n/a	n/a	n/a	n/a	n/a	"2020-12-10 13:40:46.900031"	"2020-12-10 13:40:47.833932"	94	6.09130421666667
"S201210"	"Response_Inhibition"	"RIGHT"	"Time_Max_Exceeded"	1500.09243339999	1033.3333354	n/a	n/a	n/a	n/a	n/a	n/a	n/a	"2020-12-10 13:40:48.876175"	"2020-12-10 13:40:50.379406"	95	6.09130421666667
"S201210"	"Response_Inhibition"	"RIGHT"	"RIGHT"	664.842000000021	700.0000014	n/a	n/a	n/a	n/a	n/a	n/a	n/a	"2020-12-10 13:40:51.088479"	"2020-12-10 13:40:51.961531"	96	6.09130421666667
"S201210"	"Response_Inhibition"	"RIGHT"	"RIGHT"	610.004300000014	733.3333348	n/a	n/a	n/a	n/a	n/a	n/a	n/a	"2020-12-10 13:40:52.703680"	"2020-12-10 13:40:53.521727"	97	6.09130421666667
"S201210"	"Response_Inhibition"	"RIGHT"	"RIGHT"	649.162799999999	1150.0000023	n/a	n/a	n/a	n/a	n/a	n/a	n/a	"2020-12-10 13:40:54.679697"	"2020-12-10 13:40:55.537647"	98	6.09130421666667
"S201210"	"Response_Inhibition"	"RIGHT"	"RIGHT"	779.6922	883.3333351	n/a	n/a	n/a	n/a	n/a	n/a	n/a	"2020-12-10 13:40:56.429716"	"2020-12-10 13:40:57.417676"	99	6.09130421666667
"S201210"	"Response_Inhibition"	"LEFT"	"Time_Max_Exceeded"	1500.05746669994	883.3333351	n/a	n/a	n/a	n/a	n/a	n/a	n/a	"2020-12-10 13:40:58.309018"	"2020-12-10 13:40:59.813547"	100	6.09130421666667
"S201210"	"Response_Inhibition"	"LEFT"	"LEFT"	1012.92130000002	733.3333348	n/a	n/a	n/a	n/a	n/a	n/a	n/a	"2020-12-10 13:41:00.556225"	"2020-12-10 13:41:01.777913"	101	6.09130421666667
"S201210"	"Response_Inhibition"	"RIGHT"	"RIGHT"	565.856100000019	1416.6666695	n/a	n/a	n/a	n/a	n/a	n/a	n/a	"2020-12-10 13:41:03.203769"	"2020-12-10 13:41:03.977671"	102	6.09130421666667
"S201210"	"Response_Inhibition"	"RIGHT"	"Time_Max_Exceeded"	1500.08330010007	1266.6666692	n/a	n/a	n/a	n/a	n/a	n/a	n/a	"2020-12-10 13:41:05.252851"	"2020-12-10 13:41:06.756710"	103	6.09130421666667
"S201210"	"Response_Inhibition"	"LEFT"	"LEFT"	550.33160000005	916.6666685	n/a	n/a	n/a	n/a	n/a	n/a	n/a	"2020-12-10 13:41:07.683257"	"2020-12-10 13:41:08.441910"	104	6.09130421666667
"S201210"	"Response_Inhibition"	"LEFT"	"LEFT"	577.453199999923	1133.3333356	n/a	n/a	n/a	n/a	n/a	n/a	n/a	"2020-12-10 13:41:09.583410"	"2020-12-10 13:41:10.369779"	105	6.09130421666667
"S201210"	"Response_Inhibition"	"RIGHT"	"RIGHT"	705.724499999974	733.3333348	n/a	n/a	n/a	n/a	n/a	n/a	n/a	"2020-12-10 13:41:11.111260"	"2020-12-10 13:41:12.025011"	106	6.09130421666667
"S201210"	"Response_Inhibition"	"LEFT"	"LEFT"	668.516599999975	1083.3333355	n/a	n/a	n/a	n/a	n/a	n/a	n/a	"2020-12-10 13:41:13.116988"	"2020-12-10 13:41:13.992440"	107	6.09130421666667
"S201210"	"Response_Inhibition"	"RIGHT"	"RIGHT"	562.285399999951	1150.0000023	n/a	n/a	n/a	n/a	n/a	n/a	n/a	"2020-12-10 13:41:15.151373"	"2020-12-10 13:41:15.920776"	108	6.09130421666667
"S201210"	"Response_Inhibition"	"RIGHT"	"RIGHT"	593.289300000038	1350.0000027	n/a	n/a	n/a	n/a	n/a	n/a	n/a	"2020-12-10 13:41:17.279803"	"2020-12-10 13:41:18.081690"	109	6.09130421666667
"S201210"	"Response_Inhibition"	"RIGHT"	"RIGHT"	928.121199999964	966.6666686	n/a	n/a	n/a	n/a	n/a	n/a	n/a	"2020-12-10 13:41:19.057230"	"2020-12-10 13:41:20.193832"	110	6.09130421666667
"S201210"	"Response_Inhibition"	"RIGHT"	"Time_Max_Exceeded"	1500.05200030001	916.6666685	n/a	n/a	n/a	n/a	n/a	n/a	n/a	"2020-12-10 13:41:21.118658"	"2020-12-10 13:41:22.622482"	111	6.09130421666667
"S201210"	"Response_Inhibition"	"LEFT"	"LEFT"	613.824699999896	1483.3333363	n/a	n/a	n/a	n/a	n/a	n/a	n/a	"2020-12-10 13:41:24.115768"	"2020-12-10 13:41:24.937791"	112	6.09130421666667
"S201210"	"Response_Inhibition"	"LEFT"	"LEFT"	591.232900000023	783.3333349	n/a	n/a	n/a	n/a	n/a	n/a	n/a	"2020-12-10 13:41:25.729544"	"2020-12-10 13:41:26.528473"	113	6.09130421666667
"S201210"	"Response_Inhibition"	"LEFT"	"Time_Max_Exceeded"	1500.05890059993	1150.0000023	n/a	n/a	n/a	n/a	n/a	n/a	n/a	"2020-12-10 13:41:27.687249"	"2020-12-10 13:41:29.190574"	114	6.09130421666667
"S201210"	"Response_Inhibition"	"RIGHT"	"RIGHT"	420.500700000048	1116.6666689	n/a	n/a	n/a	n/a	n/a	n/a	n/a	"2020-12-10 13:41:30.316642"	"2020-12-10 13:41:30.944987"	115	6.09130421666667
"S201210"	"Response_Inhibition"	"LEFT"	"Time_Max_Exceeded"	1500.05026720002	583.3333345	n/a	n/a	n/a	n/a	n/a	n/a	n/a	"2020-12-10 13:41:31.537422"	"2020-12-10 13:41:33.040874"	116	6.09130421666667
"S201210"	"Response_Inhibition"	"RIGHT"	"Time_Max_Exceeded"	1500.04656700007	1233.3333358	n/a	n/a	n/a	n/a	n/a	n/a	n/a	"2020-12-10 13:41:34.282914"	"2020-12-10 13:41:35.786118"	117	6.09130421666667
"S201210"	"Response_Inhibition"	"RIGHT"	"Time_Max_Exceeded"	1500.07753379995	1183.3333357	n/a	n/a	n/a	n/a	n/a	n/a	n/a	"2020-12-10 13:41:36.979299"	"2020-12-10 13:41:38.482213"	118	6.09130421666667
"S201210"	"Response_Inhibition"	"RIGHT"	"Time_Max_Exceeded"	1500.04700040006	1466.6666696	n/a	n/a	n/a	n/a	n/a	n/a	n/a	"2020-12-10 13:41:39.958060"	"2020-12-10 13:41:41.461258"	119	6.09130421666667
"S201210"	"Response_Inhibition"	"RIGHT"	"RIGHT"	750.220000000013	1100.0000022	n/a	n/a	n/a	n/a	n/a	n/a	n/a	"2020-12-10 13:41:42.571138"	"2020-12-10 13:41:43.529774"	120	6.09130421666667
"S201210"	"Response_Inhibition"	"LEFT"	"Time_Max_Exceeded"	1500.05540029997	1233.3333358	n/a	n/a	n/a	n/a	n/a	n/a	n/a	"2020-12-10 13:41:44.771951"	"2020-12-10 13:41:46.274908"	121	6.09130421666667
"S201210"	"Response_Inhibition"	"RIGHT"	"RIGHT"	535.618299999896	533.3333344	n/a	n/a	n/a	n/a	n/a	n/a	n/a	"2020-12-10 13:41:46.818072"	"2020-12-10 13:41:47.560425"	122	6.09130421666667
"S201210"	"Response_Inhibition"	"LEFT"	"LEFT"	565.698399999974	666.666668	n/a	n/a	n/a	n/a	n/a	n/a	n/a	"2020-12-10 13:41:48.235621"	"2020-12-10 13:41:49.008513"	123	6.09130421666667
"S201210"	"Response_Inhibition"	"LEFT"	"LEFT"	633.543400000008	733.3333348	n/a	n/a	n/a	n/a	n/a	n/a	n/a	"2020-12-10 13:41:49.751500"	"2020-12-10 13:41:50.593541"	124	6.09130421666667
"S201210"	"Response_Inhibition"	"RIGHT"	"RIGHT"	541.68459999994	633.3333346	n/a	n/a	n/a	n/a	n/a	n/a	n/a	"2020-12-10 13:41:51.235523"	"2020-12-10 13:41:51.985586"	125	6.09130421666667
"S201210"	"Response_Inhibition"	"LEFT"	"Time_Max_Exceeded"	1500.0483005	650.0000013	n/a	n/a	n/a	n/a	n/a	n/a	n/a	"2020-12-10 13:41:52.644454"	"2020-12-10 13:41:54.147858"	126	6.09130421666667
"S201210"	"Response_Inhibition"	"LEFT"	"LEFT"	563.134900000023	1216.6666691	n/a	n/a	n/a	n/a	n/a	n/a	n/a	"2020-12-10 13:41:55.374069"	"2020-12-10 13:41:56.145691"	127	6.09130421666667
"S201210"	"Response_Inhibition"	"LEFT"	"Time_Max_Exceeded"	1500.05290030004	533.3333344	n/a	n/a	n/a	n/a	n/a	n/a	n/a	"2020-12-10 13:41:56.687133"	"2020-12-10 13:41:58.190466"	128	6.09130421666667
"S201210"	"Response_Inhibition"	"RIGHT"	"RIGHT"	542.437199999995	1466.6666696	n/a	n/a	n/a	n/a	n/a	n/a	n/a	"2020-12-10 13:41:59.667091"	"2020-12-10 13:42:00.417662"	129	6.09130421666667
"S201210"	"Response_Inhibition"	"RIGHT"	"RIGHT"	486.67880000005	1216.6666691	n/a	n/a	n/a	n/a	n/a	n/a	n/a	"2020-12-10 13:42:01.643068"	"2020-12-10 13:42:02.337899"	130	6.09130421666667
"S201210"	"Response_Inhibition"	"LEFT"	"LEFT"	610.75029999995	500.000001	n/a	n/a	n/a	n/a	n/a	n/a	n/a	"2020-12-10 13:42:02.846608"	"2020-12-10 13:42:03.665740"	131	6.09130421666667
"S201210"	"Response_Inhibition"	"LEFT"	"LEFT"	533.806633900067	1350.0000027	n/a	n/a	n/a	n/a	n/a	n/a	n/a	"2020-12-10 13:42:05.023780"	"2020-12-10 13:42:05.768326"	132	6.09130421666667
"S201210"	"Response_Inhibition"	"LEFT"	"LEFT"	517.255200000022	1266.6666692	n/a	n/a	n/a	n/a	n/a	n/a	n/a	"2020-12-10 13:42:07.043945"	"2020-12-10 13:42:07.769549"	133	6.09130421666667
"S201210"	"Response_Inhibition"	"LEFT"	"LEFT"	694.449800000029	1216.6666691	n/a	n/a	n/a	n/a	n/a	n/a	n/a	"2020-12-10 13:42:08.994757"	"2020-12-10 13:42:09.897267"	134	6.09130421666667
"S201210"	"Response_Inhibition"	"LEFT"	"LEFT"	706.730999999991	1116.6666689	n/a	n/a	n/a	n/a	n/a	n/a	n/a	"2020-12-10 13:42:11.022807"	"2020-12-10 13:42:11.937556"	135	6.09130421666667
"S201210"	"Response_Inhibition"	"LEFT"	"LEFT"	613.728600000059	1433.3333362	n/a	n/a	n/a	n/a	n/a	n/a	n/a	"2020-12-10 13:42:13.379778"	"2020-12-10 13:42:14.201580"	136	6.09130421666667
"S201210"	"Response_Inhibition"	"LEFT"	"LEFT"	655.144599999971	1000.000002	n/a	n/a	n/a	n/a	n/a	n/a	n/a	"2020-12-10 13:42:15.210498"	"2020-12-10 13:42:16.073129"	137	6.09130421666667
"S201210"	"Response_Inhibition"	"RIGHT"	"RIGHT"	837.382700000035	1250.0000025	n/a	n/a	n/a	n/a	n/a	n/a	n/a	"2020-12-10 13:42:17.331610"	"2020-12-10 13:42:18.377912"	138	6.09130421666667
"S201210"	"Response_Inhibition"	"LEFT"	"LEFT"	357.355633700047	1150.0000023	n/a	n/a	n/a	n/a	n/a	n/a	n/a	"2020-12-10 13:42:19.536872"	"2020-12-10 13:42:20.105643"	139	6.09130421666667
"S201210"	"Response_Inhibition"	"LEFT"	"LEFT"	503.610300000105	1383.3333361	n/a	n/a	n/a	n/a	n/a	n/a	n/a	"2020-12-10 13:42:21.497749"	"2020-12-10 13:42:22.209857"	140	6.09130421666667
"S201210"	"Response_Inhibition"	"RIGHT"	"RIGHT"	690.876099999969	900.0000018	n/a	n/a	n/a	n/a	n/a	n/a	n/a	"2020-12-10 13:42:23.118433"	"2020-12-10 13:42:24.016347"	141	6.09130421666667
"S201210"	"Response_Inhibition"	"RIGHT"	"RIGHT"	696.275299999911	1000.000002	n/a	n/a	n/a	n/a	n/a	n/a	n/a	"2020-12-10 13:42:25.024826"	"2020-12-10 13:42:25.929502"	142	6.09130421666667
"S201210"	"Response_Inhibition"	"RIGHT"	"RIGHT"	651.957300000049	1483.3333363	n/a	n/a	n/a	n/a	n/a	n/a	n/a	"2020-12-10 13:42:27.421712"	"2020-12-10 13:42:28.281841"	143	6.09130421666667
"S201210"	"Response_Inhibition"	"LEFT"	"LEFT"	620.802199999957	1250.0000025	n/a	n/a	n/a	n/a	n/a	n/a	n/a	"2020-12-10 13:42:29.540830"	"2020-12-10 13:42:30.369605"	144	6.09130421666667
"S201210"	"Response_Inhibition"	"LEFT"	"LEFT"	548.999699999968	850.0000017	n/a	n/a	n/a	n/a	n/a	n/a	n/a	"2020-12-10 13:42:31.228401"	"2020-12-10 13:42:31.985152"	145	6.09130421666667
"S201210"	"Response_Inhibition"	"RIGHT"	"RIGHT"	349.226700000031	1450.0000029	n/a	n/a	n/a	n/a	n/a	n/a	n/a	"2020-12-10 13:42:33.444369"	"2020-12-10 13:42:34.001881"	146	6.09130421666667
"S201210"	"Response_Inhibition"	"LEFT"	"LEFT"	560.233399999902	966.6666686	n/a	n/a	n/a	n/a	n/a	n/a	n/a	"2020-12-10 13:42:34.976875"	"2020-12-10 13:42:35.745862"	147	6.09130421666667
"S201210"	"Response_Inhibition"	"LEFT"	"LEFT"	726.366799999937	800.0000016	n/a	n/a	n/a	n/a	n/a	n/a	n/a	"2020-12-10 13:42:36.554727"	"2020-12-10 13:42:37.489743"	148	6.09130421666667
"S201210"	"Response_Inhibition"	"LEFT"	"LEFT"	833.62569999997	533.3333344	n/a	n/a	n/a	n/a	n/a	n/a	n/a	"2020-12-10 13:42:38.031892"	"2020-12-10 13:42:39.073140"	149	6.09130421666667
"S201210"	"Response_Inhibition"	"RIGHT"	"Time_Max_Exceeded"	1500.09543360007	1066.6666688	n/a	n/a	n/a	n/a	n/a	n/a	n/a	"2020-12-10 13:42:40.148393"	"2020-12-10 13:42:41.652256"	150	6.09130421666667
"S201210"	"Response_Inhibition"	"LEFT"	"LEFT"	692.376700000068	816.6666683	n/a	n/a	n/a	n/a	n/a	n/a	n/a	"2020-12-10 13:42:42.477695"	"2020-12-10 13:42:43.377861"	151	6.09130421666667
"S201210"	"Response_Inhibition"	"RIGHT"	"Time_Max_Exceeded"	1500.04826690001	866.6666684	n/a	n/a	n/a	n/a	n/a	n/a	n/a	"2020-12-10 13:42:44.253310"	"2020-12-10 13:42:45.756665"	152	6.09130421666667
"S201210"	"Response_Inhibition"	"RIGHT"	"RIGHT"	664.844300000027	1266.6666692	n/a	n/a	n/a	n/a	n/a	n/a	n/a	"2020-12-10 13:42:47.031886"	"2020-12-10 13:42:47.905533"	153	6.09130421666667
"S201210"	"Response_Inhibition"	"LEFT"	"Time_Max_Exceeded"	1500.06663370001	850.0000017	n/a	n/a	n/a	n/a	n/a	n/a	n/a	"2020-12-10 13:42:48.764707"	"2020-12-10 13:42:50.267755"	154	6.09130421666667
"S201210"	"Response_Inhibition"	"RIGHT"	"Time_Max_Exceeded"	1500.07720039992	900.0000018	n/a	n/a	n/a	n/a	n/a	n/a	n/a	"2020-12-10 13:42:51.177144"	"2020-12-10 13:42:52.681244"	155	6.09130421666667
"S201210"	"Response_Inhibition"	"RIGHT"	"RIGHT"	857.9072	1333.333336	n/a	n/a	n/a	n/a	n/a	n/a	n/a	"2020-12-10 13:42:54.023655"	"2020-12-10 13:42:55.088204"	156	6.09130421666667
"S201210"	"Response_Inhibition"	"LEFT"	"LEFT"	664.648800000009	1400.0000028	n/a	n/a	n/a	n/a	n/a	n/a	n/a	"2020-12-10 13:42:56.496501"	"2020-12-10 13:42:57.369505"	157	6.09130421666667
"S201210"	"Response_Inhibition"	"LEFT"	"LEFT"	865.950199999929	516.6666677	n/a	n/a	n/a	n/a	n/a	n/a	n/a	"2020-12-10 13:42:57.895066"	"2020-12-10 13:42:58.969190"	158	6.09130421666667
"S201210"	"Response_Inhibition"	"RIGHT"	"RIGHT"	667.277199999944	1100.0000022	n/a	n/a	n/a	n/a	n/a	n/a	n/a	"2020-12-10 13:43:00.077623"	"2020-12-10 13:43:00.953001"	159	6.09130421666667
"S201210"	"Response_Inhibition"	"LEFT"	"Time_Max_Exceeded"	1500.05136700001	900.0000018	n/a	n/a	n/a	n/a	n/a	n/a	n/a	"2020-12-10 13:43:01.861797"	"2020-12-10 13:43:03.364788"	160	6.09130421666667
"S201210"	"Response_Selection"	"LEFT"	"LEFT"	336.795599999959	1350.0000027	n/a	n/a	n/a	n/a	n/a	n/a	n/a	"2020-12-10 13:34:57.656905"	"2020-12-10 13:34:58.201300"	1	2.90882588333333
"S201210"	"Response_Selection"	"LEFT"	"LEFT"	353.404899999987	750.0000015	n/a	n/a	n/a	n/a	n/a	n/a	n/a	"2020-12-10 13:34:58.960272"	"2020-12-10 13:34:59.521800"	2	2.90882588333333
"S201210"	"Response_Selection"	"RIGHT"	"RIGHT"	281.556899999998	933.3333352	n/a	n/a	n/a	n/a	n/a	n/a	n/a	"2020-12-10 13:35:00.463552"	"2020-12-10 13:35:00.952294"	3	2.90882588333333
"S201210"	"Response_Selection"	"RIGHT"	"RIGHT"	318.349099999978	1266.6666692	n/a	n/a	n/a	n/a	n/a	n/a	n/a	"2020-12-10 13:35:02.227437"	"2020-12-10 13:35:02.753885"	4	2.90882588333333
"S201210"	"Response_Selection"	"LEFT"	"LEFT"	269.060200000013	1250.0000025	n/a	n/a	n/a	n/a	n/a	n/a	n/a	"2020-12-10 13:35:04.012106"	"2020-12-10 13:35:04.489864"	5	2.90882588333333
"S201210"	"Response_Selection"	"LEFT"	"LEFT"	326.830799999982	800.0000016	n/a	n/a	n/a	n/a	n/a	n/a	n/a	"2020-12-10 13:35:05.298280"	"2020-12-10 13:35:05.832459"	6	2.90882588333333
"S201210"	"Response_Selection"	"RIGHT"	"RIGHT"	235.997800000007	1316.6666693	n/a	n/a	n/a	n/a	n/a	n/a	n/a	"2020-12-10 13:35:07.157576"	"2020-12-10 13:35:07.600447"	7	2.90882588333333
"S201210"	"Response_Selection"	"RIGHT"	"RIGHT"	312.1984	783.3333349	n/a	n/a	n/a	n/a	n/a	n/a	n/a	"2020-12-10 13:35:08.392907"	"2020-12-10 13:35:08.913614"	8	2.90882588333333
"S201210"	"Response_Selection"	"LEFT"	"LEFT"	276.181500000007	650.0000013	n/a	n/a	n/a	n/a	n/a	n/a	n/a	"2020-12-10 13:35:09.572874"	"2020-12-10 13:35:10.057934"	9	2.90882588333333
"S201210"	"Response_Selection"	"LEFT"	"LEFT"	295.410600000025	783.3333349	n/a	n/a	n/a	n/a	n/a	n/a	n/a	"2020-12-10 13:35:10.850169"	"2020-12-10 13:35:11.353865"	10	2.90882588333333
"S201210"	"Response_Selection"	"RIGHT"	"RIGHT"	228.212700000029	1466.6666696	n/a	n/a	n/a	n/a	n/a	n/a	n/a	"2020-12-10 13:35:12.828991"	"2020-12-10 13:35:13.265094"	11	2.90882588333333
"S201210"	"Response_Selection"	"RIGHT"	"RIGHT"	274.403300000017	1300.0000026	n/a	n/a	n/a	n/a	n/a	n/a	n/a	"2020-12-10 13:35:14.574572"	"2020-12-10 13:35:15.056316"	12	2.90882588333333
"S201210"	"Response_Selection"	"LEFT"	"LEFT"	255.792399999962	1216.6666691	n/a	n/a	n/a	n/a	n/a	n/a	n/a	"2020-12-10 13:35:16.281001"	"2020-12-10 13:35:16.745747"	13	2.90882588333333
"S201210"	"Response_Selection"	"RIGHT"	"RIGHT"	225.613199999998	1133.3333356	n/a	n/a	n/a	n/a	n/a	n/a	n/a	"2020-12-10 13:35:17.887990"	"2020-12-10 13:35:18.320529"	14	2.90882588333333
"S201210"	"Response_Selection"	"RIGHT"	"RIGHT"	348.33070000002	683.3333347	n/a	n/a	n/a	n/a	n/a	n/a	n/a	"2020-12-10 13:35:19.013182"	"2020-12-10 13:35:19.569569"	15	2.90882588333333
"S201210"	"Response_Selection"	"RIGHT"	"RIGHT"	315.157400000032	500.000001	n/a	n/a	n/a	n/a	n/a	n/a	n/a	"2020-12-10 13:35:20.077759"	"2020-12-10 13:35:20.600458"	16	2.90882588333333
"S201210"	"Response_Selection"	"RIGHT"	"RIGHT"	329.377099999988	583.3333345	n/a	n/a	n/a	n/a	n/a	n/a	n/a	"2020-12-10 13:35:21.192055"	"2020-12-10 13:35:21.728535"	17	2.90882588333333
"S201210"	"Response_Selection"	"RIGHT"	"RIGHT"	281.579399999998	966.6666686	n/a	n/a	n/a	n/a	n/a	n/a	n/a	"2020-12-10 13:35:22.703506"	"2020-12-10 13:35:23.192473"	18	2.90882588333333
"S201210"	"Response_Selection"	"RIGHT"	"RIGHT"	293.244899999991	883.3333351	n/a	n/a	n/a	n/a	n/a	n/a	n/a	"2020-12-10 13:35:24.083507"	"2020-12-10 13:35:24.585881"	19	2.90882588333333
"S201210"	"Response_Selection"	"LEFT"	"LEFT"	266.942999999969	1500.000003	n/a	n/a	n/a	n/a	n/a	n/a	n/a	"2020-12-10 13:35:26.094171"	"2020-12-10 13:35:26.569419"	20	2.90882588333333
"S201210"	"Response_Selection"	"RIGHT"	"RIGHT"	272.188599999993	983.3333353	n/a	n/a	n/a	n/a	n/a	n/a	n/a	"2020-12-10 13:35:27.561334"	"2020-12-10 13:35:28.041177"	21	2.90882588333333
"S201210"	"Response_Selection"	"RIGHT"	"RIGHT"	274.230799999998	533.3333344	n/a	n/a	n/a	n/a	n/a	n/a	n/a	"2020-12-10 13:35:28.582746"	"2020-12-10 13:35:29.065006"	22	2.90882588333333
"S201210"	"Response_Selection"	"RIGHT"	"RIGHT"	258.012800000017	1116.6666689	n/a	n/a	n/a	n/a	n/a	n/a	n/a	"2020-12-10 13:35:30.191042"	"2020-12-10 13:35:30.657830"	23	2.90882588333333
"S201210"	"Response_Selection"	"LEFT"	"LEFT"	315.325099999995	1466.6666696	n/a	n/a	n/a	n/a	n/a	n/a	n/a	"2020-12-10 13:35:32.134134"	"2020-12-10 13:35:32.657140"	24	2.90882588333333
"S201210"	"Response_Selection"	"RIGHT"	"RIGHT"	309.680600000036	1450.0000029	n/a	n/a	n/a	n/a	n/a	n/a	n/a	"2020-12-10 13:35:34.115801"	"2020-12-10 13:35:34.633780"	25	2.90882588333333
"S201210"	"Response_Selection"	"RIGHT"	"RIGHT"	320.045999999991	1166.666669	n/a	n/a	n/a	n/a	n/a	n/a	n/a	"2020-12-10 13:35:35.809594"	"2020-12-10 13:35:36.337444"	26	2.90882588333333
"S201210"	"Response_Selection"	"LEFT"	"LEFT"	287.300799999969	1200.0000024	n/a	n/a	n/a	n/a	n/a	n/a	n/a	"2020-12-10 13:35:37.546064"	"2020-12-10 13:35:38.041385"	27	2.90882588333333
"S201210"	"Response_Selection"	"LEFT"	"LEFT"	331.421499999976	1300.0000026	n/a	n/a	n/a	n/a	n/a	n/a	n/a	"2020-12-10 13:35:39.349724"	"2020-12-10 13:35:39.891683"	28	2.90882588333333
"S201210"	"Response_Selection"	"LEFT"	"LEFT"	288.632699999994	883.3333351	n/a	n/a	n/a	n/a	n/a	n/a	n/a	"2020-12-10 13:35:40.784725"	"2020-12-10 13:35:41.280500"	29	2.90882588333333
"S201210"	"Response_Selection"	"RIGHT"	"RIGHT"	498.541899999964	550.0000011	n/a	n/a	n/a	n/a	n/a	n/a	n/a	"2020-12-10 13:35:41.838843"	"2020-12-10 13:35:42.545952"	30	2.90882588333333
"S201210"	"Response_Selection"	"LEFT"	"LEFT"	331.382799999972	1083.3333355	n/a	n/a	n/a	n/a	n/a	n/a	n/a	"2020-12-10 13:35:43.637357"	"2020-12-10 13:35:44.176588"	31	2.90882588333333
"S201210"	"Response_Selection"	"LEFT"	"LEFT"	330.787100000009	733.3333348	n/a	n/a	n/a	n/a	n/a	n/a	n/a	"2020-12-10 13:35:44.918155"	"2020-12-10 13:35:45.456221"	32	2.90882588333333
"S201210"	"Response_Selection"	"RIGHT"	"RIGHT"	271.173599999997	1033.3333354	n/a	n/a	n/a	n/a	n/a	n/a	n/a	"2020-12-10 13:35:46.497766"	"2020-12-10 13:35:46.978615"	33	2.90882588333333
"S201210"	"Response_Selection"	"RIGHT"	"RIGHT"	277.796799999976	1400.0000028	n/a	n/a	n/a	n/a	n/a	n/a	n/a	"2020-12-10 13:35:48.387828"	"2020-12-10 13:35:48.873231"	34	2.90882588333333
"S201210"	"Response_Selection"	"LEFT"	"LEFT"	289.746100000002	966.6666686	n/a	n/a	n/a	n/a	n/a	n/a	n/a	"2020-12-10 13:35:49.848525"	"2020-12-10 13:35:50.345207"	35	2.90882588333333
"S201210"	"Response_Selection"	"LEFT"	"LEFT"	335.260800000015	1400.0000028	n/a	n/a	n/a	n/a	n/a	n/a	n/a	"2020-12-10 13:35:51.754322"	"2020-12-10 13:35:52.298897"	36	2.90882588333333
"S201210"	"Response_Selection"	"LEFT"	"LEFT"	282.240300000012	683.3333347	n/a	n/a	n/a	n/a	n/a	n/a	n/a	"2020-12-10 13:35:52.990970"	"2020-12-10 13:35:53.481691"	37	2.90882588333333
"S201210"	"Response_Selection"	"RIGHT"	"RIGHT"	278.587300000027	1016.6666687	n/a	n/a	n/a	n/a	n/a	n/a	n/a	"2020-12-10 13:35:54.507014"	"2020-12-10 13:35:54.993571"	38	2.90882588333333
"S201210"	"Response_Selection"	"LEFT"	"LEFT"	321.105099999954	1133.3333356	n/a	n/a	n/a	n/a	n/a	n/a	n/a	"2020-12-10 13:35:56.135765"	"2020-12-10 13:35:56.665730"	39	2.90882588333333
"S201210"	"Response_Selection"	"LEFT"	"LEFT"	309.99700000001	1016.6666687	n/a	n/a	n/a	n/a	n/a	n/a	n/a	"2020-12-10 13:35:57.691247"	"2020-12-10 13:35:58.209892"	40	2.90882588333333
"S201210"	"Response_Selection"	"RIGHT"	"RIGHT"	261.301100000026	1416.6666695	n/a	n/a	n/a	n/a	n/a	n/a	n/a	"2020-12-10 13:35:59.635505"	"2020-12-10 13:36:00.104662"	41	2.90882588333333
"S201210"	"Response_Selection"	"LEFT"	"LEFT"	263.630000000035	1166.666669	n/a	n/a	n/a	n/a	n/a	n/a	n/a	"2020-12-10 13:36:01.281629"	"2020-12-10 13:36:01.753304"	42	2.90882588333333
"S201210"	"Response_Selection"	"LEFT"	"LEFT"	323.059199999989	700.0000014	n/a	n/a	n/a	n/a	n/a	n/a	n/a	"2020-12-10 13:36:02.462366"	"2020-12-10 13:36:02.993023"	43	2.90882588333333
"S201210"	"Response_Selection"	"LEFT"	"LEFT"	281.178099999977	1366.6666694	n/a	n/a	n/a	n/a	n/a	n/a	n/a	"2020-12-10 13:36:04.368289"	"2020-12-10 13:36:04.857395"	44	2.90882588333333
"S201210"	"Response_Selection"	"RIGHT"	"RIGHT"	317.986099999985	833.333335	n/a	n/a	n/a	n/a	n/a	n/a	n/a	"2020-12-10 13:36:05.699243"	"2020-12-10 13:36:06.225345"	45	2.90882588333333
"S201210"	"Response_Selection"	"RIGHT"	"RIGHT"	358.449200000052	600.0000012	n/a	n/a	n/a	n/a	n/a	n/a	n/a	"2020-12-10 13:36:06.834773"	"2020-12-10 13:36:07.401737"	46	2.90882588333333
"S201210"	"Response_Selection"	"RIGHT"	"RIGHT"	332.47369999998	1250.0000025	n/a	n/a	n/a	n/a	n/a	n/a	n/a	"2020-12-10 13:36:08.661249"	"2020-12-10 13:36:09.201647"	47	2.90882588333333
"S201210"	"Response_Selection"	"RIGHT"	"RIGHT"	326.824799999997	800.0000016	n/a	n/a	n/a	n/a	n/a	n/a	n/a	"2020-12-10 13:36:10.010706"	"2020-12-10 13:36:10.544309"	48	2.90882588333333
"S201210"	"Response_Selection"	"LEFT"	"LEFT"	337.15669999998	583.3333345	n/a	n/a	n/a	n/a	n/a	n/a	n/a	"2020-12-10 13:36:11.135911"	"2020-12-10 13:36:11.681967"	49	2.90882588333333
"S201210"	"Response_Selection"	"LEFT"	"LEFT"	345.598900000027	1316.6666693	n/a	n/a	n/a	n/a	n/a	n/a	n/a	"2020-12-10 13:36:13.007877"	"2020-12-10 13:36:13.561533"	50	2.90882588333333
"S201210"	"Response_Selection"	"LEFT"	"LEFT"	341.112399999986	1450.0000029	n/a	n/a	n/a	n/a	n/a	n/a	n/a	"2020-12-10 13:36:15.019785"	"2020-12-10 13:36:15.568615"	51	2.90882588333333
"S201210"	"Response_Selection"	"RIGHT"	"RIGHT"	350.443900000016	633.3333346	n/a	n/a	n/a	n/a	n/a	n/a	n/a	"2020-12-10 13:36:16.210591"	"2020-12-10 13:36:16.769987"	52	2.90882588333333
"S201210"	"Response_Selection"	"LEFT"	"LEFT"	273.567999999955	533.3333344	n/a	n/a	n/a	n/a	n/a	n/a	n/a	"2020-12-10 13:36:17.311496"	"2020-12-10 13:36:17.793821"	53	2.90882588333333
"S201210"	"Response_Selection"	"RIGHT"	"RIGHT"	300.250600000027	1066.6666688	n/a	n/a	n/a	n/a	n/a	n/a	n/a	"2020-12-10 13:36:18.869373"	"2020-12-10 13:36:19.377768"	54	2.90882588333333
"S201210"	"Response_Selection"	"LEFT"	"LEFT"	298.000999999999	1116.6666689	n/a	n/a	n/a	n/a	n/a	n/a	n/a	"2020-12-10 13:36:20.502798"	"2020-12-10 13:36:21.008478"	55	2.90882588333333
"S201210"	"Response_Selection"	"LEFT"	"LEFT"	290.849600000001	933.3333352	n/a	n/a	n/a	n/a	n/a	n/a	n/a	"2020-12-10 13:36:21.950319"	"2020-12-10 13:36:22.449031"	56	2.90882588333333
"S201210"	"Response_Selection"	"RIGHT"	"LEFT"	305.771199999981	750.0000015	n/a	n/a	n/a	n/a	n/a	n/a	n/a	"2020-12-10 13:36:23.207740"	"2020-12-10 13:36:23.721873"	57	2.90882588333333
"S201210"	"Response_Selection"	"RIGHT"	"RIGHT"	264.380699999947	1366.6666694	n/a	n/a	n/a	n/a	n/a	n/a	n/a	"2020-12-10 13:36:25.096742"	"2020-12-10 13:36:25.569090"	58	2.90882588333333
"S201210"	"Response_Selection"	"LEFT"	"LEFT"	290.734200000031	916.6666685	n/a	n/a	n/a	n/a	n/a	n/a	n/a	"2020-12-10 13:36:26.494858"	"2020-12-10 13:36:26.993355"	59	2.90882588333333
"S201210"	"Response_Selection"	"LEFT"	"LEFT"	342.083100000025	633.3333346	n/a	n/a	n/a	n/a	n/a	n/a	n/a	"2020-12-10 13:36:27.635228"	"2020-12-10 13:36:28.185538"	60	2.90882588333333
"S201210"	"Response_Selection"	"RIGHT"	"RIGHT"	292.451299999982	866.6666684	n/a	n/a	n/a	n/a	n/a	n/a	n/a	"2020-12-10 13:36:29.061168"	"2020-12-10 13:36:29.561936"	61	2.90882588333333
"S201210"	"Response_Selection"	"RIGHT"	"RIGHT"	266.734999999983	1500.000003	n/a	n/a	n/a	n/a	n/a	n/a	n/a	"2020-12-10 13:36:31.070748"	"2020-12-10 13:36:31.545482"	62	2.90882588333333
"S201210"	"Response_Selection"	"RIGHT"	"RIGHT"	311.168199999997	1200.0000024	n/a	n/a	n/a	n/a	n/a	n/a	n/a	"2020-12-10 13:36:32.753519"	"2020-12-10 13:36:33.273162"	63	2.90882588333333
"S201210"	"Response_Selection"	"RIGHT"	"RIGHT"	268.131799999992	1083.3333355	n/a	n/a	n/a	n/a	n/a	n/a	n/a	"2020-12-10 13:36:34.364865"	"2020-12-10 13:36:34.841622"	64	2.90882588333333
"S201210"	"Response_Selection"	"LEFT"	"LEFT"	333.552600000019	1416.6666695	n/a	n/a	n/a	n/a	n/a	n/a	n/a	"2020-12-10 13:36:36.268137"	"2020-12-10 13:36:36.809717"	65	2.90882588333333
"S201210"	"Response_Selection"	"LEFT"	"LEFT"	316.998599999977	1033.3333354	n/a	n/a	n/a	n/a	n/a	n/a	n/a	"2020-12-10 13:36:37.852513"	"2020-12-10 13:36:38.377835"	66	2.90882588333333
"S201210"	"Response_Selection"	"LEFT"	"LEFT"	299.741299999994	1066.6666688	n/a	n/a	n/a	n/a	n/a	n/a	n/a	"2020-12-10 13:36:39.453625"	"2020-12-10 13:36:39.960145"	67	2.90882588333333
"S201210"	"Response_Selection"	"RIGHT"	"RIGHT"	308.152699999994	700.0000014	n/a	n/a	n/a	n/a	n/a	n/a	n/a	"2020-12-10 13:36:40.669251"	"2020-12-10 13:36:41.185242"	68	2.90882588333333
"S201210"	"Response_Selection"	"LEFT"	"LEFT"	284.622800000022	1266.6666692	n/a	n/a	n/a	n/a	n/a	n/a	n/a	"2020-12-10 13:36:42.460557"	"2020-12-10 13:36:42.953262"	69	2.90882588333333
"S201210"	"Response_Selection"	"LEFT"	"LEFT"	311.582600000008	600.0000012	n/a	n/a	n/a	n/a	n/a	n/a	n/a	"2020-12-10 13:36:43.561567"	"2020-12-10 13:36:44.081701"	70	2.90882588333333
"S201210"	"Response_Selection"	"RIGHT"	"RIGHT"	265.722499999981	733.3333348	n/a	n/a	n/a	n/a	n/a	n/a	n/a	"2020-12-10 13:36:44.823718"	"2020-12-10 13:36:45.297297"	71	2.90882588333333
"S201210"	"Response_Selection"	"LEFT"	"LEFT"	264.13869999999	983.3333353	n/a	n/a	n/a	n/a	n/a	n/a	n/a	"2020-12-10 13:36:46.289556"	"2020-12-10 13:36:46.760295"	72	2.90882588333333
"S201210"	"Response_Selection"	"LEFT"	"LEFT"	306.365000000028	550.0000011	n/a	n/a	n/a	n/a	n/a	n/a	n/a	"2020-12-10 13:36:47.318669"	"2020-12-10 13:36:47.833921"	73	2.90882588333333
"S201210"	"Response_Selection"	"LEFT"	"LEFT"	301.549500000021	833.333335	n/a	n/a	n/a	n/a	n/a	n/a	n/a	"2020-12-10 13:36:48.676153"	"2020-12-10 13:36:49.184504"	74	2.90882588333333
"S201210"	"Response_Selection"	"RIGHT"	"RIGHT"	275.252200000011	916.6666685	n/a	n/a	n/a	n/a	n/a	n/a	n/a	"2020-12-10 13:36:50.109721"	"2020-12-10 13:36:50.594584"	75	2.90882588333333
"S201210"	"Response_Selection"	"LEFT"	"LEFT"	275.510900000029	866.6666684	n/a	n/a	n/a	n/a	n/a	n/a	n/a	"2020-12-10 13:36:51.469433"	"2020-12-10 13:36:51.953171"	76	2.90882588333333
"S201210"	"Response_Selection"	"RIGHT"	"RIGHT"	271.008199999983	1216.6666691	n/a	n/a	n/a	n/a	n/a	n/a	n/a	"2020-12-10 13:36:53.178619"	"2020-12-10 13:36:53.657829"	77	2.90882588333333
"S201210"	"Response_Selection"	"RIGHT"	"RIGHT"	328.817999999956	1350.0000027	n/a	n/a	n/a	n/a	n/a	n/a	n/a	"2020-12-10 13:36:55.016720"	"2020-12-10 13:36:55.553128"	78	2.90882588333333
"S201210"	"Response_Selection"	"RIGHT"	"RIGHT"	309.335599999997	650.0000013	n/a	n/a	n/a	n/a	n/a	n/a	n/a	"2020-12-10 13:36:56.211394"	"2020-12-10 13:36:56.729875"	79	2.90882588333333
"S201210"	"Response_Selection"	"LEFT"	"LEFT"	394.790499999999	500.000001	n/a	n/a	n/a	n/a	n/a	n/a	n/a	"2020-12-10 13:36:57.238180"	"2020-12-10 13:36:57.841654"	80	2.90882588333333
