index	Trial_Type	Participant_ID	Trial_Probability	Question_Position_Prediction_Correct	Question_Position_Prediction_Agent	Question_Position_Comparison_Self	Question_Position_Comparison_Irrelevant	Trial_Stake	Trial_Stake_Jitter	Trial_Type_Jitter	Trial_Result_Jitter	Balance_Update_Jitter	Question_Comparison_Condition	Question_Comparison_Type	Question_Comparison_Question	Question_Comparison_Label	Question_Comparison_Item	Question_Comparison_Proportion_Yes	Question_Factual_Condition	Question_Factual_Item	Question_Factual_Question	Question_Factual_Label	Question_Factual_Proportion_DontKnow	Question_Factual_Type	Answer_Prediction_Agent	Answer_Prediction_Agent_RT	Answer_Prediction_Correct	Answer_Prediction_Correct_RT	Answer_Irrelevant	Answer_Irrelevant_RT	Answer_Self	Answer_Self_RT	Trial_Balance	Trial_Balance_Effect	Trial_Condition	Trial_ProbableSide	Prediction_Choice	Prediction_Result	Prediction_RT	Trial_Order	Trial_Datetime
46	Self	S210316	0.8333333333333334	2	1	2	1	0.7	1433.3333362	1150.0000023	2216.6666711000003	1650.0000033	Minor	Good_deeds	3	You have started a hotline for victims of bully	C1_3	0.0	Easy	I2_13	49	It is 20th Century now	0.0	Yes	RIGHT	1174.724900000001	LEFT	752.5362999999743	RIGHT	1191.632299999981	RIGHT	1887.5417000000425	9.3	0.7	Probable_Lie	RIGHT	RIGHT	1	692.092300000013	0	2021-03-16 14:47:08.809019
7	Self	S210316	0.5	1	2	2	1	0.6	1216.6666691	1283.3333359	1650.0000033	1933.3333372	Minor	Wrong_doings	39	You have helped a friend in need	C2_53	0.45	Easy	I2_23	37	Obama is the USA president now	0.0	No	RIGHT	670.485699999972	RIGHT	605.1488000000518	LEFT	2517.3759000000477	RIGHT	1471.266700000001	9.9	0.6	Probable_Truth	LEFT	LEFT	3	1300.3946000000042	1	2021-03-16 14:47:34.032766
90	Self	S210316	0.8333333333333334	2	1	1	2	0.1	1150.0000023	1433.3333362	2500.000005	1783.3333369	Major	Wrong_doings	23	You have switched off appliances when not in use	C1_12	0.95	Easy	I1_43	50	It is snowing outside now	0.777777777777778	No	RIGHT	996.9193999999106	RIGHT	864.4147999999632	LEFT	1207.5409000000263	RIGHT	2042.695500000036	10.0	0.1	Probable_Truth	RIGHT	RIGHT	3	744.8460000000523	2	2021-03-16 14:47:59.330103
96	Computer	S210316	0.5	1	2	1	2	0.1	1216.6666691	1150.0000023	2500.000005	2500.000005	Minor	Wrong_doings	48	You have engaged in money laundering	C2_24	1.0	Easy	I1_31	48	It takes 112 years to build the Pisa Tower	0.944444444444444	Yes	LEFT	816.6480999999521	LEFT	1235.8094999999594	RIGHT	2286.892100000045	LEFT	1923.974700000031	10.0	0.1	Probable_Lie	LEFT	RIGHT	1	662.3354060319778	3	2021-03-16 14:48:26.202382
12	Self	S210316	0.5	2	1	2	1	0.3	1283.3333359	1216.6666691	2500.000005	2350.0000047	Minor	Good_deeds	17	You have sorted your trash into recycling bin	C1_17	0.85	Hard	I1_58	9	Mexico's National Day is September 16	0.833333333333333	Yes	LEFT	934.0912000000116	LEFT	2215.4127000000017	RIGHT	1779.0652999999566	RIGHT	1576.3215000000628	10.0	0.3	Probable_Lie	LEFT	LEFT	5	899.3689999999788	4	2021-03-16 14:48:53.528843
116	Computer	S210316	0.6666666666666666	1	2	2	1	0.5	1433.3333362	1066.6666688	2500.000005	1500.000003	Minor	Good_deeds	58	You have taken responsibility for your actions	C2_3	1.0	Easy	I2_40	26	The hardest bone in human body is the jawbone	0.666666666666667	No	LEFT	392.5878000000012	LEFT	1477.861800000028	RIGHT	3933.943699999986	RIGHT	1376.0480999999345	10.0	0.5	Probable_Lie	RIGHT	RIGHT	1	955.2856587771428	5	2021-03-16 14:49:20.729499
55	Self	S210316	0.5	1	2	2	1	0.2	1283.3333359	1216.6666691	1783.3333369	1933.3333372	Minor	Good_deeds	31	You have illegally stayed in a country	C1_40	0.05	Hard	I2_55	12	A square has 3 corners	0.944444444444444	No	RIGHT	704.1622000000416	LEFT	1889.6032000000105	LEFT	2003.2165999999731	LEFT	2368.227499999989	9.8	0.2	Probable_Lie	LEFT	RIGHT	1	733.0735000000459	6	2021-03-16 14:49:47.218573
14	Self	S210316	0.5	2	1	2	1	0.2	1500.000003	1000.000002	1500.000003	2066.6666708	Major	Good_deeds	44	You have confessed to your mistake	C2_17	0.0	Hard	I1_54	30	Lehman Brothers went bankrupt on 20th September	1.0	No	RIGHT	925.5695999999034	RIGHT	480.3509000000759	RIGHT	2757.983500000023	RIGHT	1287.7842000000328	10.0	0.2	Probable_Truth	RIGHT	LEFT	3	1390.6031999999868	7	2021-03-16 14:50:12.696666
34	Self	S210316	0.8333333333333334	1	2	1	2	0.4	1066.6666688	1150.0000023	2350.0000047	2350.0000047	Minor	Good_deeds	25	You have lost everything just to help others	C1_48	0.0	Hard	I1_42	46	Milwaukee Art Museum is located in California	0.833333333333333	No	RIGHT	495.1991000000362	RIGHT	731.8366000000651	RIGHT	2039.8014999999527	LEFT	2443.4741999999687	10.4	0.4	Probable_Truth	LEFT	LEFT	1	943.9518000000362	8	2021-03-16 14:50:38.841502
64	Self	S210316	0.6666666666666666	1	2	1	2	0.6	1000.000002	1066.6666688	1933.3333372	2350.0000047	Major	Wrong_doings	37	You have followed instructions	C1_27	0.1	Easy	I2_33	6	December is the last month of the year	0.0	Yes	RIGHT	689.0737000001081	RIGHT	524.5801999999458	RIGHT	1271.3375999999244	RIGHT	1867.145300000061	11.0	0.6	Probable_Truth	RIGHT	RIGHT	4	510.1077000000487	9	2021-03-16 14:51:02.625318
31	Self	S210316	0.6666666666666666	2	1	2	1	0.2	1500.000003	1500.000003	2216.6666711000003	1783.3333369	Minor	Good_deeds	6	You have been arrested	C1_9	0.0	Hard	I1_21	28	Brazil is in South America	0.0555555555555556	No	RIGHT	1134.8306999999522	LEFT	696.0633999999573	RIGHT	1577.8656999999612	LEFT	999.8337999999194	10.8	0.2	Probable_Lie	RIGHT	RIGHT	2	1615.101099999947	10	2021-03-16 14:51:28.225025
1	Self	S210316	0.5	1	2	1	2	0.8	1350.0000027	1350.0000027	1500.000003	1650.0000033	Major	Wrong_doings	16	You have pretended to be busy to avoid a social situation	C2_48	0.0	Hard	I2_5	17	Fibers in oranges can be used to make fabric	0.0	No	RIGHT	1032.9143000000158	LEFT	1590.095799999972	LEFT	85.02759999998943	Time_Max_Exceeded	5000.329800000031	10.0	0.8	Probable_Lie	LEFT	RIGHT	2	1684.2050999999856	11	2021-03-16 14:51:56.041346
44	Self	S210316	0.8333333333333334	2	1	2	1	0.4	1216.6666691	1433.3333362	1783.3333369	2216.6666711000003	Minor	Wrong_doings	39	You have sheltered others from disasters	C1_8	1.0	Hard	I1_36	38	There are 6000 spoken languages in the World	0.888888888888889	Yes	RIGHT	530.5534999999963	RIGHT	688.8744000000315	RIGHT	1519.5767999999816	RIGHT	2214.919900000041	10.4	0.4	Probable_Truth	LEFT	LEFT	1	1262.5123000000258	12	2021-03-16 14:52:21.481430
114	Computer	S210316	0.6666666666666666	1	2	1	2	0.6	1066.6666688	1150.0000023	1500.000003	2216.6666711000003	Minor	Wrong_doings	50	You have deceived a loved one	C2_1	0.65	Easy	I1_15	56	Nanyang Technological University is in Australia	0.611111111111111	No	LEFT	832.1167000000287	RIGHT	1329.3138999999885	LEFT	2248.5444000000143	LEFT	1879.7798000000512	10.4	0.6	Probable_Truth	LEFT	LEFT	1	596.9409041663031	13	2021-03-16 14:52:46.873329
38	Self	S210316	0.8333333333333334	1	2	2	1	0.5	1350.0000027	1000.000002	1783.3333369	2066.6666708	Major	Wrong_doings	28	You have attended all lectures as a student	C1_13	0.05	Easy	I1_1	22	Singapore is a country	0.0	No	RIGHT	616.333900000086	RIGHT	1562.2705000000678	RIGHT	1125.4464999999527	RIGHT	2142.2533999999587	10.9	0.5	Probable_Truth	LEFT	LEFT	1	1004.2138000000024	14	2021-03-16 14:53:12.097056
15	Self	S210316	0.5	2	1	2	1	0.1	1066.6666688	1350.0000027	2216.6666711000003	2500.000005	Minor	Wrong_doings	45	You have claimed doing things that you never did	C1_44	0.0	Easy	I1_9	54	Teddy Roosevelt was the youngest US President	0.0	Yes	RIGHT	1400.9092999999666	LEFT	871.8022000000474	RIGHT	2597.650900000076	LEFT	4031.358000000069	10.8	0.1	Probable_Lie	RIGHT	RIGHT	3	825.0713999999562	15	2021-03-16 14:53:41.529515
53	Self	S210316	0.5	1	2	2	1	0.1	1066.6666688	1000.000002	1500.000003	1783.3333369	Minor	Wrong_doings	20	You have cursed at your loved ones	C2_50	0.0	Easy	I2_59	11	Cernan was the second last man to walk on the Moon	0.888888888888889	No	RIGHT	680.6763999999248	RIGHT	717.2951999999668	RIGHT	3897.588200000087	LEFT	1552.0173000001023	10.9	0.1	Probable_Truth	RIGHT	LEFT	1	1675.494800000024	16	2021-03-16 14:54:07.976762
134	Computer	S210316	0.8333333333333334	1	2	2	1	0.5	1216.6666691	1500.000003	1933.3333372	2216.6666711000003	Major	Wrong_doings	28	You have attended all lectures as a student	C1_13	0.05	Easy	I1_1	22	Singapore is a country	0.0	No	LEFT	2591.8175000000474	RIGHT	1226.9658000000163	RIGHT	987.585299999978	RIGHT	2047.231699999997	10.9	0.5	Probable_Truth	LEFT	LEFT	1	575.4483043779381	17	2021-03-16 14:54:34.832859
143	Computer	S210316	0.8333333333333334	2	1	2	1	0.1	1500.000003	1350.0000027	2350.0000047	1650.0000033	Minor	Wrong_doings	51	You have drunk alcohol when you were underage	C1_38	0.55	Easy	I2_49	13	China is a part of Asia	0.0	No	LEFT	1741.7486000000508	LEFT	376.29850000007536	LEFT	2046.84229999998	LEFT	3071.5243000000783	10.9	0.1	Probable_Lie	RIGHT	LEFT	5	570.1212846863953	18	2021-03-16 14:55:02.057202
109	Computer	S210316	0.5	2	1	2	1	0.2	1433.3333362	1283.3333359	1500.000003	2500.000005	Major	Wrong_doings	52	You have watched a pirated movie	C2_52	1.0	Easy	I2_30	58	The current century is 21st	0.0	No	LEFT	1441.5537999999517	RIGHT	848.1494999999768	RIGHT	1189.1001000000188	RIGHT	2183.969400000024	10.9	0.2	Probable_Truth	LEFT	LEFT	1	533.1219198052523	19	2021-03-16 14:55:27.536961
72	Self	S210316	0.6666666666666666	2	1	1	2	0.8	1283.3333359	1066.6666688	2500.000005	1650.0000033	Major	Wrong_doings	57	You have started a movement to support a cause	C2_11	0.0	Easy	I1_5	39	It takes 500 days to travel from Earth to Mars	0.833333333333333	Yes	RIGHT	700.947000000042	LEFT	559.5197999999755	RIGHT	1271.3968000000475	LEFT	2557.734299999993	10.1	0.8	Probable_Lie	RIGHT	RIGHT	1	642.7503000001025	20	2021-03-16 14:55:52.345031
32	Self	S210316	0.8333333333333334	1	2	1	2	0.2	1150.0000023	1283.3333359	2066.6666708	2500.000005	Minor	Wrong_doings	27	You have given up your seat in the MRT	C1_28	1.0	Easy	I1_35	13	Today is Sunday	0.944444444444444	No	RIGHT	463.3874000001015	RIGHT	725.1310999999987	LEFT	1105.4517999998552	RIGHT	1246.2520999999924	10.3	0.2	Probable_Truth	RIGHT	RIGHT	6	846.0372000001826	21	2021-03-16 14:56:16.304849
135	Computer	S210316	0.8333333333333334	1	2	2	1	0.2	1500.000003	1283.3333359	1650.0000033	1500.000003	Major	Wrong_doings	33	You have taken part in burglary	C2_33	0.95	Hard	I2_46	17	There are 20 bones in the human skull	0.0	Yes	LEFT	417.130699999916	LEFT	542.3012999999628	LEFT	1799.4473999999627	LEFT	2463.363400000162	10.3	0.2	Probable_Lie	RIGHT	LEFT	5	866.4495641401622	22	2021-03-16 14:56:40.896052
66	Self	S210316	0.6666666666666666	1	2	1	2	0.5	1433.3333362	1216.6666691	1500.000003	1783.3333369	Minor	Good_deeds	5	You have coveted things that belong to others	C2_9	0.0	Hard	I2_41	43	Pyramid of Giza is 468 feet tall	0.0	No	RIGHT	583.7533999999778	RIGHT	1091.1323000000266	RIGHT	1352.1345000001477	RIGHT	2547.259899999972	10.8	0.5	Probable_Truth	LEFT	LEFT	1	870.5316999999013	23	2021-03-16 14:57:05.848790
6	Self	S210316	0.5	1	2	2	1	0.4	1000.000002	1500.000003	1783.3333369	2500.000005	Major	Good_deeds	10	You have volunteered every week for many years	C1_16	0.15	Hard	I2_48	27	There are 7 days in a week	0.722222222222222	Yes	RIGHT	527.6357000000189	RIGHT	586.0536000000138	RIGHT	1190.2267000000393	RIGHT	1887.2839999999087	11.2	0.4	Probable_Truth	LEFT	RIGHT	6	1172.2310999998626	24	2021-03-16 14:57:30.568163
47	Self	S210316	0.8333333333333334	2	1	2	1	0.3	1150.0000023	1500.000003	2066.6666708	1783.3333369	Minor	Wrong_doings	51	You have drunk alcohol when you were underage	C1_38	0.55	Easy	I2_49	13	China is a part of Asia	0.0	No	RIGHT	1750.5968000000394	LEFT	1305.0743999999668	RIGHT	2289.782800000012	RIGHT	3758.753600000091	10.9	0.3	Probable_Lie	RIGHT	RIGHT	1	655.6524999998601	25	2021-03-16 14:57:59.400924
80	Self	S210316	0.8333333333333334	1	2	1	2	0.2	1500.000003	1433.3333362	1783.3333369	1500.000003	Minor	Good_deeds	43	You have thrown your trash into the bin	C2_26	0.85	Easy	I1_28	40	North Korea is more developed than South Korea	0.0	No	RIGHT	632.3314999999639	LEFT	1155.7921000000988	LEFT	2831.4736000002085	RIGHT	1758.7925999998788	10.7	0.2	Probable_Lie	RIGHT	RIGHT	1	729.7209000000748	26	2021-03-16 14:58:25.295832
115	Computer	S210316	0.6666666666666666	1	2	1	2	0.1	1283.3333359	1000.000002	1650.0000033	2066.6666708	Minor	Wrong_doings	24	You have made counterfeit money	C1_57	0.05	Hard	I1_32	15	Acoustic Kitty refers to cat with implants	0.0	No	LEFT	607.385000000022	LEFT	4942.207000000053	LEFT	2631.519600000047	LEFT	1893.8928999998552	10.7	0.1	Probable_Lie	RIGHT	LEFT	3	865.03409779202	27	2021-03-16 14:58:54.808723
137	Computer	S210316	0.8333333333333334	2	1	1	2	0.8	1216.6666691	1066.6666688	1783.3333369	2350.0000047	Major	Good_deeds	19	You have engaged in arson	C2_60	0.0	Hard	I2_18	4	Marijuana is legal in Singapore	0.0	No	LEFT	1368.7903000000006	RIGHT	503.90760000004775	LEFT	1926.4227999999548	LEFT	1556.851800000004	10.7	0.8	Probable_Truth	RIGHT	RIGHT	4	999.3614359775918	28	2021-03-16 14:59:20.152141
60	Self	S210316	0.5	2	1	2	1	0.5	1000.000002	1500.000003	2350.0000047	2500.000005	Minor	Good_deeds	2	You have gossiped about your best friend	C2_14	0.0	Easy	I2_53	51	A dog has four legs	0.888888888888889	No	RIGHT	1747.7678999998716	LEFT	1064.7311999998692	RIGHT	1836.6062000000056	RIGHT	990.8651999999164	10.2	0.5	Probable_Lie	LEFT	LEFT	6	1278.080399999908	29	2021-03-16 14:59:46.993349
70	Self	S210316	0.6666666666666666	1	2	2	1	0.3	1350.0000027	1350.0000027	2350.0000047	1933.3333372	Major	Wrong_doings	46	You have participated in a scamming business	C1_34	0.95	Easy	I1_33	52	The Amazon forest covers an area of 1 billion acres	0.944444444444444	Yes	RIGHT	1135.3163999999651	RIGHT	665.3043000001162	RIGHT	1459.4342000000324	LEFT	1374.9880999998825	10.5	0.3	Probable_Lie	LEFT	LEFT	3	1484.7666000000572	30	2021-03-16 15:00:12.671959
104	Computer	S210316	0.5	2	1	1	2	0.7	1000.000002	1000.000002	1783.3333369	1783.3333369	Major	Wrong_doings	53	You have risked your life to save another person's life	C2_45	0.0	Easy	I2_35	35	It is night time now	0.833333333333333	Yes	LEFT	1162.455399999999	LEFT	456.3690999998471	RIGHT	1423.7057999998797	LEFT	1442.264600000044	10.5	0.7	Probable_Lie	LEFT	RIGHT	3	875.1482285882901	31	2021-03-16 15:00:36.159665
19	Self	S210316	0.6666666666666666	1	2	1	2	0.6	1350.0000027	1433.3333362	2500.000005	2500.000005	Minor	Wrong_doings	24	You have made counterfeit money	C1_57	0.05	Hard	I1_32	15	Acoustic Kitty refers to cat with implants	0.0	No	RIGHT	440.8961000001455	RIGHT	965.3579000000718	LEFT	799.833499999977	LEFT	1532.249899999897	11.1	0.6	Probable_Truth	RIGHT	RIGHT	4	922.7382999999918	32	2021-03-16 15:01:01.176014
94	Self	S210316	0.8333333333333334	2	1	2	1	0.7	1283.3333359	1350.0000027	2066.6666708	1650.0000033	Minor	Good_deeds	33	You have failed to keep promises	C1_33	0.0	Easy	I1_48	42	Carnivore refers to meat-eater	0.833333333333333	Yes	RIGHT	1142.6641999998992	RIGHT	408.1602999999632	RIGHT	2045.7795999998325	LEFT	1760.7788000000255	11.8	0.7	Probable_Truth	RIGHT	RIGHT	3	998.322700000017	33	2021-03-16 15:01:26.456863
11	Self	S210316	0.5	2	1	1	2	0.8	1433.3333362	1283.3333359	1933.3333372	1933.3333372	Minor	Good_deeds	8	You have bribed someone to improve a grade	C1_14	0.55	Easy	I1_2	2	Airbags in cars are filled with sodium azide	0.0	No	RIGHT	572.2332999998798	RIGHT	367.8198000000066	RIGHT	2488.5671999998067	LEFT	1732.685199999878	12.6	0.8	Probable_Truth	RIGHT	RIGHT	4	1186.4955999999438	34	2021-03-16 15:01:51.960167
100	Computer	S210316	0.5	1	2	2	1	0.3	1350.0000027	1283.3333359	1650.0000033	2216.6666711000003	Major	Good_deeds	53	You have said sorry when you were rude	C1_35	0.95	Easy	I2_27	5	Fishes can swim in water	1.0	Yes	LEFT	320.85410000013326	LEFT	3580.9249000001278	RIGHT	2272.243000000117	RIGHT	1224.515300000121	12.6	0.3	Probable_Lie	LEFT	RIGHT	2	700.2809493216496	35	2021-03-16 15:02:19.128019
102	Computer	S210316	0.5	1	2	2	1	0.4	1283.3333359	1350.0000027	2216.6666711000003	2066.6666708	Major	Good_deeds	10	You have volunteered every week for many years	C1_16	0.15	Hard	I2_48	27	There are 7 days in a week	0.722222222222222	Yes	LEFT	728.8390999999592	RIGHT	1740.590099999963	RIGHT	1639.6763999998711	RIGHT	1344.2850999999791	12.6	0.4	Probable_Truth	RIGHT	LEFT	3	830.0496169551502	36	2021-03-16 15:02:44.895789
4	Self	S210316	0.5	1	2	2	1	0.1	1066.6666688	1066.6666688	1933.3333372	1500.000003	Major	Good_deeds	53	You have said sorry when you were rude	C1_35	0.95	Easy	I2_27	5	Fishes can swim in water	1.0	Yes	RIGHT	352.71590000002107	RIGHT	604.9287000000731	RIGHT	1183.0622999998468	RIGHT	799.6861000001445	12.7	0.1	Probable_Truth	LEFT	LEFT	3	1691.6379000001598	37	2021-03-16 15:03:07.664893
45	Self	S210316	0.8333333333333334	2	1	2	1	0.1	1000.000002	1066.6666688	1500.000003	2350.0000047	Major	Wrong_doings	8	You have bought cocaine	C2_13	1.0	Hard	I1_38	12	Hot chocolate was created by the Mayan culture	0.666666666666667	Yes	RIGHT	492.53189999990354	RIGHT	687.8331000000344	LEFT	3083.8401999999405	LEFT	1640.226900000016	12.8	0.1	Probable_Lie	LEFT	LEFT	3	1394.461099999944	38	2021-03-16 15:03:33.456475
120	Computer	S210316	0.6666666666666666	2	1	1	2	0.4	1000.000002	1216.6666691	1650.0000033	2500.000005	Major	Wrong_doings	37	You have downloaded pirated movies	C2_40	0.05	Hard	I2_11	11	Christmas Day is in March	0.0555555555555556	Yes	LEFT	2563.9066000001094	LEFT	1326.492600000165	LEFT	1552.196399999957	LEFT	2718.1152000000566	12.8	0.4	Probable_Truth	LEFT	RIGHT	3	720.8518826437736	39	2021-03-16 15:04:01.273172
108	Computer	S210316	0.5	2	1	2	1	0.6	1150.0000023	1500.000003	2066.6666708	2350.0000047	Minor	Good_deeds	17	You have sorted your trash into recycling bin	C1_17	0.85	Hard	I1_58	9	Mexico's National Day is September 16	0.833333333333333	Yes	LEFT	1052.6933000001009	RIGHT	616.8023000000176	RIGHT	2052.8812000000016	RIGHT	1087.0138999998744	12.8	0.6	Probable_Truth	LEFT	RIGHT	4	882.044553006017	40	2021-03-16 15:04:26.601247
95	Self	S210316	0.8333333333333334	2	1	2	1	0.8	1066.6666688	1283.3333359	1933.3333372	2500.000005	Major	Good_deeds	28	You have watched an M18 movie when you were underage	C1_30	0.65	Easy	I2_42	8	There is typically 0.6 grams of mercury in glass thermometer	0.944444444444444	Yes	RIGHT	546.6386000000512	RIGHT	337.173600000142	RIGHT	2684.680400000161	LEFT	1887.308300000086	13.6	0.8	Probable_Truth	RIGHT	RIGHT	5	666.8563999999151	41	2021-03-16 15:04:52.079691
40	Self	S210316	0.8333333333333334	2	1	1	2	0.8	1283.3333359	1283.3333359	2500.000005	1500.000003	Minor	Good_deeds	38	You have violated a traffic law	C2_19	0.15	Hard	I1_26	36	Polish is 20th most spoken language in the World	0.888888888888889	No	RIGHT	1188.8292000001002	LEFT	368.6043999998674	LEFT	3367.8529000001163	RIGHT	2127.0313999998507	12.8	0.8	Probable_Lie	RIGHT	RIGHT	1	642.0886999999311	42	2021-03-16 15:05:18.911676
42	Self	S210316	0.8333333333333334	2	1	1	2	0.5	1066.6666688	1000.000002	1650.0000033	2500.000005	Major	Good_deeds	13	You have shown your appreciation to your teachers	C1_51	0.0	Easy	I1_12	26	The Franco-Prussian War occurred in the 19th century	0.888888888888889	No	RIGHT	519.3787999999131	RIGHT	320.4270999999608	RIGHT	1639.1247000001383	RIGHT	2179.44730000022	13.3	0.5	Probable_Truth	LEFT	LEFT	1	515.761399999974	43	2021-03-16 15:05:42.882046
0	Self	S210316	0.5	1	2	1	2	0.5	1283.3333359	1000.000002	2500.000005	2066.6666708	Minor	Wrong_doings	48	You have engaged in money laundering	C2_24	1.0	Easy	I1_31	48	It takes 112 years to build the Pisa Tower	0.944444444444444	Yes	RIGHT	552.5027000001046	LEFT	1190.781799999968	RIGHT	1535.920799999985	LEFT	1758.034700000053	12.8	0.5	Probable_Lie	RIGHT	RIGHT	2	916.8999000000896	44	2021-03-16 15:06:08.257377
103	Computer	S210316	0.5	1	2	2	1	0.8	1000.000002	1000.000002	1500.000003	1933.3333372	Minor	Wrong_doings	39	You have helped a friend in need	C2_53	0.45	Easy	I2_23	37	Obama is the USA president now	0.0	No	LEFT	632.2485999999117	LEFT	3231.553100000156	LEFT	1372.903499999893	RIGHT	1111.7824999998902	12.8	0.8	Probable_Lie	RIGHT	RIGHT	2	554.9216024008666	45	2021-03-16 15:06:33.160291
75	Self	S210316	0.6666666666666666	2	1	1	2	0.6	1000.000002	1150.0000023	2350.0000047	1783.3333369	Minor	Wrong_doings	30	You have cheated on a test	C1_11	0.05	Easy	I2_3	3	The Moon orbits around the Earth	0.666666666666667	No	RIGHT	610.4057000000012	RIGHT	320.5312000000049	RIGHT	1823.8527999999403	RIGHT	1529.278500000146	13.4	0.6	Probable_Truth	RIGHT	RIGHT	3	1081.9581999999173	46	2021-03-16 15:06:57.383807
93	Self	S210316	0.8333333333333334	2	1	2	1	0.2	1216.6666691	1500.000003	2216.6666711000003	2216.6666711000003	Minor	Wrong_doings	56	You have bribed a police officer	C1_45	0.05	Easy	I2_54	48	South East Asia is currently free from polio	0.0	No	RIGHT	2240.832200000113	RIGHT	4159.659099999999	LEFT	2398.35979999998	LEFT	3112.246899999945	13.599999999999998	0.2	Probable_Truth	RIGHT	RIGHT	4	732.5792999999976	47	2021-03-16 15:07:29.751668
30	Self	S210316	0.6666666666666666	2	1	2	1	0.7	1000.000002	1350.0000027	2066.6666708	1650.0000033	Minor	Good_deeds	6	You have donated blood every 6 months for many years	C2_18	1.0	Easy	I1_29	29	Beer is an alcoholic drink	0.722222222222222	Yes	RIGHT	862.9825000002711	RIGHT	456.5995000002658	RIGHT	1087.2841999998857	LEFT	1775.5602000002	14.299999999999995	0.7	Probable_Truth	LEFT	LEFT	1	696.1629000002176	48	2021-03-16 15:17:16.751308
140	Computer	S210316	0.8333333333333334	2	1	2	1	0.7	1066.6666688	1216.6666691	2216.6666711000003	2216.6666711000003	Minor	Wrong_doings	39	You have sheltered others from disasters	C1_8	1.0	Hard	I1_36	38	There are 6000 spoken languages in the World	0.888888888888889	Yes	LEFT	569.8711000000003	LEFT	415.200299999924	RIGHT	2112.626900000123	LEFT	1671.9050000001516	14.299999999999995	0.7	Probable_Lie	LEFT	RIGHT	1	526.2172689875063	49	2021-03-16 15:17:41.343409
88	Self	S210316	0.8333333333333334	2	1	1	2	0.6	1500.000003	1150.0000023	2350.0000047	1933.3333372	Minor	Wrong_doings	30	You have let a homeless man into your house	C2_28	0.0	Hard	I1_8	24	Red is a color	0.0	No	RIGHT	465.417499999603	RIGHT	415.9552999999505	RIGHT	1800.8816000001389	LEFT	2147.1903999999995	14.899999999999997	0.6	Probable_Lie	LEFT	LEFT	3	784.6652999996877	50	2021-03-16 15:18:06.463782
112	Computer	S210316	0.6666666666666666	1	2	1	2	0.8	1150.0000023	1216.6666691	1933.3333372	1933.3333372	Major	Good_deeds	3	You have a non-judgmental attitude towards everyone	C2_58	0.25	Easy	I1_50	50	Cheese is an Asian staple	0.833333333333333	No	LEFT	313.02850000020044	LEFT	1429.4488000000456	LEFT	3136.054999999942	LEFT	3508.5613999999623	14.899999999999997	0.8	Probable_Lie	RIGHT	LEFT	6	671.3716111530312	51	2021-03-16 15:18:34.318698
139	Computer	S210316	0.8333333333333334	2	1	1	2	0.4	1283.3333359	1150.0000023	2066.6666708	1500.000003	Major	Wrong_doings	60	You have queued to enter the MRT train	C2_39	0.75	Easy	I2_4	18	Chickens lay eggs	0.0	Yes	LEFT	1202.1798000000672	LEFT	673.61370000026	RIGHT	1039.8746000000756	RIGHT	2139.5794000000024	14.899999999999997	0.4	Probable_Lie	LEFT	LEFT	6	637.3478905012812	52	2021-03-16 15:18:58.575430
2	Self	S210316	0.5	1	2	1	2	0.2	1150.0000023	1433.3333362	2216.6666711000003	2216.6666711000003	Minor	Good_deeds	24	You have made someone cry	C2_10	0.95	Hard	I1_37	23	A caterpillar has more muscle than a human	0.0	No	RIGHT	359.6228000001247	RIGHT	671.555299999909	LEFT	1535.436000000118	RIGHT	1866.02079999966	15.099999999999996	0.2	Probable_Truth	RIGHT	RIGHT	5	823.9629999998215	53	2021-03-16 15:19:23.423609
122	Computer	S210316	0.6666666666666666	2	1	1	2	0.1	1216.6666691	1433.3333362	1783.3333369	1783.3333369	Major	Good_deeds	9	You have given way to the handicapped	C1_47	0.05	Hard	I2_28	8	There are 6 million animal species on Earth	0.777777777777778	No	LEFT	743.8990000000558	LEFT	256.1746000001221	RIGHT	1311.706299999969	RIGHT	1418.2259999997768	15.099999999999996	0.1	Probable_Lie	RIGHT	LEFT	6	540.0260697584498	54	2021-03-16 15:19:46.471465
117	Computer	S210316	0.6666666666666666	1	2	2	1	0.2	1350.0000027	1283.3333359	2216.6666711000003	2500.000005	Minor	Wrong_doings	57	You have stopped using products tested on animals	C2_35	0.1	Hard	I2_56	32	Bears have the biggest eyes among mammals	0.722222222222222	Yes	LEFT	631.4029999998638	LEFT	1054.7357000000377	RIGHT	3339.3780999999763	RIGHT	2462.96779999966	15.099999999999996	0.2	Probable_Truth	LEFT	LEFT	2	530.6222559386733	55	2021-03-16 15:20:14.422796
138	Computer	S210316	0.8333333333333334	2	1	1	2	0.2	1150.0000023	1500.000003	1650.0000033	2066.6666708	Major	Good_deeds	13	You have shown your appreciation to your teachers	C1_51	0.0	Easy	I1_12	26	The Franco-Prussian War occurred in the 19th century	0.888888888888889	No	LEFT	890.3505000002951	LEFT	288.8115000000653	RIGHT	743.9968000003319	RIGHT	1026.297699999759	15.099999999999996	0.2	Probable_Lie	RIGHT	LEFT	3	907.6577518413114	56	2021-03-16 15:20:37.223355
29	Self	S210316	0.6666666666666666	2	1	2	1	0.4	1350.0000027	1000.000002	1650.0000033	2216.6666711000003	Minor	Wrong_doings	42	You have cursed at others	C2_42	0.85	Hard	I1_45	58	Cleopatra was born in Greece	0.944444444444444	Yes	RIGHT	414.41219999978784	RIGHT	463.4605999999621	RIGHT	3254.9087000002146	LEFT	1135.704600000281	15.499999999999996	0.4	Probable_Truth	LEFT	LEFT	2	805.6322999996155	57	2021-03-16 15:21:02.095535
81	Self	S210316	0.8333333333333334	1	2	1	2	0.6	1350.0000027	1500.000003	2500.000005	1933.3333372	Minor	Good_deeds	1	You have stolen something	C2_46	0.0	Hard	I2_60	52	"Statue of Liberty is 151 feet tall"	0.833333333333333	No	RIGHT	472.5415000002613	RIGHT	452.77409999971496	RIGHT	2854.481300000316	RIGHT	1786.6745999999694	16.099999999999998	0.6	Probable_Truth	RIGHT	RIGHT	2	494.9354999998832	58	2021-03-16 15:21:28.023220
10	Self	S210316	0.5	2	1	1	2	0.5	1350.0000027	1500.000003	1783.3333369	2216.6666711000003	Major	Good_deeds	14	You have assisted in a crime	C2_8	0.05	Hard	I2_31	31	Statute of Liberty is in New York	0.0	Yes	RIGHT	521.8832999998995	RIGHT	303.7868999999773	RIGHT	1309.2698000000382	RIGHT	928.4490999998524	16.599999999999998	0.5	Probable_Truth	RIGHT	RIGHT	6	769.2044000000351	59	2021-03-16 15:21:51.286799
49	Self	S210316	0.5	1	2	1	2	0.5	1216.6666691	1350.0000027	1650.0000033	2216.6666711000003	Minor	Good_deeds	4	You have helped your parents when asked to	C2_34	0.2	Easy	I1_60	59	Africa is the continent with the least rainfall	0.0	No	RIGHT	488.1673999998384	RIGHT	522.8413999998338	LEFT	2391.745299999912	RIGHT	2725.568900000326	17.099999999999998	0.5	Probable_Truth	LEFT	LEFT	1	1293.494500000179	60	2021-03-16 15:22:17.728091
52	Self	S210316	0.5	1	2	2	1	0.7	1350.0000027	1066.6666688	2350.0000047	2066.6666708	Minor	Wrong_doings	34	You have helped others to pick up their belongings	C2_16	0.8	Hard	I1_47	36	Most plants emit oxygen in the day	0.611111111111111	Yes	RIGHT	311.5219999999681	RIGHT	584.5171999999366	RIGHT	1981.2738000000536	RIGHT	1446.6363999999885	17.799999999999997	0.7	Probable_Truth	LEFT	RIGHT	5	1293.1825999999091	61	2021-03-16 15:22:42.758297
136	Computer	S210316	0.8333333333333334	2	1	1	2	0.6	1433.3333362	1283.3333359	1933.3333372	1783.3333369	Minor	Good_deeds	38	You have violated a traffic law	C2_19	0.15	Hard	I1_26	36	Polish is 20th most spoken language in the World	0.888888888888889	No	LEFT	1029.969600000186	RIGHT	360.5126000002201	LEFT	1751.140899999882	LEFT	2331.254899999749	17.799999999999997	0.6	Probable_Truth	RIGHT	RIGHT	3	616.4738497716576	62	2021-03-16 15:23:07.855556
27	Self	S210316	0.6666666666666666	2	1	1	2	0.3	1066.6666688	1433.3333362	2500.000005	1933.3333372	Major	Good_deeds	40	You have engaged in underage smoking	C1_6	0.7	Easy	I1_53	53	Saturn's rings are between 30 and 300 feet thick	0.0	No	RIGHT	547.9507999998532	RIGHT	512.4073000001772	RIGHT	2190.436800000043	LEFT	2476.188699999966	18.1	0.3	Probable_Truth	LEFT	LEFT	2	1568.301600000268	63	2021-03-16 15:23:34.663561
61	Self	S210316	0.5	2	1	2	1	0.2	1283.3333359	1216.6666691	1933.3333372	1933.3333372	Minor	Good_deeds	60	You have been restricting your electricity consumption	C2_43	0.55	Easy	I2_21	24	The first Olympic Games was held in the 5th century B.C	0.0	No	RIGHT	1437.5205000001188	RIGHT	16.754799999944225	RIGHT	1996.1859000000004	RIGHT	2207.14100000032	18.3	0.2	Probable_Truth	LEFT	RIGHT	5	980.64340000019	64	2021-03-16 15:24:00.239222
79	Self	S210316	0.6666666666666666	2	1	2	1	0.1	1216.6666691	1000.000002	1650.0000033	1933.3333372	Minor	Wrong_doings	11	You have helped with household chores	C1_15	0.5	Hard	I2_16	5	French is Singapore's official language	0.0	Yes	RIGHT	463.3620999998129	RIGHT	415.5805000000328	LEFT	1437.9501999997046	RIGHT	1295.9980000000542	18.4	0.1	Probable_Truth	LEFT	LEFT	1	1224.7207999998864	65	2021-03-16 15:24:23.454061
28	Self	S210316	0.6666666666666666	2	1	2	1	0.5	1216.6666691	1066.6666688	1500.000003	2500.000005	Minor	Wrong_doings	47	You have sign up to sponsor a needy child	C1_37	0.1	Easy	I2_58	21	Last day of the year is 30th December	0.0	Yes	RIGHT	445.3696000000491	RIGHT	343.4519000002183	RIGHT	1114.3818000000465	LEFT	2928.828000000067	18.9	0.5	Probable_Truth	RIGHT	RIGHT	5	1276.256099999955	66	2021-03-16 15:24:48.422459
21	Self	S210316	0.6666666666666666	1	2	2	1	0.4	1433.3333362	1000.000002	1933.3333372	2350.0000047	Minor	Wrong_doings	57	You have stopped using products tested on animals	C2_35	0.1	Hard	I2_56	32	Bears have the biggest eyes among mammals	0.722222222222222	Yes	RIGHT	424.2847000000438	LEFT	925.2156000002288	LEFT	2937.256300000172	RIGHT	2278.7208999998256	18.5	0.4	Probable_Lie	RIGHT	RIGHT	2	658.7948000001234	67	2021-03-16 15:25:14.934263
25	Self	S210316	0.6666666666666666	2	1	1	2	0.1	1150.0000023	1150.0000023	1933.3333372	2066.6666708	Major	Wrong_doings	18	You have offered a listening ear to a friend	C2_6	1.0	Easy	I2_8	45	Algeria is Africa's second largest country	0.888888888888889	No	RIGHT	1268.326600000364	LEFT	380.73739999981626	RIGHT	2832.4416000000383	RIGHT	1475.2023999999435	18.4	0.1	Probable_Lie	RIGHT	RIGHT	2	795.8374999998341	68	2021-03-16 15:25:40.567015
39	Self	S210316	0.8333333333333334	1	2	2	1	0.7	1433.3333362	1433.3333362	1650.0000033	1500.000003	Major	Wrong_doings	33	You have taken part in burglary	C2_33	0.95	Hard	I2_46	17	There are 20 bones in the human skull	0.0	Yes	RIGHT	287.0130999999674	RIGHT	543.6287999996239	RIGHT	2403.747399999702	LEFT	1743.6549999997624	19.1	0.7	Probable_Truth	RIGHT	RIGHT	6	860.7994999997572	69	2021-03-16 15:26:04.999224
123	Computer	S210316	0.6666666666666666	2	1	1	2	0.5	1283.3333359	1150.0000023	2350.0000047	2066.6666708	Major	Good_deeds	40	You have engaged in underage smoking	C1_6	0.7	Easy	I1_53	53	Saturn's rings are between 30 and 300 feet thick	0.0	No	LEFT	1356.023499999992	LEFT	352.83650000019406	RIGHT	2295.970099999977	LEFT	1860.0268000000144	19.1	0.5	Probable_Truth	LEFT	RIGHT	4	841.4717616518283	70	2021-03-16 15:26:31.118687
5	Self	S210316	0.5	1	2	2	1	0.3	1433.3333362	1216.6666691	2066.6666708	2350.0000047	Minor	Good_deeds	35	You have been physically hurt to protect others	C1_7	0.95	Easy	I1_17	31	Singapore is a poor country	0.0555555555555556	No	RIGHT	1113.6073000002398	RIGHT	756.6375000001244	LEFT	1053.55980000013	LEFT	4592.373200000111	19.4	0.3	Probable_Truth	RIGHT	LEFT	3	1996.9044000004037	71	2021-03-16 15:27:00.271392
97	Computer	S210316	0.5	1	2	1	2	0.7	1433.3333362	1500.000003	1783.3333369	1500.000003	Major	Wrong_doings	16	You have pretended to be busy to avoid a social situation	C2_48	0.0	Hard	I2_5	17	Fibers in oranges can be used to make fabric	0.0	No	LEFT	616.8652999999722	RIGHT	2327.2093000000496	Time_Max_Exceeded	5000.195300000087	LEFT	2332.6521999997567	19.4	0.7	Probable_Truth	RIGHT	LEFT	1	729.889104907282	72	2021-03-16 15:27:30.070976
62	Self	S210316	0.5	2	1	2	1	0.1	1350.0000027	1350.0000027	2216.6666711000003	2066.6666708	Major	Wrong_doings	23	You have returned your trays in food courts	C1_23	0.2	Hard	I1_24	44	Feijoa is a type of grape	0.0	Yes	RIGHT	528.515200000129	LEFT	824.0049000000909	RIGHT	1888.7954000001628	RIGHT	1279.276000000209	19.3	0.1	Probable_Lie	LEFT	LEFT	4	930.5281999995714	73	2021-03-16 15:27:55.078448
22	Self	S210316	0.6666666666666666	1	2	2	1	0.8	1500.000003	1350.0000027	1783.3333369	2066.6666708	Major	Good_deeds	35	You have bought cigarettes for a minor	C1_22	0.95	Hard	I1_19	40	Malay is one of the races in Singapore	0.0	Yes	RIGHT	808.2841000000371	LEFT	979.1206999998394	LEFT	1575.1071999998203	LEFT	2295.7102999998824	18.5	0.8	Probable_Lie	RIGHT	RIGHT	1	677.4153999999726	74	2021-03-16 15:28:20.686577
85	Self	S210316	0.8333333333333334	1	2	2	1	0.4	1000.000002	1350.0000027	1500.000003	1650.0000033	Major	Wrong_doings	46	You have used heroin	C1_43	0.65	Hard	I2_52	25	It sometimes snows in Singapore	0.0555555555555556	Yes	RIGHT	760.0649999999405	LEFT	1516.650799999752	LEFT	1791.8675000000803	LEFT	1377.1151000000827	18.1	0.4	Probable_Lie	RIGHT	RIGHT	1	731.2550000001465	75	2021-03-16 15:28:44.935614
56	Self	S210316	0.5	2	1	1	2	0.4	1433.3333362	1150.0000023	2500.000005	1783.3333369	Minor	Wrong_doings	59	You have engaged in drink-driving	C1_42	1.0	Hard	I1_44	21	Penguin can fly with their wings	0.944444444444444	No	RIGHT	1321.9786000004206	LEFT	328.3462999997937	LEFT	2279.255899999953	LEFT	1624.76979999974	17.7	0.4	Probable_Lie	RIGHT	RIGHT	1	1071.5179999997415	76	2021-03-16 15:29:11.006293
73	Self	S210316	0.6666666666666666	2	1	1	2	0.5	1350.0000027	1500.000003	2066.6666708	2216.6666711000003	Major	Wrong_doings	11	You have taken part in violent demonstration	C1_36	0.0	Hard	I1_10	46	There are 9 rings in the Olympic flag	0.722222222222222	Yes	RIGHT	550.264900000002	RIGHT	313.0895999997847	LEFT	3792.601399999967	LEFT	1528.56840000004	18.2	0.5	Probable_Truth	LEFT	LEFT	1	915.3873000000204	77	2021-03-16 15:29:37.815159
54	Self	S210316	0.5	1	2	2	1	0.4	1000.000002	1150.0000023	2500.000005	1500.000003	Major	Good_deeds	50	You have been convicted in court	C1_31	1.0	Easy	I1_27	60	There are 10 continents in the World	0.0555555555555556	Yes	RIGHT	319.2309999999452	RIGHT	1734.260500000346	RIGHT	2716.6096000000834	LEFT	1040.1139999999032	18.6	0.4	Probable_Truth	LEFT	RIGHT	4	704.0626000002703	78	2021-03-16 15:30:03.053855
76	Self	S210316	0.6666666666666666	2	1	2	1	0.3	1066.6666688	1350.0000027	1783.3333369	2350.0000047	Major	Good_deeds	54	You have fabricated facts about yourself	C2_30	1.0	Easy	I2_25	10	Mozambique is the world's poorest country	0.0555555555555556	No	RIGHT	465.0178000001688	RIGHT	295.8472999998776	RIGHT	2359.842100000151	RIGHT	2558.98389999993	18.9	0.3	Probable_Lie	LEFT	LEFT	3	758.074299999862	79	2021-03-16 15:30:28.622053
67	Self	S210316	0.6666666666666666	1	2	1	2	0.2	1283.3333359	1433.3333362	1783.3333369	2066.6666708	Major	Good_deeds	27	You have started an NGO using your savings	C2_47	0.9	Easy	I1_6	6	The Earth is round	0.0	Yes	RIGHT	312.3583999999937	RIGHT	635.6057000002693	RIGHT	2200.138600000173	LEFT	2527.259800000138	19.1	0.2	Probable_Truth	LEFT	LEFT	1	1238.4615999999369	80	2021-03-16 15:30:54.671366
18	Self	S210316	0.6666666666666666	1	2	1	2	0.3	1000.000002	1283.3333359	1650.0000033	1500.000003	Minor	Wrong_doings	50	You have deceived a loved one	C2_1	0.65	Easy	I1_15	56	Nanyang Technological University is in Australia	0.611111111111111	No	RIGHT	736.614599999939	RIGHT	1879.7492999997305	LEFT	1481.611299999713	LEFT	2092.6015000000007	19.4	0.3	Probable_Truth	LEFT	LEFT	2	879.7974000003705	81	2021-03-16 15:31:19.751144
105	Computer	S210316	0.5	2	1	1	2	0.5	1066.6666688	1066.6666688	2350.0000047	1933.3333372	Minor	Wrong_doings	17	You have been donating all your excess food to a food bank	C1_53	1.0	Hard	I2_2	2	The sun rises at night	0.888888888888889	No	LEFT	584.6750999999131	RIGHT	361.4930000003369	LEFT	2720.184599999812	LEFT	3581.423099999938	19.4	0.5	Probable_Truth	LEFT	RIGHT	5	950.3301675711	82	2021-03-16 15:31:46.933885
58	Self	S210316	0.5	2	1	1	2	0.8	1500.000003	1283.3333359	1783.3333369	1650.0000033	Major	Good_deeds	14	You have given directions to a lost tourist	C1_60	0.45	Hard	I1_41	23	Mageirocophobia is a fear of deathly disease	0.777777777777778	Yes	RIGHT	1153.791799999908	RIGHT	446.9377999998869	RIGHT	3528.526300000067	RIGHT	1223.7371999999596	20.2	0.8	Probable_Truth	RIGHT	LEFT	1	1320.191899999827	83	2021-03-16 15:32:13.397727
121	Computer	S210316	0.6666666666666666	2	1	1	2	0.8	1433.3333362	1350.0000027	2066.6666708	1650.0000033	Major	Wrong_doings	18	You have offered a listening ear to a friend	C2_6	1.0	Easy	I2_8	45	Algeria is Africa's second largest country	0.888888888888889	No	LEFT	1289.3063000001348	LEFT	304.93899999964924	LEFT	4080.3796999998663	RIGHT	1227.7346000000762	20.2	0.8	Probable_Lie	LEFT	RIGHT	2	974.678216492375	84	2021-03-16 15:32:40.342542
98	Computer	S210316	0.5	1	2	1	2	0.2	1150.0000023	1216.6666691	1933.3333372	2350.0000047	Minor	Good_deeds	24	You have made someone cry	C2_10	0.95	Hard	I1_37	23	A caterpillar has more muscle than a human	0.0	No	LEFT	504.5187000000624	LEFT	1965.1871000000936	LEFT	1430.2612999999835	RIGHT	1067.1449000001303	20.2	0.2	Probable_Lie	RIGHT	LEFT	6	605.0646427017558	85	2021-03-16 15:33:05.125706
77	Self	S210316	0.6666666666666666	2	1	2	1	0.7	1433.3333362	1216.6666691	1933.3333372	2066.6666708	Major	Good_deeds	36	You have volunteered for a disaster-related humanitarian mission	C2_54	0.0	Hard	I1_39	16	Earth's atmosphere extends up to 10,000km into space	0.0555555555555556	Yes	RIGHT	499.5471000001999	RIGHT	288.2241000002068	RIGHT	2398.66260000008	RIGHT	1960.2113999999349	20.9	0.7	Probable_Truth	RIGHT	RIGHT	5	618.4377999998105	86	2021-03-16 15:33:30.118378
127	Computer	S210316	0.6666666666666666	2	1	2	1	0.7	1350.0000027	1500.000003	1933.3333372	2350.0000047	Minor	Good_deeds	6	You have been arrested	C1_9	0.0	Hard	I1_21	28	Brazil is in South America	0.0555555555555556	No	LEFT	1208.8214999998854	LEFT	264.3772000001263	RIGHT	1482.5568000001113	LEFT	1455.1971000000776	20.9	0.7	Probable_Lie	LEFT	RIGHT	1	868.749382344666	87	2021-03-16 15:33:55.102133
59	Self	S210316	0.5	2	1	1	2	0.6	1150.0000023	1066.6666688	1500.000003	2216.6666711000003	Major	Wrong_doings	42	You have faked an illness	C2_59	0.05	Easy	I2_51	41	A triangle has three sides	0.0555555555555556	Yes	RIGHT	966.2952999997289	RIGHT	760.8445999999276	RIGHT	2487.7347999999984	LEFT	2321.0512000000563	21.5	0.6	Probable_Truth	RIGHT	RIGHT	5	664.5432000000255	88	2021-03-16 15:34:20.807158
13	Self	S210316	0.5	2	1	2	1	0.4	1150.0000023	1150.0000023	2350.0000047	1500.000003	Major	Wrong_doings	52	You have watched a pirated movie	C2_52	1.0	Easy	I2_30	58	The current century is 21st	0.0	No	RIGHT	554.6849999996084	RIGHT	535.5829000000085	RIGHT	1765.048399999614	LEFT	1622.9465999999777	21.9	0.4	Probable_Truth	RIGHT	LEFT	1	1226.5769000000546	89	2021-03-16 15:34:45.238458
84	Self	S210316	0.8333333333333334	1	2	2	1	0.7	1150.0000023	1216.6666691	2066.6666708	2350.0000047	Major	Wrong_doings	26	You have rescued others from a catastrophe	C1_19	1.0	Easy	I2_38	28	Astatine is the rarest element in the Earth's crust	0.0	No	RIGHT	704.1712999998708	LEFT	815.2035000002797	RIGHT	2445.532000000185	LEFT	1656.0699999999997	21.2	0.7	Probable_Lie	RIGHT	RIGHT	1	727.9773000000205	90	2021-03-16 15:35:10.942562
87	Self	S210316	0.8333333333333334	1	2	2	1	0.5	1433.3333362	1066.6666688	2350.0000047	2216.6666711000003	Major	Good_deeds	31	You have stopped using plastics completely	C1_49	0.0	Easy	I1_25	38	Slavery was abolished in Cuba in 1886	0.888888888888889	Yes	RIGHT	334.0447000000495	RIGHT	523.8740999998299	RIGHT	2102.1295000000464	LEFT	2280.089500000031	21.7	0.5	Probable_Truth	LEFT	LEFT	1	1396.530299999995	91	2021-03-16 15:35:37.222457
91	Self	S210316	0.8333333333333334	2	1	1	2	0.5	1433.3333362	1000.000002	1783.3333369	2066.6666708	Major	Wrong_doings	45	You have blackmailed others for money	C2_23	0.9	Hard	I2_50	43	The Seine river is 50 feet above sea level	0.0	No	RIGHT	1066.9566999999915	RIGHT	247.458800000004	RIGHT	2399.128000000019	LEFT	1934.271600000102	22.2	0.5	Probable_Truth	LEFT	LEFT	1	600.1565000001392	92	2021-03-16 15:36:02.325724
33	Self	S210316	0.8333333333333334	1	2	1	2	0.3	1283.3333359	1350.0000027	1933.3333372	1650.0000033	Minor	Good_deeds	48	You have said thank you when you have received help	C2_36	0.0	Hard	I1_13	42	Beef comes from cows	0.666666666666667	Yes	RIGHT	271.9144000002416	RIGHT	732.5197000000117	RIGHT	1896.539700000176	RIGHT	2016.1951999998564	22.5	0.3	Probable_Truth	RIGHT	RIGHT	4	574.7744000000239	93	2021-03-16 15:36:26.606517
131	Computer	S210316	0.8333333333333334	1	2	1	2	0.8	1283.3333359	1350.0000027	2500.000005	1650.0000033	Major	Good_deeds	36	You have told someone's secret to others	C2_27	0.85	Easy	I2_17	1	Singapore ranked 8th in World's smallest countries	0.764705882352941	Yes	LEFT	392.6704000000427	LEFT	1074.063699999897	LEFT	3311.588099999881	LEFT	2893.2426999999734	22.5	0.8	Probable_Lie	RIGHT	RIGHT	1	611.4719607178323	94	2021-03-16 15:36:54.253276
106	Computer	S210316	0.5	2	1	1	2	0.3	1350.0000027	1216.6666691	1933.3333372	1650.0000033	Major	Good_deeds	14	You have assisted in a crime	C2_8	0.05	Hard	I2_31	31	Statute of Liberty is in New York	0.0	Yes	LEFT	1508.751200000006	LEFT	248.27370000002705	RIGHT	1048.2160999999903	LEFT	1262.2130999998262	22.5	0.3	Probable_Lie	LEFT	LEFT	4	982.7962593840656	95	2021-03-16 15:37:18.029885
132	Computer	S210316	0.8333333333333334	1	2	2	1	0.4	1150.0000023	1216.6666691	1500.000003	2350.0000047	Major	Wrong_doings	59	You have eaten something in the MRT train	C1_59	0.2	Hard	I2_22	35	February has 30 days	0.0	No	RIGHT	431.673900000078	LEFT	686.7570999997952	LEFT	3867.3351000002185	LEFT	3344.0089000000626	22.1	0.4	Probable_Truth	RIGHT	RIGHT	5	745.6718089180948	96	2021-03-16 15:44:12.140810
9	Self	S210316	0.5	2	1	1	2	0.7	1000.000002	1433.3333362	1650.0000033	1783.3333369	Minor	Wrong_doings	17	You have been donating all your excess food to a food bank	C1_53	1.0	Hard	I2_2	2	The sun rises at night	0.888888888888889	No	RIGHT	1151.905799999895	LEFT	335.8502999999473	LEFT	1416.456399999788	LEFT	3187.753899999734	21.4	0.7	Probable_Lie	RIGHT	RIGHT	3	1200.0269999998636	97	2021-03-16 15:44:37.884670
63	Self	S210316	0.5	2	1	2	1	0.7	1066.6666688	1433.3333362	1650.0000033	1500.000003	Minor	Good_deeds	43	You have organized a violent protest	C2_2	1.0	Hard	I2_45	53	The Earth turns the closest to the sun in May	0.166666666666667	Yes	RIGHT	1463.0692999999155	LEFT	729.2099000001144	Time_Max_Exceeded	5000.320900000133	LEFT	1780.4975999997623	20.700000000000003	0.7	Probable_Lie	LEFT	LEFT	5	1308.9170999996895	98	2021-03-16 15:45:06.389179
89	Self	S210316	0.8333333333333334	2	1	1	2	0.3	1000.000002	1216.6666691	1650.0000033	1500.000003	Minor	Good_deeds	12	You have taken months off to volunteer	C2_56	0.85	Hard	I1_3	3	There are 30 hours in a day	0.0	Yes	RIGHT	1631.5208000000894	LEFT	713.222300000325	LEFT	3176.646899999924	RIGHT	2062.767299999905	20.4	0.3	Probable_Lie	LEFT	LEFT	6	740.9152999998696	99	2021-03-16 15:45:32.653001
118	Computer	S210316	0.6666666666666666	1	2	2	1	0.3	1000.000002	1500.000003	2350.0000047	2350.0000047	Major	Good_deeds	35	You have bought cigarettes for a minor	C1_22	0.95	Hard	I1_19	40	Malay is one of the races in Singapore	0.0	Yes	LEFT	894.7467999996661	LEFT	1084.0744000001905	RIGHT	1803.0120999997048	LEFT	1600.2077000002828	20.4	0.3	Probable_Lie	RIGHT	RIGHT	1	577.0235509722315	100	2021-03-16 15:45:58.388669
99	Computer	S210316	0.5	1	2	1	2	0.6	1500.000003	1066.6666688	2350.0000047	1783.3333369	Major	Wrong_doings	7	You have cheated on a national exam	C1_39	0.05	Hard	I1_14	14	The hyoid bone is the only jointless bone	0.611111111111111	Yes	LEFT	473.1680999998389	RIGHT	771.2871000003361	LEFT	2214.603700000225	LEFT	2272.6697000002787	20.4	0.6	Probable_Truth	LEFT	RIGHT	4	909.4784285180052	101	2021-03-16 15:46:24.309372
3	Self	S210316	0.5	1	2	1	2	0.7	1500.000003	1150.0000023	2350.0000047	1783.3333369	Major	Wrong_doings	7	You have cheated on a national exam	C1_39	0.05	Hard	I1_14	14	The hyoid bone is the only jointless bone	0.611111111111111	Yes	RIGHT	151.81089999987307	RIGHT	539.5895000001474	LEFT	998.9427000000431	LEFT	1522.966500000166	21.1	0.7	Probable_Truth	RIGHT	RIGHT	6	1298.9745999998377	102	2021-03-16 15:46:48.180802
23	Self	S210316	0.6666666666666666	1	2	2	1	0.2	1150.0000023	1150.0000023	2350.0000047	1783.3333369	Major	Wrong_doings	1	You have held the elevator doors for others	C1_50	0.0	Hard	I2_34	34	Today is a weekday	0.0	Yes	RIGHT	455.4533000000447	RIGHT	532.2926999997435	RIGHT	1345.4138000006424	RIGHT	1528.200900000229	21.3	0.2	Probable_Truth	LEFT	LEFT	1	1586.352000000261	103	2021-03-16 15:47:12.638544
57	Self	S210316	0.5	2	1	1	2	0.3	1216.6666691	1000.000002	2066.6666708	2350.0000047	Major	Wrong_doings	29	You have provided shelter for stray animals	C1_29	0.9	Easy	I1_23	45	Kangaroos live in Africa	0.777777777777778	No	RIGHT	413.8111000002027	LEFT	305.9617999997499	LEFT	1208.400900000015	RIGHT	1059.5897000002878	21.0	0.3	Probable_Lie	LEFT	RIGHT	1	1094.0891000000192	104	2021-03-16 15:47:35.925530
68	Self	S210316	0.6666666666666666	1	2	2	1	0.1	1216.6666691	1000.000002	2216.6666711000003	2216.6666711000003	Minor	Good_deeds	9	You have done something against your values	C2_20	0.95	Easy	I1_52	33	Arabi is the oldest surviving breed of horse	1.0	No	RIGHT	80.23159999993368	RIGHT	257.17489999988175	LEFT	3415.954300000521	LEFT	2672.436800000469	21.1	0.1	Probable_Truth	RIGHT	RIGHT	5	499.2400000000998	105	2021-03-16 15:48:02.078015
17	Self	S210316	0.6666666666666666	1	2	1	2	0.7	1066.6666688	1500.000003	2216.6666711000003	2216.6666711000003	Major	Good_deeds	22	You have lied to your parents	C1_24	0.95	Easy	I2_26	19	Some owl species hunt fish	0.111111111111111	Yes	RIGHT	359.04590000063763	RIGHT	87.73759999985487	RIGHT	2736.124000000018	RIGHT	1439.3489000003683	21.8	0.7	Probable_Truth	LEFT	LEFT	2	1269.1806000002543	106	2021-03-16 15:48:27.549360
48	Self	S210316	0.5	1	2	1	2	0.3	1500.000003	1433.3333362	2066.6666708	2350.0000047	Major	Good_deeds	16	You have adopted a zero-waste lifestyle	C1_4	0.7	Hard	I2_36	55	The Eiffel Tower is in Paris	1.0	No	RIGHT	287.71899999992456	LEFT	630.2807000001849	RIGHT	2032.401899999968	LEFT	1235.0303000002896	21.5	0.3	Probable_Lie	LEFT	RIGHT	2	668.0151000000478	107	2021-03-16 15:48:52.325099
36	Self	S210316	0.8333333333333334	1	2	2	1	0.8	1500.000003	1216.6666691	1500.000003	1933.3333372	Major	Wrong_doings	59	You have eaten something in the MRT train	C1_59	0.2	Hard	I2_22	35	February has 30 days	0.0	No	RIGHT	225.47320000012405	RIGHT	564.5813999999518	LEFT	1686.0747999999148	LEFT	1407.3277000006783	22.3	0.8	Probable_Truth	RIGHT	RIGHT	5	640.1992999999493	108	2021-03-16 15:49:15.573903
20	Self	S210316	0.6666666666666666	1	2	2	1	0.5	1283.3333359	1216.6666691	1500.000003	1650.0000033	Minor	Good_deeds	58	You have taken responsibility for your actions	C2_3	1.0	Easy	I2_40	26	The hardest bone in human body is the jawbone	0.666666666666667	No	RIGHT	80.80669999981183	RIGHT	270.11920000040845	LEFT	3622.44869999995	RIGHT	2319.754500000272	22.8	0.5	Probable_Truth	RIGHT	RIGHT	4	457.8701999998884	109	2021-03-16 15:49:40.548686
86	Self	S210316	0.8333333333333334	1	2	2	1	0.1	1283.3333359	1150.0000023	1650.0000033	2066.6666708	Minor	Good_deeds	49	You have kidnapped someone	C1_1	0.0	Easy	I1_57	60	Vegetarians can eat vegetable products	0.0555555555555556	Yes	LEFT	2144.284699999844	RIGHT	1118.9346999999543	RIGHT	3998.9977999994153	LEFT	895.6602999996903	22.8	0.1	Probable_Lie	RIGHT	RIGHT	1	462.675599999784	110	2021-03-16 15:50:07.892774
35	Self	S210316	0.8333333333333334	1	2	1	2	0.6	1216.6666691	1066.6666688	2500.000005	1783.3333369	Major	Good_deeds	36	You have told someone's secret to others	C2_27	0.85	Easy	I2_17	1	Singapore ranked 8th in World's smallest countries	0.764705882352941	Yes	RIGHT	744.786700000077	RIGHT	558.1843999998455	LEFT	1872.1653000002332	LEFT	2915.1904000000286	23.4	0.6	Probable_Truth	RIGHT	RIGHT	2	650.933900000382	111	2021-03-16 15:50:33.773385
50	Self	S210316	0.5	1	2	1	2	0.6	1433.3333362	1500.000003	2216.6666711000003	1650.0000033	Major	Wrong_doings	40	You have donated a pay cheque to charity	C1_20	1.0	Hard	I1_11	47	Septicemia is a lung infection condition	0.0	Yes	RIGHT	328.7442999999257	LEFT	1223.473600000034	RIGHT	2783.3917000007204	RIGHT	2748.7836999998763	22.8	0.6	Probable_Lie	LEFT	LEFT	4	883.7184000003617	112	2021-03-16 15:51:01.117109
71	Self	S210316	0.6666666666666666	1	2	2	1	0.4	1500.000003	1500.000003	2066.6666708	2500.000005	Minor	Good_deeds	34	You have signed up as a bone marrow donor	C1_5	0.7	Hard	I2_43	4	R. Amundsen discovered the South Pole	0.0	No	RIGHT	1120.6700000002456	RIGHT	348.2091000005312	RIGHT	2773.5288000003493	LEFT	1392.5647999994908	23.2	0.4	Probable_Truth	RIGHT	RIGHT	4	534.5557999999073	113	2021-03-16 15:51:27.428853
111	Computer	S210316	0.5	2	1	2	1	0.8	1216.6666691	1433.3333362	1650.0000033	2216.6666711000003	Minor	Wrong_doings	45	You have claimed doing things that you never did	C1_44	0.0	Easy	I1_9	54	Teddy Roosevelt was the youngest US President	0.0	Yes	LEFT	1151.4507000001686	LEFT	296.2323000001561	LEFT	3304.2390000000523	LEFT	2639.7015000002284	23.2	0.8	Probable_Lie	LEFT	LEFT	4	712.3565850161187	114	2021-03-16 15:51:54.629570
101	Computer	S210316	0.5	1	2	2	1	0.5	1066.6666688	1433.3333362	2066.6666708	1650.0000033	Minor	Good_deeds	35	You have been physically hurt to protect others	C1_7	0.95	Easy	I1_17	31	Singapore is a poor country	0.0555555555555556	No	RIGHT	360.2236000006087	LEFT	1400.7107999996151	LEFT	1080.3880999992543	LEFT	2528.090300000258	22.7	0.5	Probable_Truth	RIGHT	LEFT	1	837.8277768929308	115	2021-03-16 15:52:19.621518
16	Self	S210316	0.6666666666666666	1	2	1	2	0.1	1216.6666691	1066.6666688	2066.6666708	1933.3333372	Major	Good_deeds	3	You have a non-judgmental attitude towards everyone	C2_58	0.25	Easy	I1_50	50	Cheese is an Asian staple	0.833333333333333	No	RIGHT	696.1402999995698	LEFT	1101.5606000000844	LEFT	1064.7597999995924	RIGHT	3038.1313999996564	22.6	0.1	Probable_Lie	LEFT	LEFT	6	1037.34170000007	116	2021-03-16 15:52:45.412891
130	Computer	S210316	0.8333333333333334	1	2	1	2	0.7	1350.0000027	1433.3333362	2216.6666711000003	2066.6666708	Minor	Good_deeds	25	You have lost everything just to help others	C1_48	0.0	Hard	I1_42	46	Milwaukee Art Museum is located in California	0.833333333333333	No	LEFT	368.1345000004512	RIGHT	1757.3824999999488	LEFT	2151.324100000238	LEFT	1653.8510999998834	22.6	0.7	Probable_Truth	RIGHT	RIGHT	3	993.3226504466209	117	2021-03-16 15:53:11.981446
126	Computer	S210316	0.6666666666666666	2	1	2	1	0.6	1500.000003	1283.3333359	1500.000003	1500.000003	Minor	Good_deeds	6	You have donated blood every 6 months for many years	C2_18	1.0	Easy	I1_29	29	Beer is an alcoholic drink	0.722222222222222	Yes	LEFT	1160.7082999998966	RIGHT	608.0073000002812	RIGHT	1974.387100000058	LEFT	1071.5580000005502	22.6	0.6	Probable_Truth	LEFT	LEFT	1	888.6760816745622	118	2021-03-16 15:53:36.036193
65	Self	S210316	0.6666666666666666	1	2	1	2	0.8	1066.6666688	1150.0000023	1650.0000033	1500.000003	Major	Wrong_doings	47	You have been sued	C2_37	0.0	Hard	I2_6	41	Singapore is in Africa	0.777777777777778	Yes	RIGHT	520.0011999995695	LEFT	1246.4474999997035	RIGHT	959.228499999881	LEFT	1519.648400000733	21.8	0.8	Probable_Lie	LEFT	LEFT	6	766.8064999998023	119	2021-03-16 15:53:58.989439
41	Self	S210316	0.8333333333333334	2	1	1	2	0.2	1500.000003	1216.6666691	2350.0000047	1933.3333372	Major	Good_deeds	19	You have engaged in arson	C2_60	0.0	Hard	I2_18	4	Marijuana is legal in Singapore	0.0	No	RIGHT	1121.7567000003328	LEFT	519.7554999995191	LEFT	2929.3074000006527	LEFT	1626.5946000003169	21.6	0.2	Probable_Lie	RIGHT	RIGHT	1	694.6906000002855	120	2021-03-16 15:54:25.460905
82	Self	S210316	0.8333333333333334	1	2	1	2	0.8	1066.6666688	1000.000002	2216.6666711000003	1783.3333369	Minor	Wrong_doings	7	You have used a fake name online	C2_7	0.7	Hard	I1_40	57	Animals are living things	0.888888888888889	No	RIGHT	848.1150000006892	LEFT	1952.233900000465	RIGHT	1191.771400000107	LEFT	2466.985500000192	20.8	0.8	Probable_Lie	RIGHT	RIGHT	1	724.5748000004824	121	2021-03-16 15:54:51.284739
37	Self	S210316	0.8333333333333334	1	2	2	1	0.1	1000.000002	1500.000003	2216.6666711000003	2216.6666711000003	Minor	Good_deeds	13	You have extorted money from anyone	C2_25	0.8	Easy	I2_44	44	Nomophobia is the fear of being without a phone or computer	0.0	Yes	RIGHT	288.92029999951774	RIGHT	393.6281000005693	RIGHT	2456.085599999824	LEFT	1087.9393999994136	20.9	0.1	Probable_Truth	LEFT	LEFT	1	603.0166999998983	122	2021-03-16 15:55:15.619722
124	Computer	S210316	0.6666666666666666	2	1	2	1	0.2	1150.0000023	1000.000002	2500.000005	1933.3333372	Minor	Wrong_doings	47	You have sign up to sponsor a needy child	C1_37	0.1	Easy	I2_58	21	Last day of the year is 30th December	0.0	Yes	LEFT	974.503000000368	RIGHT	568.5991000000286	RIGHT	2220.471200000248	LEFT	4103.320899999744	20.9	0.2	Probable_Truth	RIGHT	LEFT	2	661.5589430161356	123	2021-03-16 15:55:43.308974
141	Computer	S210316	0.8333333333333334	2	1	2	1	0.5	1000.000002	1433.3333362	1500.000003	1933.3333372	Major	Wrong_doings	8	You have bought cocaine	C2_13	1.0	Hard	I1_38	12	Hot chocolate was created by the Mayan culture	0.666666666666667	Yes	LEFT	1487.122000000454	LEFT	281.20060000037483	LEFT	3188.4172000000035	LEFT	952.9646999999386	20.9	0.5	Probable_Lie	LEFT	RIGHT	1	620.0267703816583	124	2021-03-16 15:56:08.270608
26	Self	S210316	0.6666666666666666	2	1	1	2	0.6	1283.3333359	1216.6666691	2350.0000047	1500.000003	Major	Good_deeds	9	You have given way to the handicapped	C1_47	0.05	Hard	I2_28	8	There are 6 million animal species on Earth	0.777777777777778	No	RIGHT	794.177500000842	RIGHT	423.59699999997247	RIGHT	991.421600000649	RIGHT	1951.0841999999684	21.5	0.6	Probable_Truth	LEFT	LEFT	2	557.4639000005845	125	2021-03-16 15:56:31.916518
125	Computer	S210316	0.6666666666666666	2	1	2	1	0.3	1066.6666688	1066.6666688	2216.6666711000003	2216.6666711000003	Minor	Wrong_doings	42	You have cursed at others	C2_42	0.85	Hard	I1_45	58	Cleopatra was born in Greece	0.944444444444444	Yes	LEFT	2065.340600000127	LEFT	111.32230000021082	LEFT	1896.9314999994824	LEFT	1591.0531999998057	21.5	0.3	Probable_Truth	LEFT	RIGHT	3	873.7003869776314	126	2021-03-16 15:56:57.589023
74	Self	S210316	0.6666666666666666	2	1	1	2	0.2	1150.0000023	1433.3333362	2216.6666711000003	1500.000003	Minor	Good_deeds	58	You have sold illegal drugs	C1_58	0.65	Easy	I2_39	39	Summer is hotter than winter	0.666666666666667	No	RIGHT	913.582199999837	RIGHT	1424.4834999999512	RIGHT	1312.1254000006957	LEFT	1613.5541000003286	21.7	0.2	Probable_Truth	RIGHT	RIGHT	6	627.492099999472	127	2021-03-16 15:57:22.357633
78	Self	S210316	0.6666666666666666	2	1	2	1	0.4	1500.000003	1283.3333359	1500.000003	2500.000005	Minor	Good_deeds	15	You have intentionally let others cut in line	C2_57	0.85	Hard	I1_46	25	The human's inner ear is larger than a pencil eraser	0.0	No	RIGHT	1204.5965999996042	LEFT	536.3415000001623	RIGHT	3883.7265000001935	RIGHT	2887.407600000188	21.3	0.4	Probable_Lie	RIGHT	RIGHT	1	512.9893999992419	128	2021-03-16 15:57:50.739749
107	Computer	S210316	0.5	2	1	1	2	0.1	1283.3333359	1150.0000023	2216.6666711000003	1500.000003	Minor	Good_deeds	8	You have bribed someone to improve a grade	C1_14	0.55	Easy	I1_2	2	Airbags in cars are filled with sodium azide	0.0	No	LEFT	1093.5895000002347	LEFT	2407.828800000061	LEFT	1247.873899999831	LEFT	1446.049299999686	21.3	0.1	Probable_Lie	RIGHT	LEFT	5	514.5866704647718	129	2021-03-16 15:58:16.172680
119	Computer	S210316	0.6666666666666666	1	2	2	1	0.7	1500.000003	1433.3333362	2066.6666708	1650.0000033	Major	Wrong_doings	1	You have held the elevator doors for others	C1_50	0.0	Hard	I2_34	34	Today is a weekday	0.0	Yes	LEFT	873.1047999999646	LEFT	1301.1534999996002	RIGHT	1112.6917000001413	RIGHT	1488.6767999996664	21.3	0.7	Probable_Truth	RIGHT	LEFT	1	559.0803525161826	130	2021-03-16 15:58:40.733035
51	Self	S210316	0.5	1	2	1	2	0.8	1150.0000023	1283.3333359	1933.3333372	2500.000005	Major	Wrong_doings	29	You have borrowed things and never returned	C2_29	0.0	Easy	I2_12	27	Dutch is the 6th Europe's most widely spoken language	0.111111111111111	Yes	RIGHT	391.20719999937137	RIGHT	611.2670000002254	LEFT	3744.240799999716	RIGHT	2012.6767000001564	22.1	0.8	Probable_Truth	RIGHT	RIGHT	4	951.3452999999572	131	2021-03-16 15:59:07.885339
133	Computer	S210316	0.8333333333333334	1	2	2	1	0.6	1066.6666688	1150.0000023	2350.0000047	1783.3333369	Minor	Good_deeds	13	You have extorted money from anyone	C2_25	0.8	Easy	I2_44	44	Nomophobia is the fear of being without a phone or computer	0.0	Yes	LEFT	270.57539999987057	LEFT	1118.8903000002028	RIGHT	1994.13100000038	LEFT	968.8961000001656	22.1	0.6	Probable_Lie	RIGHT	LEFT	2	749.6590411687912	132	2021-03-16 15:59:31.908697
113	Computer	S210316	0.6666666666666666	1	2	1	2	0.4	1216.6666691	1350.0000027	1783.3333369	1783.3333369	Major	Good_deeds	22	You have lied to your parents	C1_24	0.95	Easy	I2_26	19	Some owl species hunt fish	0.111111111111111	Yes	RIGHT	647.376400000212	RIGHT	653.9022999995723	RIGHT	1974.4269000002528	RIGHT	1202.1457999999257	22.5	0.4	Probable_Truth	RIGHT	RIGHT	4	951.441538520038	133	2021-03-16 15:59:56.044173
8	Self	S210316	0.5	2	1	1	2	0.6	1216.6666691	1066.6666688	2066.6666708	1650.0000033	Major	Wrong_doings	53	You have risked your life to save another person's life	C2_45	0.0	Easy	I2_35	35	It is night time now	0.833333333333333	Yes	RIGHT	918.4408000000984	RIGHT	327.85580000017944	LEFT	1040.359599999647	LEFT	1529.370399999607	23.1	0.6	Probable_Truth	LEFT	RIGHT	4	730.2589000000808	134	2021-03-16 16:00:19.164116
83	Self	S210316	0.8333333333333334	1	2	1	2	0.3	1216.6666691	1283.3333359	1933.3333372	2500.000005	Major	Wrong_doings	19	You have kept your promises	C2_31	0.05	Hard	I2_1	1	Afghan Hound is the first cloned cat	1.0	Yes	RIGHT	296.68779999974504	RIGHT	515.684500000134	RIGHT	1022.8407000004154	RIGHT	1245.6802999995489	23.4	0.3	Probable_Truth	LEFT	LEFT	1	1937.94220000018	135	2021-03-16 16:00:43.693229
43	Self	S210316	0.8333333333333334	2	1	1	2	0.6	1350.0000027	1350.0000027	1933.3333372	2066.6666708	Major	Wrong_doings	60	You have queued to enter the MRT train	C2_39	0.75	Easy	I2_4	18	Chickens lay eggs	0.0	Yes	RIGHT	1547.3446000005424	RIGHT	270.6450000005134	RIGHT	1056.748900000457	RIGHT	1806.524900000113	24.000000000000004	0.6	Probable_Truth	LEFT	LEFT	1	876.1335999997755	136	2021-03-16 16:01:08.524493
24	Self	S210316	0.6666666666666666	2	1	1	2	0.8	1433.3333362	1283.3333359	1783.3333369	2350.0000047	Major	Wrong_doings	37	You have downloaded pirated movies	C2_40	0.05	Hard	I2_11	11	Christmas Day is in March	0.0555555555555556	Yes	RIGHT	793.1773000000248	RIGHT	319.63509999968664	LEFT	959.7992000008162	LEFT	1235.666800000217	24.800000000000004	0.8	Probable_Truth	LEFT	LEFT	2	1097.8295000004437	137	2021-03-16 16:01:32.356241
142	Computer	S210316	0.8333333333333334	2	1	2	1	0.3	1350.0000027	1000.000002	2500.000005	2500.000005	Minor	Good_deeds	3	You have started a hotline for victims of bully	C1_3	0.0	Easy	I2_13	49	It is 20th Century now	0.0	Yes	LEFT	1077.2127000000182	LEFT	280.54919999976846	LEFT	1832.2949000003064	RIGHT	1958.713400000306	24.800000000000004	0.3	Probable_Lie	RIGHT	LEFT	6	535.7713684947832	138	2021-03-16 16:01:57.957447
69	Self	S210316	0.6666666666666666	1	2	2	1	0.7	1150.0000023	1283.3333359	2500.000005	1650.0000033	Minor	Wrong_doings	20	You have held the door open for a stranger	C1_46	0.0	Hard	I1_4	33	Singapore has four seasons	0.888888888888889	No	RIGHT	880.1461000002746	RIGHT	510.28470000073867	LEFT	1161.4159000000654	RIGHT	1392.4385000000257	25.500000000000004	0.7	Probable_Truth	RIGHT	RIGHT	6	612.4727000005805	139	2021-03-16 16:02:21.668798
129	Computer	S210316	0.8333333333333334	1	2	1	2	0.3	1000.000002	1000.000002	1783.3333369	2500.000005	Minor	Good_deeds	48	You have said thank you when you have received help	C2_36	0.0	Hard	I1_13	42	Beef comes from cows	0.666666666666667	Yes	LEFT	527.8467999996792	LEFT	800.3496999999697	RIGHT	832.7168000005258	RIGHT	1005.3748999998788	25.500000000000004	0.3	Probable_Lie	RIGHT	LEFT	3	886.7677336712375	140	2021-03-16 16:02:44.571960
128	Computer	S210316	0.8333333333333334	1	2	1	2	0.1	1433.3333362	1066.6666688	2066.6666708	1933.3333372	Minor	Wrong_doings	27	You have given up your seat in the MRT	C1_28	1.0	Easy	I1_35	13	Today is Sunday	0.944444444444444	No	LEFT	351.75840000010794	RIGHT	2102.6842999999644	LEFT	1024.280099999487	RIGHT	1190.0272000002587	25.500000000000004	0.1	Probable_Lie	LEFT	LEFT	3	929.9910597399702	141	2021-03-16 16:03:09.244479
110	Computer	S210316	0.5	2	1	2	1	0.4	1500.000003	1350.0000027	2500.000005	2066.6666708	Major	Good_deeds	44	You have confessed to your mistake	C2_17	0.0	Hard	I1_54	30	Lehman Brothers went bankrupt on 20th September	1.0	No	LEFT	2165.143000000171	LEFT	247.57310000040889	RIGHT	1591.6610000003857	RIGHT	999.8596999994334	25.500000000000004	0.4	Probable_Lie	RIGHT	LEFT	4	763.1221766813485	142	2021-03-16 16:03:35.005148
92	Self	S210316	0.8333333333333334	2	1	2	1	0.4	1350.0000027	1066.6666688	1500.000003	2350.0000047	Major	Good_deeds	38	You have complimented others for good work	C2_38	0.0	Hard	I2_24	54	The first Grammy awards was held in 1959	0.944444444444444	Yes	RIGHT	402.3639999995794	RIGHT	289.40270000020973	RIGHT	2792.302799999561	RIGHT	1055.8195999992677	25.9	0.4	Probable_Lie	LEFT	LEFT	4	813.3589999997639	143	2021-03-16 16:03:59.203955
