"Participant"	"Task"	"Stimulus_Side"	"Response"	"RT"	"ITI"	"Previous_Response"	"Previous_RT"	"Stop_Signal"	"Stop_Signal_RT"	"Conflict"	"Cue_Response"	"Cue_Response_RT"	"Trial_Onset"	"Trial_End"	"Trial_Order"	"Duration"
"S210316"	"Conflict_Resolution"	"LEFT"	"Time_Max_Exceeded"	1500.09669999997	583.3333345	""	n/a	n/a	n/a	"True"	n/a	n/a	"2021-03-16 14:17:17.673041"	"2021-03-16 14:17:19.173767"	1	7.06325595
"S210316"	"Conflict_Resolution"	"RIGHT"	"RIGHT"	736.407400000076	700.0000014	""	n/a	n/a	n/a	"False"	n/a	n/a	"2021-03-16 14:17:19.893351"	"2021-03-16 14:17:20.836189"	2	7.06325595
"S210316"	"Conflict_Resolution"	"RIGHT"	"LEFT"	1195.02639999996	633.3333346	""	n/a	n/a	n/a	"True"	n/a	n/a	"2021-03-16 14:17:21.490148"	"2021-03-16 14:17:22.892450"	3	7.06325595
"S210316"	"Conflict_Resolution"	"LEFT"	"LEFT"	575.489999999945	1350.0000027	""	n/a	n/a	n/a	"False"	n/a	n/a	"2021-03-16 14:17:24.261864"	"2021-03-16 14:17:25.044341"	4	7.06325595
"S210316"	"Conflict_Resolution"	"LEFT"	"RIGHT"	1257.88120000004	683.3333347	""	n/a	n/a	n/a	"True"	n/a	n/a	"2021-03-16 14:17:25.747137"	"2021-03-16 14:17:27.213469"	5	7.06325595
"S210316"	"Conflict_Resolution"	"LEFT"	"LEFT"	743.688600000041	916.6666685	""	n/a	n/a	n/a	"False"	n/a	n/a	"2021-03-16 14:17:28.150029"	"2021-03-16 14:17:29.101499"	6	7.06325595
"S210316"	"Conflict_Resolution"	"RIGHT"	"RIGHT"	564.512199999967	800.0000016	""	n/a	n/a	n/a	"False"	n/a	n/a	"2021-03-16 14:17:29.921083"	"2021-03-16 14:17:30.693700"	7	7.06325595
"S210316"	"Conflict_Resolution"	"LEFT"	"LEFT"	467.824299999961	816.6666683	""	n/a	n/a	n/a	"False"	n/a	n/a	"2021-03-16 14:17:31.529010"	"2021-03-16 14:17:32.206013"	8	7.06325595
"S210316"	"Conflict_Resolution"	"LEFT"	"LEFT"	503.031699999951	716.6666681	""	n/a	n/a	n/a	"False"	n/a	n/a	"2021-03-16 14:17:32.942642"	"2021-03-16 14:17:33.653200"	9	7.06325595
"S210316"	"Conflict_Resolution"	"RIGHT"	"RIGHT"	472.901400000069	900.0000018	""	n/a	n/a	n/a	"False"	n/a	n/a	"2021-03-16 14:17:34.572331"	"2021-03-16 14:17:35.252511"	10	7.06325595
"S210316"	"Conflict_Resolution"	"RIGHT"	"LEFT"	434.907899999985	1483.3333363	""	n/a	n/a	n/a	"True"	n/a	n/a	"2021-03-16 14:17:36.754258"	"2021-03-16 14:17:37.398062"	11	7.06325595
"S210316"	"Conflict_Resolution"	"RIGHT"	"Time_Max_Exceeded"	1500.09349999993	1416.6666695	""	n/a	n/a	n/a	"True"	n/a	n/a	"2021-03-16 14:17:38.835161"	"2021-03-16 14:17:40.335176"	12	7.06325595
"S210316"	"Conflict_Resolution"	"RIGHT"	"RIGHT"	710.980800000016	1483.3333363	""	n/a	n/a	n/a	"False"	n/a	n/a	"2021-03-16 14:17:41.838777"	"2021-03-16 14:17:42.759035"	13	7.06325595
"S210316"	"Conflict_Resolution"	"RIGHT"	"RIGHT"	588.83000000003	1366.6666694	""	n/a	n/a	n/a	"False"	n/a	n/a	"2021-03-16 14:17:44.144867"	"2021-03-16 14:17:44.942014"	14	7.06325595
"S210316"	"Conflict_Resolution"	"RIGHT"	"RIGHT"	1006.1171000001	733.3333348	""	n/a	n/a	n/a	"True"	n/a	n/a	"2021-03-16 14:17:45.695588"	"2021-03-16 14:17:46.909774"	15	7.06325595
"S210316"	"Conflict_Resolution"	"LEFT"	"LEFT"	748.855400000025	566.6666678	""	n/a	n/a	n/a	"True"	n/a	n/a	"2021-03-16 14:17:47.496891"	"2021-03-16 14:17:48.454911"	16	7.06325595
"S210316"	"Conflict_Resolution"	"RIGHT"	"RIGHT"	611.88960000004	1133.3333356	""	n/a	n/a	n/a	"True"	n/a	n/a	"2021-03-16 14:17:49.608990"	"2021-03-16 14:17:50.429578"	17	7.06325595
"S210316"	"Conflict_Resolution"	"RIGHT"	"RIGHT"	606.65490000008	533.3333344	""	n/a	n/a	n/a	"False"	n/a	n/a	"2021-03-16 14:17:50.983084"	"2021-03-16 14:17:51.797603"	18	7.06325595
"S210316"	"Conflict_Resolution"	"LEFT"	"LEFT"	558.313999999996	1150.0000023	""	n/a	n/a	n/a	"True"	n/a	n/a	"2021-03-16 14:17:52.966644"	"2021-03-16 14:17:53.733357"	19	7.06325595
"S210316"	"Conflict_Resolution"	"RIGHT"	"RIGHT"	591.363900000033	550.0000011	""	n/a	n/a	n/a	"True"	n/a	n/a	"2021-03-16 14:17:54.301587"	"2021-03-16 14:17:55.101987"	20	7.06325595
"S210316"	"Conflict_Resolution"	"RIGHT"	"RIGHT"	665.235800000005	1266.6666692	""	n/a	n/a	n/a	"True"	n/a	n/a	"2021-03-16 14:17:56.388266"	"2021-03-16 14:17:57.261538"	21	7.06325595
"S210316"	"Conflict_Resolution"	"LEFT"	"LEFT"	1049.91050000001	1466.6666696	""	n/a	n/a	n/a	"True"	n/a	n/a	"2021-03-16 14:17:58.747694"	"2021-03-16 14:18:00.004501"	22	7.06325595
"S210316"	"Conflict_Resolution"	"RIGHT"	"RIGHT"	561.299200000008	500.000001	""	n/a	n/a	n/a	"False"	n/a	n/a	"2021-03-16 14:18:00.524276"	"2021-03-16 14:18:01.293590"	23	7.06325595
"S210316"	"Conflict_Resolution"	"RIGHT"	"RIGHT"	1241.89380000007	1050.0000021	""	n/a	n/a	n/a	"True"	n/a	n/a	"2021-03-16 14:18:02.362886"	"2021-03-16 14:18:03.812668"	24	7.06325595
"S210316"	"Conflict_Resolution"	"LEFT"	"LEFT"	566.587199999958	1366.6666694	""	n/a	n/a	n/a	"True"	n/a	n/a	"2021-03-16 14:18:05.198250"	"2021-03-16 14:18:05.973921"	25	7.06325595
"S210316"	"Conflict_Resolution"	"LEFT"	"LEFT"	635.849199999939	783.3333349	""	n/a	n/a	n/a	"False"	n/a	n/a	"2021-03-16 14:18:06.776926"	"2021-03-16 14:18:07.621711"	26	7.06325595
"S210316"	"Conflict_Resolution"	"RIGHT"	"RIGHT"	548.159899999973	783.3333349	""	n/a	n/a	n/a	"False"	n/a	n/a	"2021-03-16 14:18:08.424508"	"2021-03-16 14:18:09.180174"	27	7.06325595
"S210316"	"Conflict_Resolution"	"RIGHT"	"RIGHT"	857.416899999976	500.000001	""	n/a	n/a	n/a	"True"	n/a	n/a	"2021-03-16 14:18:09.699836"	"2021-03-16 14:18:10.765101"	28	7.06325595
"S210316"	"Conflict_Resolution"	"LEFT"	"LEFT"	394.000799999958	683.3333347	""	n/a	n/a	n/a	"False"	n/a	n/a	"2021-03-16 14:18:11.467322"	"2021-03-16 14:18:12.069710"	29	7.06325595
"S210316"	"Conflict_Resolution"	"LEFT"	"LEFT"	537.986799999999	1266.6666692	""	n/a	n/a	n/a	"True"	n/a	n/a	"2021-03-16 14:18:13.354939"	"2021-03-16 14:18:14.101207"	30	7.06325595
"S210316"	"Conflict_Resolution"	"LEFT"	"LEFT"	568.285199999991	916.6666685	""	n/a	n/a	n/a	"True"	n/a	n/a	"2021-03-16 14:18:15.036798"	"2021-03-16 14:18:15.813831"	31	7.06325595
"S210316"	"Conflict_Resolution"	"LEFT"	"LEFT"	472.152700000038	1500.000003	""	n/a	n/a	n/a	"True"	n/a	n/a	"2021-03-16 14:18:17.332854"	"2021-03-16 14:18:18.013546"	32	7.06325595
"S210316"	"Conflict_Resolution"	"RIGHT"	"RIGHT"	428.658000000041	983.3333353	""	n/a	n/a	n/a	"False"	n/a	n/a	"2021-03-16 14:18:19.016156"	"2021-03-16 14:18:19.652957"	33	7.06325595
"S210316"	"Conflict_Resolution"	"LEFT"	"LEFT"	497.327499999983	1300.0000026	""	n/a	n/a	n/a	"True"	n/a	n/a	"2021-03-16 14:18:20.972121"	"2021-03-16 14:18:21.676495"	34	7.06325595
"S210316"	"Conflict_Resolution"	"RIGHT"	"RIGHT"	799.695900000074	950.0000019	""	n/a	n/a	n/a	"True"	n/a	n/a	"2021-03-16 14:18:22.645712"	"2021-03-16 14:18:23.652834"	35	7.06325595
"S210316"	"Conflict_Resolution"	"LEFT"	"LEFT"	725.236500000051	1000.000002	""	n/a	n/a	n/a	"True"	n/a	n/a	"2021-03-16 14:18:24.671761"	"2021-03-16 14:18:25.604272"	36	7.06325595
"S210316"	"Conflict_Resolution"	"RIGHT"	"RIGHT"	515.698000000043	850.0000017	""	n/a	n/a	n/a	"False"	n/a	n/a	"2021-03-16 14:18:26.473446"	"2021-03-16 14:18:27.197518"	37	7.06325595
"S210316"	"Conflict_Resolution"	"LEFT"	"LEFT"	647.56239999997	900.0000018	""	n/a	n/a	n/a	"True"	n/a	n/a	"2021-03-16 14:18:28.117436"	"2021-03-16 14:18:28.972410"	38	7.06325595
"S210316"	"Conflict_Resolution"	"RIGHT"	"RIGHT"	671.060900000157	1366.6666694	""	n/a	n/a	n/a	"True"	n/a	n/a	"2021-03-16 14:18:30.358474"	"2021-03-16 14:18:31.237154"	39	7.06325595
"S210316"	"Conflict_Resolution"	"LEFT"	"LEFT"	570.769899999959	1050.0000021	""	n/a	n/a	n/a	"True"	n/a	n/a	"2021-03-16 14:18:32.306085"	"2021-03-16 14:18:33.085564"	40	7.06325595
"S210316"	"Conflict_Resolution"	"RIGHT"	"RIGHT"	456.750400000146	1100.0000022	""	n/a	n/a	n/a	"False"	n/a	n/a	"2021-03-16 14:18:34.204153"	"2021-03-16 14:18:34.868540"	41	7.06325595
"S210316"	"Conflict_Resolution"	"RIGHT"	"RIGHT"	380.663799999866	1216.6666691	""	n/a	n/a	n/a	"False"	n/a	n/a	"2021-03-16 14:18:36.104994"	"2021-03-16 14:18:36.693925"	42	7.06325595
"S210316"	"Conflict_Resolution"	"LEFT"	"LEFT"	386.086299999988	850.0000017	""	n/a	n/a	n/a	"False"	n/a	n/a	"2021-03-16 14:18:37.563634"	"2021-03-16 14:18:38.157836"	43	7.06325595
"S210316"	"Conflict_Resolution"	"RIGHT"	"RIGHT"	787.479300000086	1216.6666691	""	n/a	n/a	n/a	"True"	n/a	n/a	"2021-03-16 14:18:39.394151"	"2021-03-16 14:18:40.390086"	44	7.06325595
"S210316"	"Conflict_Resolution"	"LEFT"	"LEFT"	649.212000000034	666.666668	""	n/a	n/a	n/a	"True"	n/a	n/a	"2021-03-16 14:18:41.076253"	"2021-03-16 14:18:41.932148"	45	7.06325595
"S210316"	"Conflict_Resolution"	"LEFT"	"LEFT"	524.337599999853	616.6666679	""	n/a	n/a	n/a	"True"	n/a	n/a	"2021-03-16 14:18:42.568447"	"2021-03-16 14:18:43.301489"	46	7.06325595
"S210316"	"Conflict_Resolution"	"RIGHT"	"RIGHT"	530.053199999884	1083.3333355	""	n/a	n/a	n/a	"True"	n/a	n/a	"2021-03-16 14:18:44.403576"	"2021-03-16 14:18:45.142815"	47	7.06325595
"S210316"	"Conflict_Resolution"	"RIGHT"	"LEFT"	375.866999999971	1283.3333359	""	n/a	n/a	n/a	"True"	n/a	n/a	"2021-03-16 14:18:46.445341"	"2021-03-16 14:18:47.029789"	48	7.06325595
"S210316"	"Conflict_Resolution"	"LEFT"	"LEFT"	669.623799999954	966.6666686	"RIGHT"	-732.085	n/a	n/a	"True"	n/a	n/a	"2021-03-16 14:18:48.015241"	"2021-03-16 14:18:48.893915"	49	7.06325595
"S210316"	"Conflict_Resolution"	"RIGHT"	"RIGHT"	604.377399999976	1383.3333361	""	n/a	n/a	n/a	"True"	n/a	n/a	"2021-03-16 14:18:50.296914"	"2021-03-16 14:18:51.110947"	50	7.06325595
"S210316"	"Conflict_Resolution"	"RIGHT"	"RIGHT"	826.076100000137	583.3333345	""	n/a	n/a	n/a	"True"	n/a	n/a	"2021-03-16 14:18:51.715072"	"2021-03-16 14:18:52.749304"	51	7.06325595
"S210316"	"Conflict_Resolution"	"LEFT"	"LEFT"	659.728700000187	1416.6666695	""	n/a	n/a	n/a	"True"	n/a	n/a	"2021-03-16 14:18:54.185709"	"2021-03-16 14:18:55.053720"	52	7.06325595
"S210316"	"Conflict_Resolution"	"RIGHT"	"RIGHT"	465.370200000052	883.3333351	""	n/a	n/a	n/a	"False"	n/a	n/a	"2021-03-16 14:18:55.955424"	"2021-03-16 14:18:56.629884"	53	7.06325595
"S210316"	"Conflict_Resolution"	"LEFT"	"LEFT"	421.259899999995	966.6666686	""	n/a	n/a	n/a	"False"	n/a	n/a	"2021-03-16 14:18:57.615408"	"2021-03-16 14:18:58.245873"	54	7.06325595
"S210316"	"Conflict_Resolution"	"RIGHT"	"RIGHT"	536.943300000075	1283.3333359	""	n/a	n/a	n/a	"False"	n/a	n/a	"2021-03-16 14:18:59.547912"	"2021-03-16 14:19:00.292401"	55	7.06325595
"S210316"	"Conflict_Resolution"	"LEFT"	"LEFT"	332.686999999851	1016.6666687	""	n/a	n/a	n/a	"False"	n/a	n/a	"2021-03-16 14:19:01.328745"	"2021-03-16 14:19:01.869952"	56	7.06325595
"S210316"	"Conflict_Resolution"	"LEFT"	"RIGHT"	449.640000000045	866.6666684	""	n/a	n/a	n/a	"True"	n/a	n/a	"2021-03-16 14:19:02.755620"	"2021-03-16 14:19:03.413657"	57	7.06325595
"S210316"	"Conflict_Resolution"	"RIGHT"	"RIGHT"	505.775700000186	1083.3333355	""	n/a	n/a	n/a	"False"	n/a	n/a	"2021-03-16 14:19:04.515851"	"2021-03-16 14:19:05.229987"	58	7.06325595
"S210316"	"Conflict_Resolution"	"LEFT"	"LEFT"	578.241300000172	1400.0000028	""	n/a	n/a	n/a	"True"	n/a	n/a	"2021-03-16 14:19:06.650391"	"2021-03-16 14:19:07.436485"	59	7.06325595
"S210316"	"Conflict_Resolution"	"LEFT"	"LEFT"	621.513800000002	1216.6666691	""	n/a	n/a	n/a	"True"	n/a	n/a	"2021-03-16 14:19:08.672255"	"2021-03-16 14:19:09.501698"	60	7.06325595
"S210316"	"Conflict_Resolution"	"RIGHT"	"RIGHT"	602.373400000033	850.0000017	""	n/a	n/a	n/a	"True"	n/a	n/a	"2021-03-16 14:19:10.370513"	"2021-03-16 14:19:11.182113"	61	7.06325595
"S210316"	"Conflict_Resolution"	"RIGHT"	"RIGHT"	499.186000000009	833.333335	""	n/a	n/a	n/a	"False"	n/a	n/a	"2021-03-16 14:19:12.034676"	"2021-03-16 14:19:12.740697"	62	7.06325595
"S210316"	"Conflict_Resolution"	"RIGHT"	"RIGHT"	410.274699999945	650.0000013	""	n/a	n/a	n/a	"False"	n/a	n/a	"2021-03-16 14:19:13.410653"	"2021-03-16 14:19:14.029305"	63	7.06325595
"S210316"	"Conflict_Resolution"	"LEFT"	"LEFT"	505.543200000147	1266.6666692	""	n/a	n/a	n/a	"False"	n/a	n/a	"2021-03-16 14:19:15.315106"	"2021-03-16 14:19:16.028386"	64	7.06325595
"S210316"	"Conflict_Resolution"	"RIGHT"	"RIGHT"	564.123399999971	1233.3333358	""	n/a	n/a	n/a	"True"	n/a	n/a	"2021-03-16 14:19:17.281553"	"2021-03-16 14:19:18.052854"	65	7.06325595
"S210316"	"Conflict_Resolution"	"RIGHT"	"LEFT"	385.479300000043	683.3333347	""	n/a	n/a	n/a	"True"	n/a	n/a	"2021-03-16 14:19:18.755197"	"2021-03-16 14:19:19.349609"	66	7.06325595
"S210316"	"Conflict_Resolution"	"RIGHT"	"RIGHT"	651.699500000177	750.0000015	"RIGHT"	-619.848	n/a	n/a	"True"	n/a	n/a	"2021-03-16 14:19:20.121558"	"2021-03-16 14:19:20.981840"	67	7.06325595
"S210316"	"Conflict_Resolution"	"LEFT"	"LEFT"	503.546099999994	1316.6666693	""	n/a	n/a	n/a	"False"	n/a	n/a	"2021-03-16 14:19:22.317884"	"2021-03-16 14:19:23.028807"	68	7.06325595
"S210316"	"Conflict_Resolution"	"LEFT"	"LEFT"	478.885799999944	1300.0000026	""	n/a	n/a	n/a	"False"	n/a	n/a	"2021-03-16 14:19:24.350548"	"2021-03-16 14:19:25.037871"	69	7.06325595
"S210316"	"Conflict_Resolution"	"RIGHT"	"RIGHT"	642.537800000127	650.0000013	""	n/a	n/a	n/a	"True"	n/a	n/a	"2021-03-16 14:19:25.707093"	"2021-03-16 14:19:26.556571"	70	7.06325595
"S210316"	"Conflict_Resolution"	"LEFT"	"LEFT"	498.938400000043	1450.0000029	""	n/a	n/a	n/a	"False"	n/a	n/a	"2021-03-16 14:19:28.026185"	"2021-03-16 14:19:28.734040"	71	7.06325595
"S210316"	"Conflict_Resolution"	"RIGHT"	"RIGHT"	628.771700000016	983.3333353	""	n/a	n/a	n/a	"True"	n/a	n/a	"2021-03-16 14:19:29.736916"	"2021-03-16 14:19:30.572187"	72	7.06325595
"S210316"	"Conflict_Resolution"	"LEFT"	"LEFT"	590.232399999877	1150.0000023	""	n/a	n/a	n/a	"False"	n/a	n/a	"2021-03-16 14:19:31.742727"	"2021-03-16 14:19:32.542093"	73	7.06325595
"S210316"	"Conflict_Resolution"	"RIGHT"	"RIGHT"	487.539999999854	1316.6666693	""	n/a	n/a	n/a	"False"	n/a	n/a	"2021-03-16 14:19:33.878146"	"2021-03-16 14:19:34.573579"	74	7.06325595
"S210316"	"Conflict_Resolution"	"RIGHT"	"RIGHT"	883.141300000034	1033.3333354	""	n/a	n/a	n/a	"True"	n/a	n/a	"2021-03-16 14:19:35.625951"	"2021-03-16 14:19:36.716332"	75	7.06325595
"S210316"	"Conflict_Resolution"	"RIGHT"	"RIGHT"	618.924899999911	833.333335	""	n/a	n/a	n/a	"True"	n/a	n/a	"2021-03-16 14:19:37.569698"	"2021-03-16 14:19:38.397102"	76	7.06325595
"S210316"	"Conflict_Resolution"	"LEFT"	"LEFT"	616.981899999928	1250.0000025	""	n/a	n/a	n/a	"True"	n/a	n/a	"2021-03-16 14:19:39.667850"	"2021-03-16 14:19:40.492185"	77	7.06325595
"S210316"	"Conflict_Resolution"	"RIGHT"	"RIGHT"	462.083000000121	1000.000002	""	n/a	n/a	n/a	"False"	n/a	n/a	"2021-03-16 14:19:41.511459"	"2021-03-16 14:19:42.181173"	78	7.06325595
"S210316"	"Conflict_Resolution"	"RIGHT"	"RIGHT"	697.474099999909	883.3333351	""	n/a	n/a	n/a	"True"	n/a	n/a	"2021-03-16 14:19:43.083315"	"2021-03-16 14:19:43.988434"	79	7.06325595
"S210316"	"Conflict_Resolution"	"LEFT"	"LEFT"	712.949099999832	516.6666677	""	n/a	n/a	n/a	"True"	n/a	n/a	"2021-03-16 14:19:44.524002"	"2021-03-16 14:19:45.445884"	80	7.06325595
"S210316"	"Conflict_Resolution"	"RIGHT"	"RIGHT"	446.409599999924	950.0000019	""	n/a	n/a	n/a	"False"	n/a	n/a	"2021-03-16 14:19:46.414873"	"2021-03-16 14:19:47.069622"	81	7.06325595
"S210316"	"Conflict_Resolution"	"LEFT"	"LEFT"	595.820499999945	1016.6666687	""	n/a	n/a	n/a	"True"	n/a	n/a	"2021-03-16 14:19:48.105401"	"2021-03-16 14:19:48.908895"	82	7.06325595
"S210316"	"Conflict_Resolution"	"RIGHT"	"RIGHT"	439.388400000098	1133.3333356	""	n/a	n/a	n/a	"False"	n/a	n/a	"2021-03-16 14:19:50.062093"	"2021-03-16 14:19:50.710086"	83	7.06325595
"S210316"	"Conflict_Resolution"	"RIGHT"	"RIGHT"	405.289100000118	1150.0000023	""	n/a	n/a	n/a	"False"	n/a	n/a	"2021-03-16 14:19:51.880029"	"2021-03-16 14:19:52.493103"	84	7.06325595
"S210316"	"Conflict_Resolution"	"RIGHT"	"RIGHT"	677.936900000077	1183.3333357	""	n/a	n/a	n/a	"True"	n/a	n/a	"2021-03-16 14:19:53.695393"	"2021-03-16 14:19:54.581260"	85	7.06325595
"S210316"	"Conflict_Resolution"	"LEFT"	"LEFT"	456.131299999925	516.6666677	""	n/a	n/a	n/a	"False"	n/a	n/a	"2021-03-16 14:19:55.116862"	"2021-03-16 14:19:55.782097"	86	7.06325595
"S210316"	"Conflict_Resolution"	"LEFT"	"RIGHT"	413.768899999923	533.3333344	""	n/a	n/a	n/a	"True"	n/a	n/a	"2021-03-16 14:19:56.335639"	"2021-03-16 14:19:56.956662"	87	7.06325595
"S210316"	"Conflict_Resolution"	"LEFT"	"LEFT"	429.410499999904	1000.000002	""	n/a	n/a	n/a	"False"	n/a	n/a	"2021-03-16 14:19:57.975571"	"2021-03-16 14:19:58.613862"	88	7.06325595
"S210316"	"Conflict_Resolution"	"RIGHT"	"RIGHT"	580.095399999891	800.0000016	""	n/a	n/a	n/a	"True"	n/a	n/a	"2021-03-16 14:19:59.432846"	"2021-03-16 14:20:00.221832"	89	7.06325595
"S210316"	"Conflict_Resolution"	"RIGHT"	"RIGHT"	483.393299999989	1233.3333358	""	n/a	n/a	n/a	"False"	n/a	n/a	"2021-03-16 14:20:01.473693"	"2021-03-16 14:20:02.165200"	90	7.06325595
"S210316"	"Conflict_Resolution"	"LEFT"	"LEFT"	561.600700000099	1066.6666688	""	n/a	n/a	n/a	"False"	n/a	n/a	"2021-03-16 14:20:03.251070"	"2021-03-16 14:20:04.020213"	91	7.06325595
"S210316"	"Conflict_Resolution"	"LEFT"	"LEFT"	600.304899999855	716.6666681	""	n/a	n/a	n/a	"True"	n/a	n/a	"2021-03-16 14:20:04.756550"	"2021-03-16 14:20:05.564603"	92	7.06325595
"S210316"	"Conflict_Resolution"	"LEFT"	"LEFT"	470.700999999963	766.6666682	""	n/a	n/a	n/a	"True"	n/a	n/a	"2021-03-16 14:20:06.350114"	"2021-03-16 14:20:07.028788"	93	7.06325595
"S210316"	"Conflict_Resolution"	"LEFT"	"LEFT"	520.828000000165	1316.6666693	""	n/a	n/a	n/a	"True"	n/a	n/a	"2021-03-16 14:20:08.364022"	"2021-03-16 14:20:09.093079"	94	7.06325595
"S210316"	"Conflict_Resolution"	"LEFT"	"LEFT"	484.938499999998	1200.0000024	""	n/a	n/a	n/a	"False"	n/a	n/a	"2021-03-16 14:20:10.312541"	"2021-03-16 14:20:11.005341"	95	7.06325595
"S210316"	"Conflict_Resolution"	"LEFT"	"LEFT"	546.012799999971	1066.6666688	""	n/a	n/a	n/a	"True"	n/a	n/a	"2021-03-16 14:20:12.091055"	"2021-03-16 14:20:12.844404"	96	7.06325595
"S210316"	"Conflict_Resolution"	"LEFT"	"LEFT"	389.106200000015	1416.6666695	""	n/a	n/a	n/a	"False"	n/a	n/a	"2021-03-16 14:20:14.280435"	"2021-03-16 14:20:14.877154"	97	7.06325595
"S210316"	"Conflict_Resolution"	"LEFT"	"LEFT"	312.475999999833	1116.6666689	""	n/a	n/a	n/a	"False"	n/a	n/a	"2021-03-16 14:20:16.012392"	"2021-03-16 14:20:16.532991"	98	7.06325595
"S210316"	"Conflict_Resolution"	"RIGHT"	"RIGHT"	381.880099999989	1383.3333361	""	n/a	n/a	n/a	"False"	n/a	n/a	"2021-03-16 14:20:17.935628"	"2021-03-16 14:20:18.524223"	99	7.06325595
"S210316"	"Conflict_Resolution"	"LEFT"	"LEFT"	667.503300000135	816.6666683	""	n/a	n/a	n/a	"True"	n/a	n/a	"2021-03-16 14:20:19.361382"	"2021-03-16 14:20:20.238062"	100	7.06325595
"S210316"	"Conflict_Resolution"	"LEFT"	"LEFT"	453.262400000085	1166.666669	""	n/a	n/a	n/a	"False"	n/a	n/a	"2021-03-16 14:20:21.423608"	"2021-03-16 14:20:22.085936"	101	7.06325595
"S210316"	"Conflict_Resolution"	"LEFT"	"LEFT"	617.441599999893	1216.6666691	""	n/a	n/a	n/a	"False"	n/a	n/a	"2021-03-16 14:20:23.324039"	"2021-03-16 14:20:24.149801"	102	7.06325595
"S210316"	"Conflict_Resolution"	"LEFT"	"LEFT"	593.54610000014	1466.6666696	""	n/a	n/a	n/a	"False"	n/a	n/a	"2021-03-16 14:20:25.635634"	"2021-03-16 14:20:26.437084"	103	7.06325595
"S210316"	"Conflict_Resolution"	"RIGHT"	"RIGHT"	641.932500000166	1050.0000021	""	n/a	n/a	n/a	"False"	n/a	n/a	"2021-03-16 14:20:27.507281"	"2021-03-16 14:20:28.356822"	104	7.06325595
"S210316"	"Conflict_Resolution"	"RIGHT"	"RIGHT"	487.797900000032	1333.333336	""	n/a	n/a	n/a	"False"	n/a	n/a	"2021-03-16 14:20:29.709528"	"2021-03-16 14:20:30.405667"	105	7.06325595
"S210316"	"Conflict_Resolution"	"LEFT"	"LEFT"	707.165199999963	1200.0000024	""	n/a	n/a	n/a	"True"	n/a	n/a	"2021-03-16 14:20:31.625662"	"2021-03-16 14:20:32.540249"	106	7.06325595
"S210316"	"Conflict_Resolution"	"RIGHT"	"RIGHT"	445.807299999842	600.0000012	""	n/a	n/a	n/a	"False"	n/a	n/a	"2021-03-16 14:20:33.158959"	"2021-03-16 14:20:33.813204"	107	7.06325595
"S210316"	"Conflict_Resolution"	"LEFT"	"LEFT"	365.594600000122	583.3333345	""	n/a	n/a	n/a	"False"	n/a	n/a	"2021-03-16 14:20:34.416014"	"2021-03-16 14:20:34.991595"	108	7.06325595
"S210316"	"Conflict_Resolution"	"RIGHT"	"LEFT"	420.211699999982	1316.6666693	""	n/a	n/a	n/a	"True"	n/a	n/a	"2021-03-16 14:20:36.329075"	"2021-03-16 14:20:36.956396"	109	7.06325595
"S210316"	"Conflict_Resolution"	"LEFT"	"LEFT"	1119.49269999991	1116.6666689	""	n/a	n/a	n/a	"True"	n/a	n/a	"2021-03-16 14:20:38.093649"	"2021-03-16 14:20:39.420331"	110	7.06325595
"S210316"	"Conflict_Resolution"	"LEFT"	"LEFT"	582.615399999895	950.0000019	""	n/a	n/a	n/a	"False"	n/a	n/a	"2021-03-16 14:20:40.390965"	"2021-03-16 14:20:41.181462"	111	7.06325595
"S210316"	"Conflict_Resolution"	"RIGHT"	"RIGHT"	670.994500000006	733.3333348	""	n/a	n/a	n/a	"False"	n/a	n/a	"2021-03-16 14:20:41.934042"	"2021-03-16 14:20:42.814012"	112	7.06325595
"S210316"	"Conflict_Resolution"	"RIGHT"	"RIGHT"	712.203999999929	900.0000018	""	n/a	n/a	n/a	"True"	n/a	n/a	"2021-03-16 14:20:43.732743"	"2021-03-16 14:20:44.652294"	113	7.06325595
"S210316"	"Conflict_Resolution"	"RIGHT"	"RIGHT"	427.940799999988	1416.6666695	""	n/a	n/a	n/a	"False"	n/a	n/a	"2021-03-16 14:20:46.089006"	"2021-03-16 14:20:46.724200"	114	7.06325595
"S210316"	"Conflict_Resolution"	"RIGHT"	"RIGHT"	624.534999999923	533.3333344	""	n/a	n/a	n/a	"True"	n/a	n/a	"2021-03-16 14:20:47.276678"	"2021-03-16 14:20:48.109317"	115	7.06325595
"S210316"	"Conflict_Resolution"	"RIGHT"	"RIGHT"	694.962100000112	933.3333352	""	n/a	n/a	n/a	"True"	n/a	n/a	"2021-03-16 14:20:49.062515"	"2021-03-16 14:20:49.965724"	116	7.06325595
"S210316"	"Conflict_Resolution"	"RIGHT"	"RIGHT"	645.228300000099	783.3333349	""	n/a	n/a	n/a	"True"	n/a	n/a	"2021-03-16 14:20:50.768084"	"2021-03-16 14:20:51.620693"	117	7.06325595
"S210316"	"Conflict_Resolution"	"RIGHT"	"RIGHT"	721.113699999933	700.0000014	""	n/a	n/a	n/a	"True"	n/a	n/a	"2021-03-16 14:20:52.339917"	"2021-03-16 14:20:53.268473"	118	7.06325595
"S210316"	"Conflict_Resolution"	"LEFT"	"LEFT"	593.944200000124	866.6666684	""	n/a	n/a	n/a	"False"	n/a	n/a	"2021-03-16 14:20:54.154770"	"2021-03-16 14:20:54.956654"	119	7.06325595
"S210316"	"Conflict_Resolution"	"LEFT"	"LEFT"	582.822300000089	1350.0000027	""	n/a	n/a	n/a	"True"	n/a	n/a	"2021-03-16 14:20:56.326127"	"2021-03-16 14:20:57.117072"	120	7.06325595
"S210316"	"Conflict_Resolution"	"RIGHT"	"RIGHT"	491.536199999928	1433.3333362	""	n/a	n/a	n/a	"False"	n/a	n/a	"2021-03-16 14:20:58.569439"	"2021-03-16 14:20:59.268578"	121	7.06325595
"S210316"	"Conflict_Resolution"	"LEFT"	"RIGHT"	1142.1620000001	1166.666669	""	n/a	n/a	n/a	"True"	n/a	n/a	"2021-03-16 14:21:00.454575"	"2021-03-16 14:21:01.805641"	122	7.06325595
"S210316"	"Conflict_Resolution"	"RIGHT"	"RIGHT"	707.970400000022	750.0000015	""	n/a	n/a	n/a	"False"	n/a	n/a	"2021-03-16 14:21:02.577592"	"2021-03-16 14:21:03.492184"	123	7.06325595
"S210316"	"Conflict_Resolution"	"LEFT"	"LEFT"	412.898399999904	633.3333346	""	n/a	n/a	n/a	"False"	n/a	n/a	"2021-03-16 14:21:04.144624"	"2021-03-16 14:21:04.764525"	124	7.06325595
"S210316"	"Conflict_Resolution"	"RIGHT"	"RIGHT"	610.065500000019	1100.0000022	""	n/a	n/a	n/a	"True"	n/a	n/a	"2021-03-16 14:21:05.883601"	"2021-03-16 14:21:06.701981"	125	7.06325595
"S210316"	"Conflict_Resolution"	"RIGHT"	"RIGHT"	570.445399999926	1433.3333362	""	n/a	n/a	n/a	"True"	n/a	n/a	"2021-03-16 14:21:08.154671"	"2021-03-16 14:21:08.934102"	126	7.06325595
"S210316"	"Conflict_Resolution"	"LEFT"	"LEFT"	742.599599999949	733.3333348	""	n/a	n/a	n/a	"True"	n/a	n/a	"2021-03-16 14:21:09.686152"	"2021-03-16 14:21:10.637991"	127	7.06325595
"S210316"	"Conflict_Resolution"	"RIGHT"	"RIGHT"	464.352799999915	683.3333347	""	n/a	n/a	n/a	"False"	n/a	n/a	"2021-03-16 14:21:11.341174"	"2021-03-16 14:21:12.012602"	128	7.06325595
"S210316"	"Conflict_Resolution"	"RIGHT"	"RIGHT"	557.81879999995	583.3333345	""	n/a	n/a	n/a	"False"	n/a	n/a	"2021-03-16 14:21:12.615052"	"2021-03-16 14:21:13.380536"	129	7.06325595
"S210316"	"Conflict_Resolution"	"RIGHT"	"RIGHT"	567.860699999983	1333.333336	""	n/a	n/a	n/a	"True"	n/a	n/a	"2021-03-16 14:21:14.733130"	"2021-03-16 14:21:15.509117"	130	7.06325595
"S210316"	"Conflict_Resolution"	"LEFT"	"LEFT"	701.944200000071	766.6666682	""	n/a	n/a	n/a	"False"	n/a	n/a	"2021-03-16 14:21:16.295532"	"2021-03-16 14:21:17.205183"	131	7.06325595
"S210316"	"Conflict_Resolution"	"RIGHT"	"RIGHT"	420.601600000055	1183.3333357	""	n/a	n/a	n/a	"False"	n/a	n/a	"2021-03-16 14:21:18.408091"	"2021-03-16 14:21:19.037853"	132	7.06325595
"S210316"	"Conflict_Resolution"	"LEFT"	"LEFT"	504.33790000011	666.666668	""	n/a	n/a	n/a	"False"	n/a	n/a	"2021-03-16 14:21:19.724524"	"2021-03-16 14:21:20.437180"	133	7.06325595
"S210316"	"Conflict_Resolution"	"LEFT"	"LEFT"	770.219600000019	1450.0000029	""	n/a	n/a	n/a	"True"	n/a	n/a	"2021-03-16 14:21:21.907021"	"2021-03-16 14:21:22.884408"	134	7.06325595
"S210316"	"Conflict_Resolution"	"RIGHT"	"RIGHT"	652.482499999905	1033.3333354	""	n/a	n/a	n/a	"False"	n/a	n/a	"2021-03-16 14:21:23.936257"	"2021-03-16 14:21:24.797819"	135	7.06325595
"S210316"	"Conflict_Resolution"	"LEFT"	"LEFT"	691.686799999843	1400.0000028	""	n/a	n/a	n/a	"False"	n/a	n/a	"2021-03-16 14:21:26.217262"	"2021-03-16 14:21:27.117234"	136	7.06325595
"S210316"	"Conflict_Resolution"	"RIGHT"	"RIGHT"	563.199200000099	633.3333346	""	n/a	n/a	n/a	"False"	n/a	n/a	"2021-03-16 14:21:27.769528"	"2021-03-16 14:21:28.540465"	137	7.06325595
"S210316"	"Conflict_Resolution"	"RIGHT"	"RIGHT"	895.201399999905	1150.0000023	""	n/a	n/a	n/a	"True"	n/a	n/a	"2021-03-16 14:21:29.709471"	"2021-03-16 14:21:30.812695"	138	7.06325595
"S210316"	"Conflict_Resolution"	"LEFT"	"LEFT"	451.314199999842	1050.0000021	""	n/a	n/a	n/a	"False"	n/a	n/a	"2021-03-16 14:21:31.881572"	"2021-03-16 14:21:32.541886"	139	7.06325595
"S210316"	"Conflict_Resolution"	"RIGHT"	"RIGHT"	344.60039999999	1466.6666696	""	n/a	n/a	n/a	"False"	n/a	n/a	"2021-03-16 14:21:34.028692"	"2021-03-16 14:21:34.580623"	140	7.06325595
"S210316"	"Conflict_Resolution"	"RIGHT"	"RIGHT"	379.120900000089	1266.6666692	""	n/a	n/a	n/a	"False"	n/a	n/a	"2021-03-16 14:21:35.866245"	"2021-03-16 14:21:36.452978"	141	7.06325595
"S210316"	"Conflict_Resolution"	"LEFT"	"RIGHT"	411.557099999982	633.3333346	""	n/a	n/a	n/a	"True"	n/a	n/a	"2021-03-16 14:21:37.105866"	"2021-03-16 14:21:37.724713"	142	7.06325595
"S210316"	"Conflict_Resolution"	"LEFT"	"LEFT"	678.211500000089	566.6666678	""	n/a	n/a	n/a	"False"	n/a	n/a	"2021-03-16 14:21:38.311259"	"2021-03-16 14:21:39.196499"	143	7.06325595
"S210316"	"Conflict_Resolution"	"LEFT"	"LEFT"	668.314900000041	783.3333349	""	n/a	n/a	n/a	"True"	n/a	n/a	"2021-03-16 14:21:40.000923"	"2021-03-16 14:21:40.877014"	144	7.06325595
"S210316"	"Conflict_Resolution"	"LEFT"	"LEFT"	394.123200000195	1250.0000025	""	n/a	n/a	n/a	"False"	n/a	n/a	"2021-03-16 14:21:42.146975"	"2021-03-16 14:21:42.748519"	145	7.06325595
"S210316"	"Conflict_Resolution"	"LEFT"	"LEFT"	360.075599999846	733.3333348	""	n/a	n/a	n/a	"False"	n/a	n/a	"2021-03-16 14:21:43.501070"	"2021-03-16 14:21:44.069054"	146	7.06325595
"S210316"	"Conflict_Resolution"	"LEFT"	"LEFT"	399.722599999905	533.3333344	""	n/a	n/a	n/a	"False"	n/a	n/a	"2021-03-16 14:21:44.621695"	"2021-03-16 14:21:45.228578"	147	7.06325595
"S210316"	"Conflict_Resolution"	"LEFT"	"LEFT"	313.204400000131	900.0000018	""	n/a	n/a	n/a	"False"	n/a	n/a	"2021-03-16 14:21:46.147984"	"2021-03-16 14:21:46.669798"	148	7.06325595
"S210316"	"Conflict_Resolution"	"LEFT"	"LEFT"	315.806699999939	616.6666679	""	n/a	n/a	n/a	"False"	n/a	n/a	"2021-03-16 14:21:47.304578"	"2021-03-16 14:21:47.828518"	149	7.06325595
"S210316"	"Conflict_Resolution"	"LEFT"	"LEFT"	611.64430000008	850.0000017	""	n/a	n/a	n/a	"True"	n/a	n/a	"2021-03-16 14:21:48.697288"	"2021-03-16 14:21:49.516330"	150	7.06325595
"S210316"	"Conflict_Resolution"	"RIGHT"	"RIGHT"	706.521800000019	1466.6666696	""	n/a	n/a	n/a	"True"	n/a	n/a	"2021-03-16 14:21:51.002157"	"2021-03-16 14:21:51.917723"	151	7.06325595
"S210316"	"Conflict_Resolution"	"RIGHT"	"RIGHT"	661.546699999917	933.3333352	""	n/a	n/a	n/a	"False"	n/a	n/a	"2021-03-16 14:21:52.871099"	"2021-03-16 14:21:53.740341"	152	7.06325595
"S210316"	"Conflict_Resolution"	"LEFT"	"LEFT"	887.487800000144	950.0000019	""	n/a	n/a	n/a	"True"	n/a	n/a	"2021-03-16 14:21:54.709970"	"2021-03-16 14:21:55.805537"	153	7.06325595
"S210316"	"Conflict_Resolution"	"RIGHT"	"RIGHT"	445.854099999906	550.0000011	""	n/a	n/a	n/a	"False"	n/a	n/a	"2021-03-16 14:21:56.375519"	"2021-03-16 14:21:57.028324"	154	7.06325595
"S210316"	"Conflict_Resolution"	"LEFT"	"LEFT"	416.834399999971	1100.0000022	""	n/a	n/a	n/a	"False"	n/a	n/a	"2021-03-16 14:21:58.148063"	"2021-03-16 14:21:58.772166"	155	7.06325595
"S210316"	"Conflict_Resolution"	"RIGHT"	"RIGHT"	892.325300000039	600.0000012	""	n/a	n/a	n/a	"True"	n/a	n/a	"2021-03-16 14:21:59.392603"	"2021-03-16 14:22:00.493893"	156	7.06325595
"S210316"	"Conflict_Resolution"	"LEFT"	"LEFT"	383.908199999951	1500.000003	""	n/a	n/a	n/a	"False"	n/a	n/a	"2021-03-16 14:22:02.013662"	"2021-03-16 14:22:02.604147"	157	7.06325595
"S210316"	"Conflict_Resolution"	"LEFT"	"LEFT"	825.998199999958	1100.0000022	""	n/a	n/a	n/a	"True"	n/a	n/a	"2021-03-16 14:22:03.723278"	"2021-03-16 14:22:04.757941"	158	7.06325595
"S210316"	"Conflict_Resolution"	"LEFT"	"LEFT"	388.911700000108	1366.6666694	""	n/a	n/a	n/a	"False"	n/a	n/a	"2021-03-16 14:22:06.144617"	"2021-03-16 14:22:06.740954"	159	7.06325595
"S210316"	"Conflict_Resolution"	"RIGHT"	"RIGHT"	836.565000000064	1000.000002	""	n/a	n/a	n/a	"True"	n/a	n/a	"2021-03-16 14:22:07.760932"	"2021-03-16 14:22:08.805714"	160	7.06325595
"S210316"	"Processing_Speed"	"RIGHT"	"Time_Max_Exceeded"	1500.17400000002	1016.6666687	""	n/a	n/a	n/a	n/a	n/a	n/a	"2021-03-16 14:04:28.599517"	"2021-03-16 14:04:30.124501"	1	2.26289095
"S210316"	"Processing_Speed"	"LEFT"	"DOWN"	829.914900000006	700.0000014	"DOWN"	-438.047	n/a	n/a	n/a	n/a	n/a	"2021-03-16 14:04:30.832486"	"2021-03-16 14:04:31.869607"	2	2.26289095
"S210316"	"Processing_Speed"	"RIGHT"	"DOWN"	34.8998999999992	733.3333348	"DOWN"	-625.907	n/a	n/a	n/a	n/a	n/a	"2021-03-16 14:04:32.610797"	"2021-03-16 14:04:32.854640"	3	2.26289095
"S210316"	"Processing_Speed"	"LEFT"	"DOWN"	257.415600000002	950.0000019	"DOWN"	-650.854	n/a	n/a	n/a	n/a	n/a	"2021-03-16 14:04:33.813266"	"2021-03-16 14:04:34.277358"	4	2.26289095
"S210316"	"Processing_Speed"	"LEFT"	"DOWN"	444.967700000007	1083.3333355	"DOWN"	-918.708	n/a	n/a	n/a	n/a	n/a	"2021-03-16 14:04:35.369608"	"2021-03-16 14:04:36.021730"	5	2.26289095
"S210316"	"Processing_Speed"	"RIGHT"	"DOWN"	368.767800000001	600.0000012	""	n/a	n/a	n/a	n/a	n/a	n/a	"2021-03-16 14:04:36.630369"	"2021-03-16 14:04:37.206521"	6	2.26289095
"S210316"	"Processing_Speed"	"RIGHT"	"DOWN"	314.688600000011	916.6666685	""	n/a	n/a	n/a	n/a	n/a	n/a	"2021-03-16 14:04:38.131552"	"2021-03-16 14:04:38.654633"	7	2.26289095
"S210316"	"Processing_Speed"	"LEFT"	"DOWN"	237.338100000017	850.0000017	""	n/a	n/a	n/a	n/a	n/a	n/a	"2021-03-16 14:04:39.512928"	"2021-03-16 14:04:39.957653"	8	2.26289095
"S210316"	"Processing_Speed"	"LEFT"	"DOWN"	231.001099999986	633.3333346	""	n/a	n/a	n/a	n/a	n/a	n/a	"2021-03-16 14:04:40.599433"	"2021-03-16 14:04:41.037560"	9	2.26289095
"S210316"	"Processing_Speed"	"LEFT"	"DOWN"	32.4746000000005	783.3333349	""	n/a	n/a	n/a	n/a	n/a	n/a	"2021-03-16 14:04:41.829446"	"2021-03-16 14:04:42.070912"	10	2.26289095
"S210316"	"Processing_Speed"	"LEFT"	"DOWN"	278.841099999994	600.0000012	""	n/a	n/a	n/a	n/a	n/a	n/a	"2021-03-16 14:04:42.679325"	"2021-03-16 14:04:43.166448"	11	2.26289095
"S210316"	"Processing_Speed"	"RIGHT"	"DOWN"	453.142299999996	850.0000017	"DOWN"	-206.953	n/a	n/a	n/a	n/a	n/a	"2021-03-16 14:04:44.025229"	"2021-03-16 14:04:44.685227"	12	2.26289095
"S210316"	"Processing_Speed"	"RIGHT"	"DOWN"	266.590300000018	1150.0000023	""	n/a	n/a	n/a	n/a	n/a	n/a	"2021-03-16 14:04:45.843831"	"2021-03-16 14:04:46.317597"	13	2.26289095
"S210316"	"Processing_Speed"	"RIGHT"	"DOWN"	437.200300000001	666.666668	""	n/a	n/a	n/a	n/a	n/a	n/a	"2021-03-16 14:04:46.992784"	"2021-03-16 14:04:47.637616"	14	2.26289095
"S210316"	"Processing_Speed"	"RIGHT"	"DOWN"	222.657400000003	633.3333346	""	n/a	n/a	n/a	n/a	n/a	n/a	"2021-03-16 14:04:48.279899"	"2021-03-16 14:04:48.709711"	15	2.26289095
"S210316"	"Processing_Speed"	"RIGHT"	"DOWN"	266.348000000022	1083.3333355	""	n/a	n/a	n/a	n/a	n/a	n/a	"2021-03-16 14:04:49.803720"	"2021-03-16 14:04:50.277298"	16	2.26289095
"S210316"	"Processing_Speed"	"RIGHT"	"DOWN"	256.845599999991	566.6666678	""	n/a	n/a	n/a	n/a	n/a	n/a	"2021-03-16 14:04:50.853417"	"2021-03-16 14:04:51.317917"	17	2.26289095
"S210316"	"Processing_Speed"	"LEFT"	"DOWN"	265.034700000001	566.6666678	""	n/a	n/a	n/a	n/a	n/a	n/a	"2021-03-16 14:04:51.893412"	"2021-03-16 14:04:52.366797"	18	2.26289095
"S210316"	"Processing_Speed"	"RIGHT"	"DOWN"	236.048899999986	1266.6666692	""	n/a	n/a	n/a	n/a	n/a	n/a	"2021-03-16 14:04:53.642673"	"2021-03-16 14:04:54.087082"	19	2.26289095
"S210316"	"Processing_Speed"	"LEFT"	"DOWN"	519.374400000004	1183.3333357	""	n/a	n/a	n/a	n/a	n/a	n/a	"2021-03-16 14:04:55.278623"	"2021-03-16 14:04:56.007017"	20	2.26289095
"S210316"	"Processing_Speed"	"RIGHT"	"DOWN"	245.143800000022	1433.3333362	""	n/a	n/a	n/a	n/a	n/a	n/a	"2021-03-16 14:04:57.448972"	"2021-03-16 14:04:57.902246"	21	2.26289095
"S210316"	"Processing_Speed"	"LEFT"	"DOWN"	449.038999999999	1150.0000023	"DOWN"	-106.76	n/a	n/a	n/a	n/a	n/a	"2021-03-16 14:04:59.060880"	"2021-03-16 14:04:59.717294"	22	2.26289095
"S210316"	"Processing_Speed"	"LEFT"	"DOWN"	356.611599999979	1300.0000026	""	n/a	n/a	n/a	n/a	n/a	n/a	"2021-03-16 14:05:01.025371"	"2021-03-16 14:05:01.590659"	23	2.26289095
"S210316"	"Processing_Speed"	"RIGHT"	"DOWN"	266.811199999978	1500.000003	""	n/a	n/a	n/a	n/a	n/a	n/a	"2021-03-16 14:05:03.099458"	"2021-03-16 14:05:03.573236"	24	2.26289095
"S210316"	"Processing_Speed"	"LEFT"	"DOWN"	291.742800000009	1116.6666689	""	n/a	n/a	n/a	n/a	n/a	n/a	"2021-03-16 14:05:04.698181"	"2021-03-16 14:05:05.198810"	25	2.26289095
"S210316"	"Processing_Speed"	"RIGHT"	"DOWN"	279.251299999999	1183.3333357	""	n/a	n/a	n/a	n/a	n/a	n/a	"2021-03-16 14:05:06.390855"	"2021-03-16 14:05:06.877553"	26	2.26289095
"S210316"	"Processing_Speed"	"LEFT"	"DOWN"	266.871600000002	916.6666685	""	n/a	n/a	n/a	n/a	n/a	n/a	"2021-03-16 14:05:07.803714"	"2021-03-16 14:05:08.277446"	27	2.26289095
"S210316"	"Processing_Speed"	"LEFT"	"DOWN"	444.111899999996	500.000001	""	n/a	n/a	n/a	n/a	n/a	n/a	"2021-03-16 14:05:08.785593"	"2021-03-16 14:05:09.437155"	28	2.26289095
"S210316"	"Processing_Speed"	"RIGHT"	"DOWN"	230.674500000021	1050.0000021	""	n/a	n/a	n/a	n/a	n/a	n/a	"2021-03-16 14:05:10.495827"	"2021-03-16 14:05:10.934798"	29	2.26289095
"S210316"	"Processing_Speed"	"RIGHT"	"DOWN"	339.774700000021	1466.6666696	""	n/a	n/a	n/a	n/a	n/a	n/a	"2021-03-16 14:05:12.410502"	"2021-03-16 14:05:12.957449"	30	2.26289095
"S210316"	"Processing_Speed"	"LEFT"	"DOWN"	310.850600000009	1433.3333362	""	n/a	n/a	n/a	n/a	n/a	n/a	"2021-03-16 14:05:14.399396"	"2021-03-16 14:05:14.917525"	31	2.26289095
"S210316"	"Processing_Speed"	"LEFT"	"DOWN"	551.2655	816.6666683	""	n/a	n/a	n/a	n/a	n/a	n/a	"2021-03-16 14:05:15.742901"	"2021-03-16 14:05:16.501246"	32	2.26289095
"S210316"	"Processing_Speed"	"RIGHT"	"DOWN"	323.638799999998	1116.6666689	""	n/a	n/a	n/a	n/a	n/a	n/a	"2021-03-16 14:05:17.626861"	"2021-03-16 14:05:18.157464"	33	2.26289095
"S210316"	"Processing_Speed"	"LEFT"	"DOWN"	517.130699999996	666.666668	""	n/a	n/a	n/a	n/a	n/a	n/a	"2021-03-16 14:05:18.832687"	"2021-03-16 14:05:19.557773"	34	2.26289095
"S210316"	"Processing_Speed"	"RIGHT"	"DOWN"	256.895899999989	950.0000019	""	n/a	n/a	n/a	n/a	n/a	n/a	"2021-03-16 14:05:20.516829"	"2021-03-16 14:05:20.981477"	35	2.26289095
"S210316"	"Processing_Speed"	"RIGHT"	"DOWN"	275.978800000019	1333.333336	""	n/a	n/a	n/a	n/a	n/a	n/a	"2021-03-16 14:05:22.323336"	"2021-03-16 14:05:22.807170"	36	2.26289095
"S210316"	"Processing_Speed"	"RIGHT"	"DOWN"	341.724700000015	816.6666683	""	n/a	n/a	n/a	n/a	n/a	n/a	"2021-03-16 14:05:23.632852"	"2021-03-16 14:05:24.181454"	37	2.26289095
"S210316"	"Processing_Speed"	"LEFT"	"DOWN"	257.462800000013	1366.6666694	""	n/a	n/a	n/a	n/a	n/a	n/a	"2021-03-16 14:05:25.556618"	"2021-03-16 14:05:26.021555"	38	2.26289095
"S210316"	"Processing_Speed"	"LEFT"	"DOWN"	284.357199999988	1500.000003	""	n/a	n/a	n/a	n/a	n/a	n/a	"2021-03-16 14:05:27.530108"	"2021-03-16 14:05:28.021131"	39	2.26289095
"S210316"	"Processing_Speed"	"LEFT"	"DOWN"	263.849700000009	1216.6666691	""	n/a	n/a	n/a	n/a	n/a	n/a	"2021-03-16 14:05:29.246077"	"2021-03-16 14:05:29.718753"	40	2.26289095
"S210316"	"Processing_Speed"	"RIGHT"	"DOWN"	302.669100000003	1400.0000028	""	n/a	n/a	n/a	n/a	n/a	n/a	"2021-03-16 14:05:31.127051"	"2021-03-16 14:05:31.637599"	41	2.26289095
"S210316"	"Processing_Speed"	"LEFT"	"DOWN"	325.665799999996	1050.0000021	""	n/a	n/a	n/a	n/a	n/a	n/a	"2021-03-16 14:05:32.696734"	"2021-03-16 14:05:33.230593"	42	2.26289095
"S210316"	"Processing_Speed"	"LEFT"	"DOWN"	360.682499999996	1333.333336	""	n/a	n/a	n/a	n/a	n/a	n/a	"2021-03-16 14:05:34.573594"	"2021-03-16 14:05:35.143030"	43	2.26289095
"S210316"	"Processing_Speed"	"LEFT"	"DOWN"	350.005100000004	1016.6666687	""	n/a	n/a	n/a	n/a	n/a	n/a	"2021-03-16 14:05:36.168338"	"2021-03-16 14:05:36.726220"	44	2.26289095
"S210316"	"Processing_Speed"	"LEFT"	"DOWN"	315.983799999998	883.3333351	""	n/a	n/a	n/a	n/a	n/a	n/a	"2021-03-16 14:05:37.618065"	"2021-03-16 14:05:38.143804"	45	2.26289095
"S210316"	"Processing_Speed"	"RIGHT"	"DOWN"	214.209499999981	983.3333353	""	n/a	n/a	n/a	n/a	n/a	n/a	"2021-03-16 14:05:39.136007"	"2021-03-16 14:05:39.557868"	46	2.26289095
"S210316"	"Processing_Speed"	"LEFT"	"DOWN"	261.219899999986	1266.6666692	""	n/a	n/a	n/a	n/a	n/a	n/a	"2021-03-16 14:05:40.833044"	"2021-03-16 14:05:41.301556"	47	2.26289095
"S210316"	"Processing_Speed"	"LEFT"	"DOWN"	392.624000000012	983.3333353	""	n/a	n/a	n/a	n/a	n/a	n/a	"2021-03-16 14:05:42.293528"	"2021-03-16 14:05:42.893218"	48	2.26289095
"S210316"	"Processing_Speed"	"RIGHT"	"DOWN"	289.628300000004	1366.6666694	""	n/a	n/a	n/a	n/a	n/a	n/a	"2021-03-16 14:05:44.268162"	"2021-03-16 14:05:44.765631"	49	2.26289095
"S210316"	"Processing_Speed"	"LEFT"	"DOWN"	311.443199999985	1400.0000028	""	n/a	n/a	n/a	n/a	n/a	n/a	"2021-03-16 14:05:46.175064"	"2021-03-16 14:05:46.694673"	50	2.26289095
"S210316"	"Processing_Speed"	"LEFT"	"DOWN"	475.933599999962	1466.6666696	""	n/a	n/a	n/a	n/a	n/a	n/a	"2021-03-16 14:05:48.170689"	"2021-03-16 14:05:48.854479"	51	2.26289095
"S210316"	"Processing_Speed"	"RIGHT"	"DOWN"	329.695200000003	533.3333344	""	n/a	n/a	n/a	n/a	n/a	n/a	"2021-03-16 14:05:49.396431"	"2021-03-16 14:05:49.934147"	52	2.26289095
"S210316"	"Processing_Speed"	"RIGHT"	"DOWN"	250.958400000002	1300.0000026	""	n/a	n/a	n/a	n/a	n/a	n/a	"2021-03-16 14:05:51.242826"	"2021-03-16 14:05:51.701464"	53	2.26289095
"S210316"	"Processing_Speed"	"RIGHT"	"DOWN"	240.595299999995	783.3333349	""	n/a	n/a	n/a	n/a	n/a	n/a	"2021-03-16 14:05:52.493883"	"2021-03-16 14:05:52.943076"	54	2.26289095
"S210316"	"Processing_Speed"	"LEFT"	"DOWN"	241.280700000004	733.3333348	""	n/a	n/a	n/a	n/a	n/a	n/a	"2021-03-16 14:05:53.684269"	"2021-03-16 14:05:54.135029"	55	2.26289095
"S210316"	"Processing_Speed"	"RIGHT"	"DOWN"	245.861100000013	1216.6666691	""	n/a	n/a	n/a	n/a	n/a	n/a	"2021-03-16 14:05:55.360568"	"2021-03-16 14:05:55.813318"	56	2.26289095
"S210316"	"Processing_Speed"	"RIGHT"	"DOWN"	317.290300000025	883.3333351	""	n/a	n/a	n/a	n/a	n/a	n/a	"2021-03-16 14:05:56.705064"	"2021-03-16 14:05:57.230413"	57	2.26289095
"S210316"	"Processing_Speed"	"LEFT"	"DOWN"	321.697400000005	533.3333344	""	n/a	n/a	n/a	n/a	n/a	n/a	"2021-03-16 14:05:57.771967"	"2021-03-16 14:05:58.301760"	58	2.26289095
"S210316"	"Processing_Speed"	"RIGHT"	"DOWN"	347.760199999982	500.000001	""	n/a	n/a	n/a	n/a	n/a	n/a	"2021-03-16 14:05:58.810570"	"2021-03-16 14:05:59.366961"	59	2.26289095
"S210316"	"Processing_Speed"	"RIGHT"	"DOWN"	385.657100000003	700.0000014	""	n/a	n/a	n/a	n/a	n/a	n/a	"2021-03-16 14:06:00.076774"	"2021-03-16 14:06:00.670267"	60	2.26289095
"S210316"	"Response_Inhibition"	"RIGHT"	"RIGHT"	389.75460000006	933.3333352	n/a	n/a	n/a	n/a	n/a	n/a	n/a	"2021-03-16 14:10:00.624494"	"2021-03-16 14:10:01.222743"	1	5.87677225
"S210316"	"Response_Inhibition"	"LEFT"	"LEFT"	459.010467200003	733.3333348	n/a	n/a	n/a	n/a	n/a	n/a	n/a	"2021-03-16 14:10:01.967177"	"2021-03-16 14:10:02.637372"	2	5.87677225
"S210316"	"Response_Inhibition"	"LEFT"	"LEFT"	515.595400000052	716.6666681	n/a	n/a	n/a	n/a	n/a	n/a	n/a	"2021-03-16 14:10:03.362598"	"2021-03-16 14:10:04.085595"	3	5.87677225
"S210316"	"Response_Inhibition"	"RIGHT"	"RIGHT"	388.560600000005	1266.6666692	n/a	n/a	n/a	n/a	n/a	n/a	n/a	"2021-03-16 14:10:05.361468"	"2021-03-16 14:10:05.957806"	4	5.87677225
"S210316"	"Response_Inhibition"	"LEFT"	"LEFT"	455.213000000072	983.3333353	n/a	n/a	n/a	n/a	n/a	n/a	n/a	"2021-03-16 14:10:06.950700"	"2021-03-16 14:10:07.613708"	5	5.87677225
"S210316"	"Response_Inhibition"	"RIGHT"	"RIGHT"	541.726599999947	1450.0000029	n/a	n/a	n/a	n/a	n/a	n/a	n/a	"2021-03-16 14:10:09.071763"	"2021-03-16 14:10:09.821971"	6	5.87677225
"S210316"	"Response_Inhibition"	"RIGHT"	"RIGHT"	306.074999999964	1316.6666693	n/a	n/a	n/a	n/a	n/a	n/a	n/a	"2021-03-16 14:10:11.147942"	"2021-03-16 14:10:11.662612"	7	5.87677225
"S210316"	"Response_Inhibition"	"LEFT"	"LEFT"	395.31379999994	683.3333347	n/a	n/a	n/a	n/a	n/a	n/a	n/a	"2021-03-16 14:10:12.354762"	"2021-03-16 14:10:12.957193"	8	5.87677225
"S210316"	"Response_Inhibition"	"LEFT"	"LEFT"	409.388199999967	966.6666686	n/a	n/a	n/a	n/a	n/a	n/a	n/a	"2021-03-16 14:10:13.932297"	"2021-03-16 14:10:14.550864"	9	5.87677225
"S210316"	"Response_Inhibition"	"RIGHT"	"RIGHT"	322.47069999994	1100.0000022	n/a	n/a	n/a	n/a	n/a	n/a	n/a	"2021-03-16 14:10:15.659761"	"2021-03-16 14:10:16.190799"	10	5.87677225
"S210316"	"Response_Inhibition"	"LEFT"	"Time_Max_Exceeded"	1500.05500010002	1000.000002	n/a	n/a	n/a	n/a	n/a	n/a	n/a	"2021-03-16 14:10:17.199657"	"2021-03-16 14:10:18.703244"	11	5.87677225
"S210316"	"Response_Inhibition"	"LEFT"	"LEFT"	443.821400200024	950.0000019	n/a	n/a	n/a	n/a	n/a	n/a	n/a	"2021-03-16 14:10:19.662403"	"2021-03-16 14:10:20.318985"	12	5.87677225
"S210316"	"Response_Inhibition"	"RIGHT"	"RIGHT"	346.165300499939	1416.6666695	n/a	n/a	n/a	n/a	n/a	n/a	n/a	"2021-03-16 14:10:21.744646"	"2021-03-16 14:10:22.302802"	13	5.87677225
"S210316"	"Response_Inhibition"	"LEFT"	"Time_Max_Exceeded"	1500.05766709994	533.3333344	n/a	n/a	n/a	n/a	n/a	n/a	n/a	"2021-03-16 14:10:22.844580"	"2021-03-16 14:10:24.347142"	14	5.87677225
"S210316"	"Response_Inhibition"	"LEFT"	"LEFT"	683.388199999968	1150.0000023	n/a	n/a	n/a	n/a	n/a	n/a	n/a	"2021-03-16 14:10:25.506153"	"2021-03-16 14:10:26.397654"	15	5.87677225
"S210316"	"Response_Inhibition"	"RIGHT"	"RIGHT"	621.974799999975	1200.0000024	n/a	n/a	n/a	n/a	n/a	n/a	n/a	"2021-03-16 14:10:27.607474"	"2021-03-16 14:10:28.437829"	16	5.87677225
"S210316"	"Response_Inhibition"	"RIGHT"	"RIGHT"	573.268499999926	850.0000017	n/a	n/a	n/a	n/a	n/a	n/a	n/a	"2021-03-16 14:10:29.296513"	"2021-03-16 14:10:30.079054"	17	5.87677225
"S210316"	"Response_Inhibition"	"LEFT"	"LEFT"	382.499100000018	1183.3333357	n/a	n/a	n/a	n/a	n/a	n/a	n/a	"2021-03-16 14:10:31.271599"	"2021-03-16 14:10:31.862064"	18	5.87677225
"S210316"	"Response_Inhibition"	"LEFT"	"Time_Max_Exceeded"	1500.05720039997	1483.3333363	n/a	n/a	n/a	n/a	n/a	n/a	n/a	"2021-03-16 14:10:33.354061"	"2021-03-16 14:10:34.857176"	19	5.87677225
"S210316"	"Response_Inhibition"	"RIGHT"	"Time_Max_Exceeded"	1500.05413350001	533.3333344	n/a	n/a	n/a	n/a	n/a	n/a	n/a	"2021-03-16 14:10:35.400310"	"2021-03-16 14:10:36.903357"	20	5.87677225
"S210316"	"Response_Inhibition"	"RIGHT"	"RIGHT"	610.799600000064	1466.6666696	n/a	n/a	n/a	n/a	n/a	n/a	n/a	"2021-03-16 14:10:38.378750"	"2021-03-16 14:10:39.197330"	21	5.87677225
"S210316"	"Response_Inhibition"	"RIGHT"	"RIGHT"	612.184200000002	1100.0000022	n/a	n/a	n/a	n/a	n/a	n/a	n/a	"2021-03-16 14:10:40.305974"	"2021-03-16 14:10:41.125871"	22	5.87677225
"S210316"	"Response_Inhibition"	"LEFT"	"LEFT"	320.926500599973	900.0000018	n/a	n/a	n/a	n/a	n/a	n/a	n/a	"2021-03-16 14:10:42.034606"	"2021-03-16 14:10:42.566831"	23	5.87677225
"S210316"	"Response_Inhibition"	"LEFT"	"LEFT"	591.657300000065	1366.6666694	n/a	n/a	n/a	n/a	n/a	n/a	n/a	"2021-03-16 14:10:43.942072"	"2021-03-16 14:10:44.742047"	24	5.87677225
"S210316"	"Response_Inhibition"	"LEFT"	"LEFT"	477.5810000001	1216.6666691	n/a	n/a	n/a	n/a	n/a	n/a	n/a	"2021-03-16 14:10:45.967924"	"2021-03-16 14:10:46.653533"	25	5.87677225
"S210316"	"Response_Inhibition"	"LEFT"	"LEFT"	414.321099999938	633.3333346	n/a	n/a	n/a	n/a	n/a	n/a	n/a	"2021-03-16 14:10:47.295792"	"2021-03-16 14:10:47.917597"	26	5.87677225
"S210316"	"Response_Inhibition"	"LEFT"	"Time_Max_Exceeded"	1500.05100030001	1166.666669	n/a	n/a	n/a	n/a	n/a	n/a	n/a	"2021-03-16 14:10:49.093223"	"2021-03-16 14:10:50.596783"	27	5.87677225
"S210316"	"Response_Inhibition"	"RIGHT"	"Time_Max_Exceeded"	1500.05136680003	583.3333345	n/a	n/a	n/a	n/a	n/a	n/a	n/a	"2021-03-16 14:10:51.189731"	"2021-03-16 14:10:52.692784"	28	5.87677225
"S210316"	"Response_Inhibition"	"RIGHT"	"Time_Max_Exceeded"	1500.10516669992	1083.3333355	n/a	n/a	n/a	n/a	n/a	n/a	n/a	"2021-03-16 14:10:53.784944"	"2021-03-16 14:10:55.289478"	29	5.87677225
"S210316"	"Response_Inhibition"	"LEFT"	"LEFT"	420.912266900058	883.3333351	n/a	n/a	n/a	n/a	n/a	n/a	n/a	"2021-03-16 14:10:56.181637"	"2021-03-16 14:10:56.813162"	30	5.87677225
"S210316"	"Response_Inhibition"	"RIGHT"	"Time_Max_Exceeded"	1500.08136670003	850.0000017	n/a	n/a	n/a	n/a	n/a	n/a	n/a	"2021-03-16 14:10:57.672050"	"2021-03-16 14:10:59.175618"	31	5.87677225
"S210316"	"Response_Inhibition"	"RIGHT"	"RIGHT"	532.890967199976	1316.6666693	n/a	n/a	n/a	n/a	n/a	n/a	n/a	"2021-03-16 14:11:00.501506"	"2021-03-16 14:11:01.246997"	32	5.87677225
"S210316"	"Response_Inhibition"	"LEFT"	"LEFT"	1048.59920000001	950.0000019	n/a	n/a	n/a	n/a	n/a	n/a	n/a	"2021-03-16 14:11:02.205594"	"2021-03-16 14:11:03.461400"	33	5.87677225
"S210316"	"Response_Inhibition"	"LEFT"	"LEFT"	674.47930000003	916.6666685	n/a	n/a	n/a	n/a	n/a	n/a	n/a	"2021-03-16 14:11:04.387626"	"2021-03-16 14:11:05.270169"	34	5.87677225
"S210316"	"Response_Inhibition"	"LEFT"	"Time_Max_Exceeded"	1500.07186700002	683.3333347	n/a	n/a	n/a	n/a	n/a	n/a	n/a	"2021-03-16 14:11:05.961842"	"2021-03-16 14:11:07.466028"	35	5.87677225
"S210316"	"Response_Inhibition"	"RIGHT"	"RIGHT"	485.076299999946	550.0000011	n/a	n/a	n/a	n/a	n/a	n/a	n/a	"2021-03-16 14:11:08.025073"	"2021-03-16 14:11:08.718223"	36	5.87677225
"S210316"	"Response_Inhibition"	"LEFT"	"LEFT"	361.842467199993	650.0000013	n/a	n/a	n/a	n/a	n/a	n/a	n/a	"2021-03-16 14:11:09.376424"	"2021-03-16 14:11:09.949890"	37	5.87677225
"S210316"	"Response_Inhibition"	"RIGHT"	"RIGHT"	569.553200000087	733.3333348	n/a	n/a	n/a	n/a	n/a	n/a	n/a	"2021-03-16 14:11:10.692087"	"2021-03-16 14:11:11.469528"	38	5.87677225
"S210316"	"Response_Inhibition"	"RIGHT"	"RIGHT"	396.2191671	1016.6666687	n/a	n/a	n/a	n/a	n/a	n/a	n/a	"2021-03-16 14:11:12.494838"	"2021-03-16 14:11:13.102852"	39	5.87677225
"S210316"	"Response_Inhibition"	"LEFT"	"Time_Max_Exceeded"	1500.08009999999	1450.0000029	n/a	n/a	n/a	n/a	n/a	n/a	n/a	"2021-03-16 14:11:14.560981"	"2021-03-16 14:11:16.061444"	40	5.87677225
"S210316"	"Response_Inhibition"	"LEFT"	"Time_Max_Exceeded"	1500.05980060008	583.3333345	n/a	n/a	n/a	n/a	n/a	n/a	n/a	"2021-03-16 14:11:16.653891"	"2021-03-16 14:11:18.156924"	41	5.87677225
"S210316"	"Response_Inhibition"	"RIGHT"	"Time_Max_Exceeded"	1500.07460029997	1150.0000023	n/a	n/a	n/a	n/a	n/a	n/a	n/a	"2021-03-16 14:11:19.315961"	"2021-03-16 14:11:20.819017"	42	5.87677225
"S210316"	"Response_Inhibition"	"RIGHT"	"RIGHT"	819.559499999968	950.0000019	n/a	n/a	n/a	n/a	n/a	n/a	n/a	"2021-03-16 14:11:21.778552"	"2021-03-16 14:11:22.805293"	43	5.87677225
"S210316"	"Response_Inhibition"	"RIGHT"	"RIGHT"	378.972100000055	1300.0000026	n/a	n/a	n/a	n/a	n/a	n/a	n/a	"2021-03-16 14:11:24.114079"	"2021-03-16 14:11:24.701693"	44	5.87677225
"S210316"	"Response_Inhibition"	"RIGHT"	"RIGHT"	760.263500000065	566.6666678	n/a	n/a	n/a	n/a	n/a	n/a	n/a	"2021-03-16 14:11:25.276986"	"2021-03-16 14:11:26.245855"	45	5.87677225
"S210316"	"Response_Inhibition"	"LEFT"	"RIGHT"	616.495799999939	550.0000011	n/a	n/a	n/a	n/a	n/a	n/a	n/a	"2021-03-16 14:11:26.805287"	"2021-03-16 14:11:27.631043"	46	5.87677225
"S210316"	"Response_Inhibition"	"LEFT"	"LEFT"	459.816100000012	1050.0000021	n/a	n/a	n/a	n/a	n/a	n/a	n/a	"2021-03-16 14:11:28.690074"	"2021-03-16 14:11:29.357594"	47	5.87677225
"S210316"	"Response_Inhibition"	"LEFT"	"LEFT"	382.362100000023	833.333335	n/a	n/a	n/a	n/a	n/a	n/a	n/a	"2021-03-16 14:11:30.198914"	"2021-03-16 14:11:30.789486"	48	5.87677225
"S210316"	"Response_Inhibition"	"RIGHT"	"RIGHT"	608.302200000026	783.3333349	n/a	n/a	n/a	n/a	n/a	n/a	n/a	"2021-03-16 14:11:31.581366"	"2021-03-16 14:11:32.397265"	49	5.87677225
"S210316"	"Response_Inhibition"	"LEFT"	"LEFT"	539.087399999971	516.6666677	n/a	n/a	n/a	n/a	n/a	n/a	n/a	"2021-03-16 14:11:32.922908"	"2021-03-16 14:11:33.669510"	50	5.87677225
"S210316"	"Response_Inhibition"	"RIGHT"	"RIGHT"	311.848700000041	783.3333349	n/a	n/a	n/a	n/a	n/a	n/a	n/a	"2021-03-16 14:11:34.462083"	"2021-03-16 14:11:34.981692"	51	5.87677225
"S210316"	"Response_Inhibition"	"RIGHT"	"RIGHT"	487.934967299952	716.6666681	n/a	n/a	n/a	n/a	n/a	n/a	n/a	"2021-03-16 14:11:35.706860"	"2021-03-16 14:11:36.405171"	52	5.87677225
"S210316"	"Response_Inhibition"	"LEFT"	"LEFT"	553.769799999941	1150.0000023	n/a	n/a	n/a	n/a	n/a	n/a	n/a	"2021-03-16 14:11:37.564068"	"2021-03-16 14:11:38.325190"	53	5.87677225
"S210316"	"Response_Inhibition"	"RIGHT"	"RIGHT"	455.617700000062	1000.000002	n/a	n/a	n/a	n/a	n/a	n/a	n/a	"2021-03-16 14:11:39.333989"	"2021-03-16 14:11:39.998049"	54	5.87677225
"S210316"	"Response_Inhibition"	"LEFT"	"LEFT"	474.716600000079	1300.0000026	n/a	n/a	n/a	n/a	n/a	n/a	n/a	"2021-03-16 14:11:41.307238"	"2021-03-16 14:11:41.989567"	55	5.87677225
"S210316"	"Response_Inhibition"	"RIGHT"	"RIGHT"	362.736400000017	1333.333336	n/a	n/a	n/a	n/a	n/a	n/a	n/a	"2021-03-16 14:11:43.331135"	"2021-03-16 14:11:43.901385"	56	5.87677225
"S210316"	"Response_Inhibition"	"LEFT"	"LEFT"	342.954000000077	1433.3333362	n/a	n/a	n/a	n/a	n/a	n/a	n/a	"2021-03-16 14:11:45.342918"	"2021-03-16 14:11:45.893444"	57	5.87677225
"S210316"	"Response_Inhibition"	"RIGHT"	"RIGHT"	392.566699999975	1150.0000023	n/a	n/a	n/a	n/a	n/a	n/a	n/a	"2021-03-16 14:11:47.053432"	"2021-03-16 14:11:47.653790"	58	5.87677225
"S210316"	"Response_Inhibition"	"LEFT"	"LEFT"	332.628499999942	1266.6666692	n/a	n/a	n/a	n/a	n/a	n/a	n/a	"2021-03-16 14:11:48.929232"	"2021-03-16 14:11:49.469719"	59	5.87677225
"S210316"	"Response_Inhibition"	"RIGHT"	"Time_Max_Exceeded"	1500.12590009999	1366.6666694	n/a	n/a	n/a	n/a	n/a	n/a	n/a	"2021-03-16 14:11:50.845134"	"2021-03-16 14:11:52.347912"	60	5.87677225
"S210316"	"Response_Inhibition"	"RIGHT"	"Time_Max_Exceeded"	1500.05593380009	1250.0000025	n/a	n/a	n/a	n/a	n/a	n/a	n/a	"2021-03-16 14:11:53.607177"	"2021-03-16 14:11:55.111226"	61	5.87677225
"S210316"	"Response_Inhibition"	"LEFT"	"LEFT"	1093.49179999992	616.6666679	n/a	n/a	n/a	n/a	n/a	n/a	n/a	"2021-03-16 14:11:55.735917"	"2021-03-16 14:11:57.038988"	62	5.87677225
"S210316"	"Response_Inhibition"	"LEFT"	"Time_Max_Exceeded"	1500.05986699993	1233.3333358	n/a	n/a	n/a	n/a	n/a	n/a	n/a	"2021-03-16 14:11:58.280825"	"2021-03-16 14:11:59.784645"	63	5.87677225
"S210316"	"Response_Inhibition"	"LEFT"	"Time_Max_Exceeded"	1500.08883359995	1316.6666693	n/a	n/a	n/a	n/a	n/a	n/a	n/a	"2021-03-16 14:12:01.110143"	"2021-03-16 14:12:02.613542"	64	5.87677225
"S210316"	"Response_Inhibition"	"LEFT"	"Time_Max_Exceeded"	1500.06043380003	1066.6666688	n/a	n/a	n/a	n/a	n/a	n/a	n/a	"2021-03-16 14:12:03.688851"	"2021-03-16 14:12:05.192102"	65	5.87677225
"S210316"	"Response_Inhibition"	"RIGHT"	"RIGHT"	974.837900000011	533.3333344	n/a	n/a	n/a	n/a	n/a	n/a	n/a	"2021-03-16 14:12:05.734276"	"2021-03-16 14:12:06.917880"	66	5.87677225
"S210316"	"Response_Inhibition"	"RIGHT"	"RIGHT"	703.713200000038	1183.3333357	n/a	n/a	n/a	n/a	n/a	n/a	n/a	"2021-03-16 14:12:08.109944"	"2021-03-16 14:12:09.022049"	67	5.87677225
"S210316"	"Response_Inhibition"	"RIGHT"	"RIGHT"	645.537700000091	633.3333346	n/a	n/a	n/a	n/a	n/a	n/a	n/a	"2021-03-16 14:12:09.664366"	"2021-03-16 14:12:10.517471"	68	5.87677225
"S210316"	"Response_Inhibition"	"LEFT"	"LEFT"	490.245999999956	1333.333336	n/a	n/a	n/a	n/a	n/a	n/a	n/a	"2021-03-16 14:12:11.859179"	"2021-03-16 14:12:12.558536"	69	5.87677225
"S210316"	"Response_Inhibition"	"RIGHT"	"RIGHT"	347.162099999991	866.6666684	n/a	n/a	n/a	n/a	n/a	n/a	n/a	"2021-03-16 14:12:13.433823"	"2021-03-16 14:12:13.989879"	70	5.87677225
"S210316"	"Response_Inhibition"	"RIGHT"	"RIGHT"	389.779299999987	833.333335	n/a	n/a	n/a	n/a	n/a	n/a	n/a	"2021-03-16 14:12:14.832184"	"2021-03-16 14:12:15.429559"	71	5.87677225
"S210316"	"Response_Inhibition"	"LEFT"	"LEFT"	291.174700000056	1100.0000022	n/a	n/a	n/a	n/a	n/a	n/a	n/a	"2021-03-16 14:12:16.538757"	"2021-03-16 14:12:17.037669"	72	5.87677225
"S210316"	"Response_Inhibition"	"LEFT"	"LEFT"	552.364667299957	700.0000014	n/a	n/a	n/a	n/a	n/a	n/a	n/a	"2021-03-16 14:12:17.746471"	"2021-03-16 14:12:18.509394"	73	5.87677225
"S210316"	"Response_Inhibition"	"RIGHT"	"RIGHT"	298.27130000001	733.3333348	n/a	n/a	n/a	n/a	n/a	n/a	n/a	"2021-03-16 14:12:19.251529"	"2021-03-16 14:12:19.757189"	74	5.87677225
"S210316"	"Response_Inhibition"	"LEFT"	"LEFT"	565.123599999993	666.666668	n/a	n/a	n/a	n/a	n/a	n/a	n/a	"2021-03-16 14:12:20.432823"	"2021-03-16 14:12:21.205959"	75	5.87677225
"S210316"	"Response_Inhibition"	"RIGHT"	"RIGHT"	521.512599999937	1133.3333356	n/a	n/a	n/a	n/a	n/a	n/a	n/a	"2021-03-16 14:12:22.348430"	"2021-03-16 14:12:23.078578"	76	5.87677225
"S210316"	"Response_Inhibition"	"RIGHT"	"Time_Max_Exceeded"	1500.05050050004	683.3333347	n/a	n/a	n/a	n/a	n/a	n/a	n/a	"2021-03-16 14:12:23.770729"	"2021-03-16 14:12:25.274229"	77	5.87677225
"S210316"	"Response_Inhibition"	"RIGHT"	"RIGHT"	584.487299999978	1433.3333362	n/a	n/a	n/a	n/a	n/a	n/a	n/a	"2021-03-16 14:12:26.717118"	"2021-03-16 14:12:27.509791"	78	5.87677225
"S210316"	"Response_Inhibition"	"LEFT"	"LEFT"	680.041699999947	783.3333349	n/a	n/a	n/a	n/a	n/a	n/a	n/a	"2021-03-16 14:12:28.301261"	"2021-03-16 14:12:29.189693"	79	5.87677225
"S210316"	"Response_Inhibition"	"RIGHT"	"RIGHT"	382.829700000002	1416.6666695	n/a	n/a	n/a	n/a	n/a	n/a	n/a	"2021-03-16 14:12:30.614307"	"2021-03-16 14:12:31.205249"	80	5.87677225
"S210316"	"Response_Inhibition"	"RIGHT"	"RIGHT"	661.304333900002	983.3333353	n/a	n/a	n/a	n/a	n/a	n/a	n/a	"2021-03-16 14:12:32.197140"	"2021-03-16 14:12:33.069140"	81	5.87677225
"S210316"	"Response_Inhibition"	"RIGHT"	"RIGHT"	616.026300000044	600.0000012	n/a	n/a	n/a	n/a	n/a	n/a	n/a	"2021-03-16 14:12:33.677468"	"2021-03-16 14:12:34.501627"	82	5.87677225
"S210316"	"Response_Inhibition"	"LEFT"	"Time_Max_Exceeded"	1500.05153349999	1266.6666692	n/a	n/a	n/a	n/a	n/a	n/a	n/a	"2021-03-16 14:12:35.776669"	"2021-03-16 14:12:37.279744"	83	5.87677225
"S210316"	"Response_Inhibition"	"LEFT"	"LEFT"	583.154300000047	533.3333344	n/a	n/a	n/a	n/a	n/a	n/a	n/a	"2021-03-16 14:12:37.822854"	"2021-03-16 14:12:38.613311"	84	5.87677225
"S210316"	"Response_Inhibition"	"RIGHT"	"Time_Max_Exceeded"	1500.05893340002	1383.3333361	n/a	n/a	n/a	n/a	n/a	n/a	n/a	"2021-03-16 14:12:40.005413"	"2021-03-16 14:12:41.508438"	85	5.87677225
"S210316"	"Response_Inhibition"	"RIGHT"	"RIGHT"	700.973900000008	1066.6666688	n/a	n/a	n/a	n/a	n/a	n/a	n/a	"2021-03-16 14:12:42.584598"	"2021-03-16 14:12:43.493770"	86	5.87677225
"S210316"	"Response_Inhibition"	"RIGHT"	"Time_Max_Exceeded"	1500.05633380007	800.0000016	n/a	n/a	n/a	n/a	n/a	n/a	n/a	"2021-03-16 14:12:44.302436"	"2021-03-16 14:12:45.805355"	87	5.87677225
"S210316"	"Response_Inhibition"	"RIGHT"	"RIGHT"	493.325900000059	1033.3333354	n/a	n/a	n/a	n/a	n/a	n/a	n/a	"2021-03-16 14:12:46.848198"	"2021-03-16 14:12:47.550069"	88	5.87677225
"S210316"	"Response_Inhibition"	"RIGHT"	"RIGHT"	668.242299999974	1266.6666692	n/a	n/a	n/a	n/a	n/a	n/a	n/a	"2021-03-16 14:12:48.825094"	"2021-03-16 14:12:49.701326"	89	5.87677225
"S210316"	"Response_Inhibition"	"LEFT"	"Time_Max_Exceeded"	1500.04976680001	783.3333349	n/a	n/a	n/a	n/a	n/a	n/a	n/a	"2021-03-16 14:12:50.493417"	"2021-03-16 14:12:51.996541"	90	5.87677225
"S210316"	"Response_Inhibition"	"LEFT"	"LEFT"	773.450199999957	1466.6666696	n/a	n/a	n/a	n/a	n/a	n/a	n/a	"2021-03-16 14:12:53.472463"	"2021-03-16 14:12:54.453490"	91	5.87677225
"S210316"	"Response_Inhibition"	"RIGHT"	"RIGHT"	641.208100000085	1166.666669	n/a	n/a	n/a	n/a	n/a	n/a	n/a	"2021-03-16 14:12:55.628623"	"2021-03-16 14:12:56.477313"	92	5.87677225
"S210316"	"Response_Inhibition"	"RIGHT"	"RIGHT"	638.35139999992	633.3333346	n/a	n/a	n/a	n/a	n/a	n/a	n/a	"2021-03-16 14:12:57.119184"	"2021-03-16 14:12:57.966083"	93	5.87677225
"S210316"	"Response_Inhibition"	"LEFT"	"LEFT"	544.488699999988	566.6666678	n/a	n/a	n/a	n/a	n/a	n/a	n/a	"2021-03-16 14:12:58.541509"	"2021-03-16 14:12:59.293626"	94	5.87677225
"S210316"	"Response_Inhibition"	"LEFT"	"LEFT"	492.683599999964	1466.6666696	n/a	n/a	n/a	n/a	n/a	n/a	n/a	"2021-03-16 14:13:00.769184"	"2021-03-16 14:13:01.469679"	95	5.87677225
"S210316"	"Response_Inhibition"	"RIGHT"	"RIGHT"	519.330100000047	1000.000002	n/a	n/a	n/a	n/a	n/a	n/a	n/a	"2021-03-16 14:13:02.478258"	"2021-03-16 14:13:03.205672"	96	5.87677225
"S210316"	"Response_Inhibition"	"RIGHT"	"RIGHT"	453.191300000071	1050.0000021	n/a	n/a	n/a	n/a	n/a	n/a	n/a	"2021-03-16 14:13:04.264233"	"2021-03-16 14:13:04.925992"	97	5.87677225
"S210316"	"Response_Inhibition"	"RIGHT"	"RIGHT"	543.978200000083	1366.6666694	n/a	n/a	n/a	n/a	n/a	n/a	n/a	"2021-03-16 14:13:06.301283"	"2021-03-16 14:13:07.053876"	98	5.87677225
"S210316"	"Response_Inhibition"	"LEFT"	"LEFT"	534.458799999925	816.6666683	n/a	n/a	n/a	n/a	n/a	n/a	n/a	"2021-03-16 14:13:07.879244"	"2021-03-16 14:13:08.622040"	99	5.87677225
"S210316"	"Response_Inhibition"	"RIGHT"	"RIGHT"	459.250699999984	500.000001	n/a	n/a	n/a	n/a	n/a	n/a	n/a	"2021-03-16 14:13:09.130252"	"2021-03-16 14:13:09.798471"	100	5.87677225
"S210316"	"Response_Inhibition"	"LEFT"	"LEFT"	395.090900399968	1200.0000024	n/a	n/a	n/a	n/a	n/a	n/a	n/a	"2021-03-16 14:13:11.006800"	"2021-03-16 14:13:11.613827"	101	5.87677225
"S210316"	"Response_Inhibition"	"LEFT"	"Time_Max_Exceeded"	1500.04816669995	1000.000002	n/a	n/a	n/a	n/a	n/a	n/a	n/a	"2021-03-16 14:13:12.622337"	"2021-03-16 14:13:14.125004"	102	5.87677225
"S210316"	"Response_Inhibition"	"LEFT"	"LEFT"	658.544699999993	1316.6666693	n/a	n/a	n/a	n/a	n/a	n/a	n/a	"2021-03-16 14:13:15.450724"	"2021-03-16 14:13:16.317954"	103	5.87677225
"S210316"	"Response_Inhibition"	"LEFT"	"Time_Max_Exceeded"	1500.181	1133.3333356	n/a	n/a	n/a	n/a	n/a	n/a	n/a	"2021-03-16 14:13:17.460156"	"2021-03-16 14:13:18.960220"	104	5.87677225
"S210316"	"Response_Inhibition"	"LEFT"	"LEFT"	549.654799999985	766.6666682	n/a	n/a	n/a	n/a	n/a	n/a	n/a	"2021-03-16 14:13:19.735840"	"2021-03-16 14:13:20.492587"	105	5.87677225
"S210316"	"Response_Inhibition"	"RIGHT"	"RIGHT"	372.692733699944	616.6666679	n/a	n/a	n/a	n/a	n/a	n/a	n/a	"2021-03-16 14:13:21.117505"	"2021-03-16 14:13:21.702059"	106	5.87677225
"S210316"	"Response_Inhibition"	"RIGHT"	"RIGHT"	560.956499999975	950.0000019	n/a	n/a	n/a	n/a	n/a	n/a	n/a	"2021-03-16 14:13:22.660955"	"2021-03-16 14:13:23.429712"	107	5.87677225
"S210316"	"Response_Inhibition"	"LEFT"	"LEFT"	338.746299999912	1116.6666689	n/a	n/a	n/a	n/a	n/a	n/a	n/a	"2021-03-16 14:13:24.554976"	"2021-03-16 14:13:25.101513"	108	5.87677225
"S210316"	"Response_Inhibition"	"RIGHT"	"RIGHT"	324.123999999983	683.3333347	n/a	n/a	n/a	n/a	n/a	n/a	n/a	"2021-03-16 14:13:25.793673"	"2021-03-16 14:13:26.325548"	109	5.87677225
"S210316"	"Response_Inhibition"	"RIGHT"	"RIGHT"	636.798200000044	650.0000013	n/a	n/a	n/a	n/a	n/a	n/a	n/a	"2021-03-16 14:13:26.984800"	"2021-03-16 14:13:27.830046"	110	5.87677225
"S210316"	"Response_Inhibition"	"LEFT"	"LEFT"	353.449500400079	850.0000017	n/a	n/a	n/a	n/a	n/a	n/a	n/a	"2021-03-16 14:13:28.688750"	"2021-03-16 14:13:29.253597"	111	5.87677225
"S210316"	"Response_Inhibition"	"LEFT"	"LEFT"	488.326200000074	1383.3333361	n/a	n/a	n/a	n/a	n/a	n/a	n/a	"2021-03-16 14:13:30.644967"	"2021-03-16 14:13:31.341671"	112	5.87677225
"S210316"	"Response_Inhibition"	"RIGHT"	"RIGHT"	295.828766800053	1116.6666689	n/a	n/a	n/a	n/a	n/a	n/a	n/a	"2021-03-16 14:13:32.466707"	"2021-03-16 14:13:32.973969"	113	5.87677225
"S210316"	"Response_Inhibition"	"RIGHT"	"RIGHT"	439.375900600005	516.6666677	n/a	n/a	n/a	n/a	n/a	n/a	n/a	"2021-03-16 14:13:33.498907"	"2021-03-16 14:13:34.149485"	114	5.87677225
"S210316"	"Response_Inhibition"	"LEFT"	"LEFT"	509.891900000071	633.3333346	n/a	n/a	n/a	n/a	n/a	n/a	n/a	"2021-03-16 14:13:34.791281"	"2021-03-16 14:13:35.509396"	115	5.87677225
"S210316"	"Response_Inhibition"	"RIGHT"	"RIGHT"	604.611999999975	1483.3333363	n/a	n/a	n/a	n/a	n/a	n/a	n/a	"2021-03-16 14:13:37.001093"	"2021-03-16 14:13:37.813417"	116	5.87677225
"S210316"	"Response_Inhibition"	"RIGHT"	"RIGHT"	367.266800000039	1350.0000027	n/a	n/a	n/a	n/a	n/a	n/a	n/a	"2021-03-16 14:13:39.174600"	"2021-03-16 14:13:39.749434"	117	5.87677225
"S210316"	"Response_Inhibition"	"RIGHT"	"RIGHT"	383.001499999978	1216.6666691	n/a	n/a	n/a	n/a	n/a	n/a	n/a	"2021-03-16 14:13:40.974552"	"2021-03-16 14:13:41.566682"	118	5.87677225
"S210316"	"Response_Inhibition"	"RIGHT"	"RIGHT"	338.893199999916	883.3333351	n/a	n/a	n/a	n/a	n/a	n/a	n/a	"2021-03-16 14:13:42.458404"	"2021-03-16 14:13:43.005939"	119	5.87677225
"S210316"	"Response_Inhibition"	"LEFT"	"LEFT"	540.65520000006	850.0000017	n/a	n/a	n/a	n/a	n/a	n/a	n/a	"2021-03-16 14:13:43.864656"	"2021-03-16 14:13:44.613049"	120	5.87677225
"S210316"	"Response_Inhibition"	"RIGHT"	"Time_Max_Exceeded"	1500.05393340003	1466.6666696	n/a	n/a	n/a	n/a	n/a	n/a	n/a	"2021-03-16 14:13:46.088639"	"2021-03-16 14:13:47.591507"	121	5.87677225
"S210316"	"Response_Inhibition"	"LEFT"	"LEFT"	697.074099999895	900.0000018	n/a	n/a	n/a	n/a	n/a	n/a	n/a	"2021-03-16 14:13:48.501452"	"2021-03-16 14:13:49.407076"	122	5.87677225
"S210316"	"Response_Inhibition"	"RIGHT"	"Time_Max_Exceeded"	1500.0502669	1283.3333359	n/a	n/a	n/a	n/a	n/a	n/a	n/a	"2021-03-16 14:13:50.699259"	"2021-03-16 14:13:52.202063"	123	5.87677225
"S210316"	"Response_Inhibition"	"LEFT"	"LEFT"	577.797099999998	1416.6666695	n/a	n/a	n/a	n/a	n/a	n/a	n/a	"2021-03-16 14:13:53.628991"	"2021-03-16 14:13:54.414512"	124	5.87677225
"S210316"	"Response_Inhibition"	"RIGHT"	"RIGHT"	606.768100500067	916.6666685	n/a	n/a	n/a	n/a	n/a	n/a	n/a	"2021-03-16 14:13:55.340077"	"2021-03-16 14:13:56.157677"	125	5.87677225
"S210316"	"Response_Inhibition"	"LEFT"	"LEFT"	480.289633700034	1100.0000022	n/a	n/a	n/a	n/a	n/a	n/a	n/a	"2021-03-16 14:13:57.266390"	"2021-03-16 14:13:57.956301"	126	5.87677225
"S210316"	"Response_Inhibition"	"LEFT"	"LEFT"	593.783200000075	1350.0000027	n/a	n/a	n/a	n/a	n/a	n/a	n/a	"2021-03-16 14:13:59.315386"	"2021-03-16 14:14:00.117651"	127	5.87677225
"S210316"	"Response_Inhibition"	"LEFT"	"LEFT"	707.128300000022	1500.000003	n/a	n/a	n/a	n/a	n/a	n/a	n/a	"2021-03-16 14:14:01.626651"	"2021-03-16 14:14:02.541390"	128	5.87677225
"S210316"	"Response_Inhibition"	"LEFT"	"LEFT"	662.551899999926	1033.3333354	n/a	n/a	n/a	n/a	n/a	n/a	n/a	"2021-03-16 14:14:03.583212"	"2021-03-16 14:14:04.453934"	129	5.87677225
"S210316"	"Response_Inhibition"	"LEFT"	"LEFT"	541.48680000003	1250.0000025	n/a	n/a	n/a	n/a	n/a	n/a	n/a	"2021-03-16 14:14:05.712215"	"2021-03-16 14:14:06.461690"	130	5.87677225
"S210316"	"Response_Inhibition"	"RIGHT"	"Time_Max_Exceeded"	1500.05153369997	1216.6666691	n/a	n/a	n/a	n/a	n/a	n/a	n/a	"2021-03-16 14:14:07.686847"	"2021-03-16 14:14:09.189561"	131	5.87677225
"S210316"	"Response_Inhibition"	"LEFT"	"Time_Max_Exceeded"	1500.04726699994	600.0000012	n/a	n/a	n/a	n/a	n/a	n/a	n/a	"2021-03-16 14:14:09.798941"	"2021-03-16 14:14:11.303140"	132	5.87677225
"S210316"	"Response_Inhibition"	"LEFT"	"LEFT"	656.270599999971	933.3333352	n/a	n/a	n/a	n/a	n/a	n/a	n/a	"2021-03-16 14:14:12.245651"	"2021-03-16 14:14:13.110920"	133	5.87677225
"S210316"	"Response_Inhibition"	"LEFT"	"Time_Max_Exceeded"	1500.06170010011	1366.6666694	n/a	n/a	n/a	n/a	n/a	n/a	n/a	"2021-03-16 14:14:14.485894"	"2021-03-16 14:14:15.989457"	134	5.87677225
"S210316"	"Response_Inhibition"	"RIGHT"	"RIGHT"	766.805200000022	1400.0000028	n/a	n/a	n/a	n/a	n/a	n/a	n/a	"2021-03-16 14:14:17.398629"	"2021-03-16 14:14:18.373967"	135	5.87677225
"S210316"	"Response_Inhibition"	"LEFT"	"Time_Max_Exceeded"	1500.1459336	1416.6666695	n/a	n/a	n/a	n/a	n/a	n/a	n/a	"2021-03-16 14:14:19.799249"	"2021-03-16 14:14:21.302205"	136	5.87677225
"S210316"	"Response_Inhibition"	"RIGHT"	"RIGHT"	959.232899999961	966.6666686	n/a	n/a	n/a	n/a	n/a	n/a	n/a	"2021-03-16 14:14:22.278160"	"2021-03-16 14:14:23.445190"	137	5.87677225
"S210316"	"Response_Inhibition"	"LEFT"	"LEFT"	750.937000000022	1016.6666687	n/a	n/a	n/a	n/a	n/a	n/a	n/a	"2021-03-16 14:14:24.470666"	"2021-03-16 14:14:25.429948"	138	5.87677225
"S210316"	"Response_Inhibition"	"LEFT"	"LEFT"	655.357699999968	1400.0000028	n/a	n/a	n/a	n/a	n/a	n/a	n/a	"2021-03-16 14:14:26.838376"	"2021-03-16 14:14:27.702724"	139	5.87677225
"S210316"	"Response_Inhibition"	"LEFT"	"LEFT"	490.002100000083	1283.3333359	n/a	n/a	n/a	n/a	n/a	n/a	n/a	"2021-03-16 14:14:28.996000"	"2021-03-16 14:14:29.694055"	140	5.87677225
"S210316"	"Response_Inhibition"	"RIGHT"	"RIGHT"	606.055599999991	816.6666683	n/a	n/a	n/a	n/a	n/a	n/a	n/a	"2021-03-16 14:14:30.519413"	"2021-03-16 14:14:31.333285"	141	5.87677225
"S210316"	"Response_Inhibition"	"LEFT"	"LEFT"	543.433700000037	800.0000016	n/a	n/a	n/a	n/a	n/a	n/a	n/a	"2021-03-16 14:14:32.142240"	"2021-03-16 14:14:32.893243"	142	5.87677225
"S210316"	"Response_Inhibition"	"LEFT"	"LEFT"	696.596600000021	583.3333345	n/a	n/a	n/a	n/a	n/a	n/a	n/a	"2021-03-16 14:14:33.484771"	"2021-03-16 14:14:34.389836"	143	5.87677225
"S210316"	"Response_Inhibition"	"RIGHT"	"Time_Max_Exceeded"	1500.05166689998	900.0000018	n/a	n/a	n/a	n/a	n/a	n/a	n/a	"2021-03-16 14:14:35.299645"	"2021-03-16 14:14:36.802670"	144	5.87677225
"S210316"	"Response_Inhibition"	"RIGHT"	"RIGHT"	606.35000000002	1500.000003	n/a	n/a	n/a	n/a	n/a	n/a	n/a	"2021-03-16 14:14:38.312165"	"2021-03-16 14:14:39.126934"	145	5.87677225
"S210316"	"Response_Inhibition"	"RIGHT"	"Time_Max_Exceeded"	1500.0569	900.0000018	n/a	n/a	n/a	n/a	n/a	n/a	n/a	"2021-03-16 14:14:40.035982"	"2021-03-16 14:14:41.536290"	146	5.87677225
"S210316"	"Response_Inhibition"	"LEFT"	"LEFT"	542.158900000004	750.0000015	n/a	n/a	n/a	n/a	n/a	n/a	n/a	"2021-03-16 14:14:42.295297"	"2021-03-16 14:14:43.045609"	147	5.87677225
"S210316"	"Response_Inhibition"	"RIGHT"	"RIGHT"	326.184333900042	750.0000015	n/a	n/a	n/a	n/a	n/a	n/a	n/a	"2021-03-16 14:14:43.804342"	"2021-03-16 14:14:44.341934"	148	5.87677225
"S210316"	"Response_Inhibition"	"LEFT"	"LEFT"	436.106799999948	1083.3333355	n/a	n/a	n/a	n/a	n/a	n/a	n/a	"2021-03-16 14:14:45.434093"	"2021-03-16 14:14:46.077945"	149	5.87677225
"S210316"	"Response_Inhibition"	"LEFT"	"LEFT"	534.208199999966	1216.6666691	n/a	n/a	n/a	n/a	n/a	n/a	n/a	"2021-03-16 14:14:47.303215"	"2021-03-16 14:14:48.044454"	150	5.87677225
"S210316"	"Response_Inhibition"	"RIGHT"	"RIGHT"	437.995300000011	666.666668	n/a	n/a	n/a	n/a	n/a	n/a	n/a	"2021-03-16 14:14:48.719203"	"2021-03-16 14:14:49.364476"	151	5.87677225
"S210316"	"Response_Inhibition"	"LEFT"	"Time_Max_Exceeded"	1500.05043359996	500.000001	n/a	n/a	n/a	n/a	n/a	n/a	n/a	"2021-03-16 14:14:49.873125"	"2021-03-16 14:14:51.376889"	152	5.87677225
"S210316"	"Response_Inhibition"	"LEFT"	"LEFT"	614.470500000039	733.3333348	n/a	n/a	n/a	n/a	n/a	n/a	n/a	"2021-03-16 14:14:52.120104"	"2021-03-16 14:14:52.941912"	153	5.87677225
"S210316"	"Response_Inhibition"	"RIGHT"	"RIGHT"	570.92369999998	700.0000014	n/a	n/a	n/a	n/a	n/a	n/a	n/a	"2021-03-16 14:14:53.650811"	"2021-03-16 14:14:54.429322"	154	5.87677225
"S210316"	"Response_Inhibition"	"RIGHT"	"RIGHT"	550.470700000005	1233.3333358	n/a	n/a	n/a	n/a	n/a	n/a	n/a	"2021-03-16 14:14:55.670827"	"2021-03-16 14:14:56.429222"	155	5.87677225
"S210316"	"Response_Inhibition"	"LEFT"	"LEFT"	548.97219999998	866.6666684	n/a	n/a	n/a	n/a	n/a	n/a	n/a	"2021-03-16 14:14:57.304794"	"2021-03-16 14:14:58.061867"	156	5.87677225
"S210316"	"Response_Inhibition"	"RIGHT"	"RIGHT"	344.800733499901	1050.0000021	n/a	n/a	n/a	n/a	n/a	n/a	n/a	"2021-03-16 14:14:59.121236"	"2021-03-16 14:14:59.680048"	157	5.87677225
"S210316"	"Response_Inhibition"	"RIGHT"	"Time_Max_Exceeded"	1500.10050020001	766.6666682	n/a	n/a	n/a	n/a	n/a	n/a	n/a	"2021-03-16 14:15:00.454795"	"2021-03-16 14:15:01.958235"	158	5.87677225
"S210316"	"Response_Inhibition"	"LEFT"	"LEFT"	522.520399999962	1050.0000021	n/a	n/a	n/a	n/a	n/a	n/a	n/a	"2021-03-16 14:15:03.019084"	"2021-03-16 14:15:03.750625"	159	5.87677225
"S210316"	"Response_Inhibition"	"RIGHT"	"RIGHT"	367.15700000002	583.3333345	n/a	n/a	n/a	n/a	n/a	n/a	n/a	"2021-03-16 14:15:04.342319"	"2021-03-16 14:15:04.917780"	160	5.87677225
"S210316"	"Response_Selection"	"RIGHT"	"RIGHT"	714.417000000026	500.000001	""	n/a	n/a	n/a	n/a	n/a	n/a	"2021-03-16 14:07:09.003808"	"2021-03-16 14:07:09.927882"	1	3.16096898333333
"S210316"	"Response_Selection"	"LEFT"	"LEFT"	367.799900000023	750.0000015	""	n/a	n/a	n/a	n/a	n/a	n/a	"2021-03-16 14:07:10.685903"	"2021-03-16 14:07:11.261637"	2	3.16096898333333
"S210316"	"Response_Selection"	"RIGHT"	"RIGHT"	314.390000000003	1166.666669	""	n/a	n/a	n/a	n/a	n/a	n/a	"2021-03-16 14:07:12.436937"	"2021-03-16 14:07:12.959644"	3	3.16096898333333
"S210316"	"Response_Selection"	"RIGHT"	"RIGHT"	314.018900000008	700.0000014	""	n/a	n/a	n/a	n/a	n/a	n/a	"2021-03-16 14:07:13.667781"	"2021-03-16 14:07:14.189430"	4	3.16096898333333
"S210316"	"Response_Selection"	"RIGHT"	"RIGHT"	275.152800000001	1316.6666693	""	n/a	n/a	n/a	n/a	n/a	n/a	"2021-03-16 14:07:15.514493"	"2021-03-16 14:07:15.997518"	5	3.16096898333333
"S210316"	"Response_Selection"	"RIGHT"	"RIGHT"	311.359699999969	1216.6666691	""	n/a	n/a	n/a	n/a	n/a	n/a	"2021-03-16 14:07:17.222582"	"2021-03-16 14:07:17.742313"	6	3.16096898333333
"S210316"	"Response_Selection"	"LEFT"	"LEFT"	259.036100000003	500.000001	""	n/a	n/a	n/a	n/a	n/a	n/a	"2021-03-16 14:07:18.251016"	"2021-03-16 14:07:18.718818"	7	3.16096898333333
"S210316"	"Response_Selection"	"LEFT"	"LEFT"	434.298300000023	883.3333351	""	n/a	n/a	n/a	n/a	n/a	n/a	"2021-03-16 14:07:19.612066"	"2021-03-16 14:07:20.253579"	8	3.16096898333333
"S210316"	"Response_Selection"	"RIGHT"	"RIGHT"	265.921700000035	733.3333348	""	n/a	n/a	n/a	n/a	n/a	n/a	"2021-03-16 14:07:20.995583"	"2021-03-16 14:07:21.469315"	9	3.16096898333333
"S210316"	"Response_Selection"	"RIGHT"	"LEFT"	306.966299999999	1500.000003	""	n/a	n/a	n/a	n/a	n/a	n/a	"2021-03-16 14:07:22.978863"	"2021-03-16 14:07:23.494014"	10	3.16096898333333
"S210316"	"Response_Selection"	"RIGHT"	"RIGHT"	410.640000000001	1066.6666688	""	n/a	n/a	n/a	n/a	n/a	n/a	"2021-03-16 14:07:24.570827"	"2021-03-16 14:07:25.189128"	11	3.16096898333333
"S210316"	"Response_Selection"	"RIGHT"	"RIGHT"	245.451599999967	1466.6666696	""	n/a	n/a	n/a	n/a	n/a	n/a	"2021-03-16 14:07:26.664380"	"2021-03-16 14:07:27.117729"	12	3.16096898333333
"S210316"	"Response_Selection"	"LEFT"	"LEFT"	381.570399999987	1450.0000029	""	n/a	n/a	n/a	n/a	n/a	n/a	"2021-03-16 14:07:28.576287"	"2021-03-16 14:07:29.165233"	13	3.16096898333333
"S210316"	"Response_Selection"	"LEFT"	"LEFT"	578.881599999988	533.3333344	""	n/a	n/a	n/a	n/a	n/a	n/a	"2021-03-16 14:07:29.706881"	"2021-03-16 14:07:30.493824"	14	3.16096898333333
"S210316"	"Response_Selection"	"RIGHT"	"RIGHT"	259.100900000021	1300.0000026	""	n/a	n/a	n/a	n/a	n/a	n/a	"2021-03-16 14:07:31.802625"	"2021-03-16 14:07:32.269411"	15	3.16096898333333
"S210316"	"Response_Selection"	"LEFT"	"LEFT"	295.451800000023	800.0000016	""	n/a	n/a	n/a	n/a	n/a	n/a	"2021-03-16 14:07:33.078372"	"2021-03-16 14:07:33.582234"	16	3.16096898333333
"S210316"	"Response_Selection"	"LEFT"	"LEFT"	360.782400000005	1166.666669	""	n/a	n/a	n/a	n/a	n/a	n/a	"2021-03-16 14:07:34.757676"	"2021-03-16 14:07:35.326748"	17	3.16096898333333
"S210316"	"Response_Selection"	"RIGHT"	"RIGHT"	244.786000000033	1450.0000029	""	n/a	n/a	n/a	n/a	n/a	n/a	"2021-03-16 14:07:36.785584"	"2021-03-16 14:07:37.238649"	18	3.16096898333333
"S210316"	"Response_Selection"	"RIGHT"	"RIGHT"	396.872099999996	1250.0000025	""	n/a	n/a	n/a	n/a	n/a	n/a	"2021-03-16 14:07:38.496863"	"2021-03-16 14:07:39.102306"	19	3.16096898333333
"S210316"	"Response_Selection"	"RIGHT"	"RIGHT"	324.555700000019	1266.6666692	""	n/a	n/a	n/a	n/a	n/a	n/a	"2021-03-16 14:07:40.377433"	"2021-03-16 14:07:40.910007"	20	3.16096898333333
"S210316"	"Response_Selection"	"LEFT"	"LEFT"	269.314199999997	833.333335	""	n/a	n/a	n/a	n/a	n/a	n/a	"2021-03-16 14:07:41.752606"	"2021-03-16 14:07:42.230914"	21	3.16096898333333
"S210316"	"Response_Selection"	"RIGHT"	"RIGHT"	323.307899999975	883.3333351	""	n/a	n/a	n/a	n/a	n/a	n/a	"2021-03-16 14:07:43.122484"	"2021-03-16 14:07:43.654559"	22	3.16096898333333
"S210316"	"Response_Selection"	"LEFT"	"LEFT"	257.770999999991	1500.000003	""	n/a	n/a	n/a	n/a	n/a	n/a	"2021-03-16 14:07:45.164036"	"2021-03-16 14:07:45.630847"	23	3.16096898333333
"S210316"	"Response_Selection"	"RIGHT"	"RIGHT"	274.112100000025	1116.6666689	""	n/a	n/a	n/a	n/a	n/a	n/a	"2021-03-16 14:07:46.756397"	"2021-03-16 14:07:47.237398"	24	3.16096898333333
"S210316"	"Response_Selection"	"LEFT"	"LEFT"	429.633499999966	1033.3333354	""	n/a	n/a	n/a	n/a	n/a	n/a	"2021-03-16 14:07:48.280157"	"2021-03-16 14:07:48.918555"	25	3.16096898333333
"S210316"	"Response_Selection"	"LEFT"	"RIGHT"	172.364899999991	1066.6666688	""	n/a	n/a	n/a	n/a	n/a	n/a	"2021-03-16 14:07:49.993808"	"2021-03-16 14:07:50.374421"	26	3.16096898333333
"S210316"	"Response_Selection"	"RIGHT"	"LEFT"	392.587899999967	966.6666686	"LEFT"	-779.384	n/a	n/a	n/a	n/a	n/a	"2021-03-16 14:07:51.349319"	"2021-03-16 14:07:51.950278"	27	3.16096898333333
"S210316"	"Response_Selection"	"RIGHT"	"RIGHT"	341.910199999973	1016.6666687	""	n/a	n/a	n/a	n/a	n/a	n/a	"2021-03-16 14:07:52.975776"	"2021-03-16 14:07:53.527938"	28	3.16096898333333
"S210316"	"Response_Selection"	"RIGHT"	"RIGHT"	358.19459999999	983.3333353	""	n/a	n/a	n/a	n/a	n/a	n/a	"2021-03-16 14:07:54.519475"	"2021-03-16 14:07:55.085630"	29	3.16096898333333
"S210316"	"Response_Selection"	"RIGHT"	"RIGHT"	454.777100000001	600.0000012	""	n/a	n/a	n/a	n/a	n/a	n/a	"2021-03-16 14:07:55.695505"	"2021-03-16 14:07:56.358379"	30	3.16096898333333
"S210316"	"Response_Selection"	"LEFT"	"LEFT"	284.690399999988	633.3333346	""	n/a	n/a	n/a	n/a	n/a	n/a	"2021-03-16 14:07:57.001700"	"2021-03-16 14:07:57.494112"	31	3.16096898333333
"S210316"	"Response_Selection"	"LEFT"	"LEFT"	355.899999999963	1466.6666696	""	n/a	n/a	n/a	n/a	n/a	n/a	"2021-03-16 14:07:58.969660"	"2021-03-16 14:07:59.534962"	32	3.16096898333333
"S210316"	"Response_Selection"	"LEFT"	"LEFT"	402.432799999985	1266.6666692	""	n/a	n/a	n/a	n/a	n/a	n/a	"2021-03-16 14:08:00.811285"	"2021-03-16 14:08:01.421157"	33	3.16096898333333
"S210316"	"Response_Selection"	"RIGHT"	"RIGHT"	386.088599999994	550.0000011	""	n/a	n/a	n/a	n/a	n/a	n/a	"2021-03-16 14:08:01.979782"	"2021-03-16 14:08:02.573203"	34	3.16096898333333
"S210316"	"Response_Selection"	"LEFT"	"LEFT"	307.526199999984	1316.6666693	""	n/a	n/a	n/a	n/a	n/a	n/a	"2021-03-16 14:08:03.898720"	"2021-03-16 14:08:04.414742"	35	3.16096898333333
"S210316"	"Response_Selection"	"RIGHT"	"RIGHT"	352.535399999965	583.3333345	""	n/a	n/a	n/a	n/a	n/a	n/a	"2021-03-16 14:08:05.006747"	"2021-03-16 14:08:05.567278"	36	3.16096898333333
"S210316"	"Response_Selection"	"LEFT"	"LEFT"	287.96490000002	1366.6666694	""	n/a	n/a	n/a	n/a	n/a	n/a	"2021-03-16 14:08:06.942100"	"2021-03-16 14:08:07.439002"	37	3.16096898333333
"S210316"	"Response_Selection"	"RIGHT"	"RIGHT"	318.808700000034	800.0000016	""	n/a	n/a	n/a	n/a	n/a	n/a	"2021-03-16 14:08:08.247346"	"2021-03-16 14:08:08.773760"	38	3.16096898333333
"S210316"	"Response_Selection"	"LEFT"	"LEFT"	289.019399999972	966.6666686	""	n/a	n/a	n/a	n/a	n/a	n/a	"2021-03-16 14:08:09.748523"	"2021-03-16 14:08:10.245232"	39	3.16096898333333
"S210316"	"Response_Selection"	"LEFT"	"LEFT"	323.148099999969	916.6666685	""	n/a	n/a	n/a	n/a	n/a	n/a	"2021-03-16 14:08:11.170808"	"2021-03-16 14:08:11.701388"	40	3.16096898333333
"S210316"	"Response_Selection"	"RIGHT"	"RIGHT"	316.551100000027	683.3333347	""	n/a	n/a	n/a	n/a	n/a	n/a	"2021-03-16 14:08:12.393320"	"2021-03-16 14:08:12.917235"	41	3.16096898333333
"S210316"	"Response_Selection"	"LEFT"	"LEFT"	372.130900000002	1300.0000026	""	n/a	n/a	n/a	n/a	n/a	n/a	"2021-03-16 14:08:14.225676"	"2021-03-16 14:08:14.807043"	42	3.16096898333333
"S210316"	"Response_Selection"	"RIGHT"	"RIGHT"	284.366299999988	650.0000013	""	n/a	n/a	n/a	n/a	n/a	n/a	"2021-03-16 14:08:15.465248"	"2021-03-16 14:08:15.957292"	43	3.16096898333333
"S210316"	"Response_Selection"	"RIGHT"	"RIGHT"	369.415199999992	533.3333344	""	n/a	n/a	n/a	n/a	n/a	n/a	"2021-03-16 14:08:16.500390"	"2021-03-16 14:08:17.077845"	44	3.16096898333333
"S210316"	"Response_Selection"	"LEFT"	"RIGHT"	322.878600000024	1116.6666689	""	n/a	n/a	n/a	n/a	n/a	n/a	"2021-03-16 14:08:18.203121"	"2021-03-16 14:08:18.734927"	45	3.16096898333333
"S210316"	"Response_Selection"	"RIGHT"	"LEFT"	342.229999999972	1200.0000024	""	n/a	n/a	n/a	n/a	n/a	n/a	"2021-03-16 14:08:19.943623"	"2021-03-16 14:08:20.493254"	46	3.16096898333333
"S210316"	"Response_Selection"	"LEFT"	"LEFT"	495.54280000001	1200.0000024	"RIGHT"	-979.875	n/a	n/a	n/a	n/a	n/a	"2021-03-16 14:08:21.702550"	"2021-03-16 14:08:22.405787"	47	3.16096898333333
"S210316"	"Response_Selection"	"RIGHT"	"RIGHT"	297.6764	933.3333352	""	n/a	n/a	n/a	n/a	n/a	n/a	"2021-03-16 14:08:23.348278"	"2021-03-16 14:08:23.853935"	48	3.16096898333333
"S210316"	"Response_Selection"	"LEFT"	"LEFT"	309.825899999964	1250.0000025	""	n/a	n/a	n/a	n/a	n/a	n/a	"2021-03-16 14:08:25.112120"	"2021-03-16 14:08:25.629336"	49	3.16096898333333
"S210316"	"Response_Selection"	"LEFT"	"LEFT"	309.603100000004	866.6666684	""	n/a	n/a	n/a	n/a	n/a	n/a	"2021-03-16 14:08:26.504494"	"2021-03-16 14:08:27.021201"	50	3.16096898333333
"S210316"	"Response_Selection"	"LEFT"	"LEFT"	282.494999999983	1133.3333356	""	n/a	n/a	n/a	n/a	n/a	n/a	"2021-03-16 14:08:28.163334"	"2021-03-16 14:08:28.653816"	51	3.16096898333333
"S210316"	"Response_Selection"	"RIGHT"	"RIGHT"	287.769200000014	783.3333349	""	n/a	n/a	n/a	n/a	n/a	n/a	"2021-03-16 14:08:29.446263"	"2021-03-16 14:08:29.941165"	52	3.16096898333333
"S210316"	"Response_Selection"	"LEFT"	"LEFT"	287.719700000025	1016.6666687	""	n/a	n/a	n/a	n/a	n/a	n/a	"2021-03-16 14:08:30.966557"	"2021-03-16 14:08:31.462833"	53	3.16096898333333
"S210316"	"Response_Selection"	"RIGHT"	"RIGHT"	309.753499999999	1416.6666695	""	n/a	n/a	n/a	n/a	n/a	n/a	"2021-03-16 14:08:32.888455"	"2021-03-16 14:08:33.406507"	54	3.16096898333333
"S210316"	"Response_Selection"	"RIGHT"	"RIGHT"	352.142700000002	1366.6666694	""	n/a	n/a	n/a	n/a	n/a	n/a	"2021-03-16 14:08:34.781434"	"2021-03-16 14:08:35.342594"	55	3.16096898333333
"S210316"	"Response_Selection"	"LEFT"	"LEFT"	319.46720000002	983.3333353	""	n/a	n/a	n/a	n/a	n/a	n/a	"2021-03-16 14:08:36.334446"	"2021-03-16 14:08:36.861217"	56	3.16096898333333
"S210316"	"Response_Selection"	"LEFT"	"LEFT"	325.391700000011	683.3333347	""	n/a	n/a	n/a	n/a	n/a	n/a	"2021-03-16 14:08:37.552871"	"2021-03-16 14:08:38.085711"	57	3.16096898333333
"S210316"	"Response_Selection"	"LEFT"	"LEFT"	252.32619999997	700.0000014	""	n/a	n/a	n/a	n/a	n/a	n/a	"2021-03-16 14:08:38.793843"	"2021-03-16 14:08:39.253249"	58	3.16096898333333
"S210316"	"Response_Selection"	"LEFT"	"LEFT"	326.824299999998	1416.6666695	""	n/a	n/a	n/a	n/a	n/a	n/a	"2021-03-16 14:08:40.679038"	"2021-03-16 14:08:41.214926"	59	3.16096898333333
"S210316"	"Response_Selection"	"LEFT"	"LEFT"	241.016500000001	933.3333352	""	n/a	n/a	n/a	n/a	n/a	n/a	"2021-03-16 14:08:42.157192"	"2021-03-16 14:08:42.605447"	60	3.16096898333333
"S210316"	"Response_Selection"	"LEFT"	"LEFT"	288.606200000004	783.3333349	""	n/a	n/a	n/a	n/a	n/a	n/a	"2021-03-16 14:08:43.397438"	"2021-03-16 14:08:43.894109"	61	3.16096898333333
"S210316"	"Response_Selection"	"RIGHT"	"RIGHT"	265.529799999968	1350.0000027	""	n/a	n/a	n/a	n/a	n/a	n/a	"2021-03-16 14:08:45.252291"	"2021-03-16 14:08:45.725639"	62	3.16096898333333
"S210316"	"Response_Selection"	"LEFT"	"LEFT"	375.545499999987	1400.0000028	""	n/a	n/a	n/a	n/a	n/a	n/a	"2021-03-16 14:08:47.134003"	"2021-03-16 14:08:47.718070"	63	3.16096898333333
"S210316"	"Response_Selection"	"LEFT"	"LEFT"	318.931899999995	600.0000012	""	n/a	n/a	n/a	n/a	n/a	n/a	"2021-03-16 14:08:48.327484"	"2021-03-16 14:08:48.854146"	64	3.16096898333333
"S210316"	"Response_Selection"	"LEFT"	"LEFT"	281.858099999965	733.3333348	""	n/a	n/a	n/a	n/a	n/a	n/a	"2021-03-16 14:08:49.595904"	"2021-03-16 14:08:50.087405"	65	3.16096898333333
"S210316"	"Response_Selection"	"RIGHT"	"RIGHT"	402.830599999959	1083.3333355	""	n/a	n/a	n/a	n/a	n/a	n/a	"2021-03-16 14:08:51.179162"	"2021-03-16 14:08:51.790025"	66	3.16096898333333
"S210316"	"Response_Selection"	"RIGHT"	"RIGHT"	346.075600000006	1133.3333356	""	n/a	n/a	n/a	n/a	n/a	n/a	"2021-03-16 14:08:52.932014"	"2021-03-16 14:08:53.487087"	67	3.16096898333333
"S210316"	"Response_Selection"	"RIGHT"	"RIGHT"	245.128899999997	1033.3333354	""	n/a	n/a	n/a	n/a	n/a	n/a	"2021-03-16 14:08:54.528409"	"2021-03-16 14:08:54.982466"	68	3.16096898333333
"S210316"	"Response_Selection"	"RIGHT"	"RIGHT"	287.275700000009	1400.0000028	""	n/a	n/a	n/a	n/a	n/a	n/a	"2021-03-16 14:08:56.390899"	"2021-03-16 14:08:56.885566"	69	3.16096898333333
"S210316"	"Response_Selection"	"LEFT"	"LEFT"	337.750800000038	1350.0000027	""	n/a	n/a	n/a	n/a	n/a	n/a	"2021-03-16 14:08:58.244068"	"2021-03-16 14:08:58.791123"	70	3.16096898333333
"S210316"	"Response_Selection"	"LEFT"	"LEFT"	394.60170000001	1083.3333355	""	n/a	n/a	n/a	n/a	n/a	n/a	"2021-03-16 14:08:59.883194"	"2021-03-16 14:09:00.485701"	71	3.16096898333333
"S210316"	"Response_Selection"	"RIGHT"	"RIGHT"	397.625500000004	633.3333346	""	n/a	n/a	n/a	n/a	n/a	n/a	"2021-03-16 14:09:01.128280"	"2021-03-16 14:09:01.734631"	72	3.16096898333333
"S210316"	"Response_Selection"	"RIGHT"	"RIGHT"	347.464800000012	866.6666684	""	n/a	n/a	n/a	n/a	n/a	n/a	"2021-03-16 14:09:02.610574"	"2021-03-16 14:09:03.167084"	73	3.16096898333333
"S210316"	"Response_Selection"	"RIGHT"	"RIGHT"	316.958599999964	833.333335	""	n/a	n/a	n/a	n/a	n/a	n/a	"2021-03-16 14:09:04.009275"	"2021-03-16 14:09:04.533330"	74	3.16096898333333
"S210316"	"Response_Selection"	"LEFT"	"LEFT"	302.586900000051	650.0000013	""	n/a	n/a	n/a	n/a	n/a	n/a	"2021-03-16 14:09:05.191369"	"2021-03-16 14:09:05.701213"	75	3.16096898333333
"S210316"	"Response_Selection"	"LEFT"	"LEFT"	314.342199999999	550.0000011	""	n/a	n/a	n/a	n/a	n/a	n/a	"2021-03-16 14:09:06.259335"	"2021-03-16 14:09:06.781218"	76	3.16096898333333
"S210316"	"Response_Selection"	"RIGHT"	"RIGHT"	284.208199999966	916.6666685	""	n/a	n/a	n/a	n/a	n/a	n/a	"2021-03-16 14:09:07.706326"	"2021-03-16 14:09:08.197563"	77	3.16096898333333
"S210316"	"Response_Selection"	"LEFT"	"LEFT"	359.686199999999	583.3333345	""	n/a	n/a	n/a	n/a	n/a	n/a	"2021-03-16 14:09:08.790521"	"2021-03-16 14:09:09.357894"	78	3.16096898333333
"S210316"	"Response_Selection"	"RIGHT"	"RIGHT"	225.173600000005	750.0000015	""	n/a	n/a	n/a	n/a	n/a	n/a	"2021-03-16 14:09:10.116605"	"2021-03-16 14:09:10.549455"	79	3.16096898333333
"S210316"	"Response_Selection"	"LEFT"	"LEFT"	244.500700000003	1216.6666691	""	n/a	n/a	n/a	n/a	n/a	n/a	"2021-03-16 14:09:11.777521"	"2021-03-16 14:09:12.230766"	80	3.16096898333333
