index	Trial_Type	Participant_ID	Trial_Probability	Question_Position_Prediction_Correct	Question_Position_Prediction_Agent	Question_Position_Comparison_Self	Question_Position_Comparison_Irrelevant	Trial_Stake	Trial_Stake_Jitter	Trial_Type_Jitter	Trial_Result_Jitter	Balance_Update_Jitter	Question_Comparison_Condition	Question_Comparison_Type	Question_Comparison_Question	Question_Comparison_Label	Question_Comparison_Item	Question_Comparison_Proportion_Yes	Question_Factual_Condition	Question_Factual_Item	Question_Factual_Question	Question_Factual_Label	Question_Factual_Proportion_DontKnow	Question_Factual_Type	Answer_Prediction_Agent	Answer_Prediction_Agent_RT	Answer_Prediction_Correct	Answer_Prediction_Correct_RT	Answer_Irrelevant	Answer_Irrelevant_RT	Answer_Self	Answer_Self_RT	Trial_Balance	Trial_Balance_Effect	Trial_Condition	Trial_ProbableSide	Prediction_Choice	Prediction_Result	Prediction_RT	Trial_Order	Trial_Datetime
94	Self	S210118	0.8333333333333334	2	1	2	1	0.4	1500.000003	1150.0000023	1783.3333369	1650.0000033	Minor	Good_deeds	7	You have borrowed things and never returned	C2_29	0.65	Hard	I2_12	48	Lehman Brothers went bankrupt on 20th September	0.611111111111111	Yes	RIGHT	852.7401999999711	RIGHT	678.8842999999929	RIGHT	1797.3038000000088	LEFT	1582.542500000045	10.4	0.4	Probable_Truth	LEFT	LEFT	1	868.1411000000026	0	2021-01-18 14:09:50.380194
21	Self	S210118	0.6666666666666666	1	2	2	1	0.6	1283.3333359	1433.3333362	1500.000003	1783.3333369	Minor	Wrong_doings	3	You have illegally stayed in a country	C2_38	0.85	Easy	I2_58	40	The sun rises at night	0.722222222222222	Yes	RIGHT	502.7359000000047	RIGHT	647.8021000000354	LEFT	1322.837300000003	LEFT	1661.7879000000355	11.0	0.6	Probable_Lie	LEFT	LEFT	3	933.7984000000006	1	2021-01-18 14:10:14.043498
11	Self	S210118	0.5	2	1	1	2	0.4	1500.000003	1283.3333359	1650.0000033	2350.0000047	Major	Good_deeds	51	You have told someone's secret to others	C1_27	0.95	Easy	I1_21	43	Carnivore refers to meat-eater	0.0	No	RIGHT	1448.2504000000065	LEFT	752.3906000000125	RIGHT	2182.829900000001	RIGHT	2308.5037999999827	10.6	0.4	Probable_Lie	LEFT	LEFT	6	1315.6313000000068	2	2021-01-18 14:10:41.427380
41	Self	S210118	0.8333333333333334	2	1	1	2	0.5	1433.3333362	1000.000002	1650.0000033	2350.0000047	Minor	Good_deeds	31	You have blackmailed others for money	C1_49	0.95	Hard	I2_41	57	Septicemia is a lung infection condition	0.944444444444444	Yes	RIGHT	1192.645299999981	RIGHT	742.4805999999649	RIGHT	2957.5336000000334	LEFT	1317.3327000000086	11.1	0.5	Probable_Lie	LEFT	LEFT	3	769.7720999999547	3	2021-01-18 14:11:07.444736
76	Self	S210118	0.6666666666666666	2	1	2	1	0.6	1350.0000027	1216.6666691	1933.3333372	2350.0000047	Minor	Good_deeds	1	You have taken part in violent demonstration	C2_46	0.45	Easy	I1_19	44	French is Singapore's official language	0.777777777777778	Yes	RIGHT	927.662899999973	LEFT	711.1982000000125	LEFT	1508.984600000019	LEFT	1212.7917000000252	10.5	0.6	Probable_Lie	RIGHT	RIGHT	2	784.3901999999616	4	2021-01-18 14:11:32.036445
46	Self	S210118	0.8333333333333334	2	1	2	1	0.3	1066.6666688	1350.0000027	2500.000005	1783.3333369	Minor	Good_deeds	60	You have engaged in drink-driving	C2_31	0.65	Hard	I2_59	5	The hyoid bone is the only jointless bone	0.888888888888889	No	RIGHT	536.486200000013	RIGHT	479.2915999998968	RIGHT	2508.427299999994	LEFT	1286.4722000000484	10.8	0.3	Probable_Truth	RIGHT	RIGHT	2	697.7034999999887	5	2021-01-18 14:11:56.835455
45	Self	S210118	0.8333333333333334	2	1	2	1	0.2	1500.000003	1283.3333359	1783.3333369	1500.000003	Major	Wrong_doings	23	You have stopped using plastics completely	C1_53	0.0	Easy	I1_8	41	The Amazon forest covers an area of 1 billion acres	0.0	No	RIGHT	627.3793000000296	RIGHT	518.0626999999731	LEFT	2735.0772999999435	LEFT	3198.154599999953	11.0	0.2	Probable_Truth	RIGHT	RIGHT	6	758.0040999999937	6	2021-01-18 14:12:23.330171
141	Computer	S210118	0.8333333333333334	2	1	2	1	0.1	1150.0000023	1000.000002	1783.3333369	2500.000005	Major	Wrong_doings	23	You have stopped using plastics completely	C1_53	0.0	Easy	I1_8	41	The Amazon forest covers an area of 1 billion acres	0.0	No	LEFT	815.8544000000347	LEFT	1270.40379999994	LEFT	2728.1723000000966	LEFT	1486.2359999999626	11.0	0.1	Probable_Lie	LEFT	RIGHT	1	513.7632412623386	7	2021-01-18 14:12:49.171982
114	Computer	S210118	0.6666666666666666	1	2	1	2	0.7	1283.3333359	1150.0000023	1500.000003	1933.3333372	Major	Wrong_doings	28	You have adopted a zero-waste lifestyle	C2_54	0.05	Easy	I1_9	4	Pyramid of Giza is 468 feet tall	0.0	No	LEFT	879.7447000000602	LEFT	1120.4556999999795	RIGHT	1549.4994000000588	LEFT	2317.443099999992	11.0	0.7	Probable_Lie	RIGHT	LEFT	4	685.4688484616893	8	2021-01-18 14:13:14.179106
10	Self	S210118	0.5	2	1	1	2	0.1	1066.6666688	1150.0000023	1933.3333372	1500.000003	Minor	Wrong_doings	27	You have participated in a scamming business	C1_12	0.0	Hard	I1_48	4	R. Amundsen discovered the South Pole	0.611111111111111	Yes	RIGHT	822.1754999999575	RIGHT	469.47320000003856	RIGHT	3079.003700000044	LEFT	1333.3427999999683	11.1	0.1	Probable_Truth	RIGHT	LEFT	2	1211.6475000000264	9	2021-01-18 14:13:39.347140
101	Computer	S210118	0.5	1	2	2	1	0.7	1500.000003	1350.0000027	1500.000003	2350.0000047	Major	Good_deeds	14	You have taken months off to volunteer	C1_45	0.05	Easy	I1_32	32	It is 20th Century now	0.0	No	LEFT	607.8138999999965	LEFT	731.9082000000208	LEFT	2301.1768000000075	RIGHT	2486.0979000000043	11.1	0.7	Probable_Lie	RIGHT	RIGHT	3	755.2659631352452	10	2021-01-18 14:14:05.515595
124	Computer	S210118	0.6666666666666666	2	1	2	1	0.3	1000.000002	1350.0000027	1650.0000033	2500.000005	Major	Wrong_doings	24	You have gossiped about your best friend	C2_43	1.0	Easy	I2_1	1	Penguin can fly with their wings	0.888888888888889	No	LEFT	895.9732999999233	LEFT	733.8045000000193	LEFT	1813.0161999999928	LEFT	2374.065900000005	11.1	0.3	Probable_Lie	RIGHT	RIGHT	2	871.0946685622832	11	2021-01-18 14:14:31.299446
29	Self	S210118	0.6666666666666666	2	1	2	1	0.7	1150.0000023	1500.000003	1650.0000033	2350.0000047	Minor	Good_deeds	59	You have provided shelter for stray animals	C1_24	0.55	Easy	I1_3	54	It takes 112 years to build the Pisa Tower	0.0	Yes	RIGHT	629.9957999999606	RIGHT	479.2797000000064	LEFT	1826.778699999977	RIGHT	2477.8166999999485	11.8	0.7	Probable_Truth	RIGHT	RIGHT	5	792.4481000000014	12	2021-01-18 14:14:56.764520
52	Self	S210118	0.5	1	2	2	1	0.8	1283.3333359	1066.6666688	2500.000005	1500.000003	Minor	Wrong_doings	6	You have been arrested	C2_19	0.0	Hard	I1_11	23	Summer is hotter than winter	0.0	Yes	RIGHT	558.2756000000018	LEFT	925.3233999999112	RIGHT	1781.3993999999411	LEFT	1156.784900000048	10.999999999999998	0.8	Probable_Lie	LEFT	LEFT	6	946.173599999952	13	2021-01-18 14:15:21.091261
109	Computer	S210118	0.5	2	1	2	1	0.3	1000.000002	1066.6666688	1783.3333369	2066.6666708	Major	Wrong_doings	40	You have watched an M18 movie when you were underage	C2_58	0.65	Easy	I2_30	14	Beer is an alcoholic drink	0.888888888888889	No	LEFT	990.2856999999584	RIGHT	822.3092000000634	RIGHT	1327.2005999999692	RIGHT	1844.7777000000087	10.999999999999998	0.3	Probable_Truth	RIGHT	LEFT	1	706.6636243886593	14	2021-01-18 14:15:45.291226
77	Self	S210118	0.6666666666666666	2	1	2	1	0.2	1000.000002	1350.0000027	2066.6666708	2216.6666711000003	Major	Good_deeds	39	You have sold illegal drugs	C1_39	1.0	Easy	I1_44	16	A dog has four legs	0.722222222222222	Yes	RIGHT	496.59780000001774	RIGHT	485.67900000000463	RIGHT	977.6685999999016	LEFT	1030.3518000000622	11.199999999999998	0.2	Probable_Truth	RIGHT	RIGHT	6	720.717299999933	15	2021-01-18 14:16:08.235400
62	Self	S210118	0.5	2	1	2	1	0.6	1433.3333362	1000.000002	2500.000005	1650.0000033	Minor	Wrong_doings	36	You have extorted money from anyone	C2_36	0.95	Hard	I2_42	60	The first Olympic Games was held in the 5th century B.C	0.0555555555555556	No	RIGHT	1069.9521999999888	LEFT	605.8686999999736	RIGHT	2337.103799999909	LEFT	1230.249200000003	10.599999999999998	0.6	Probable_Lie	LEFT	LEFT	5	886.0732000000553	16	2021-01-18 14:16:33.547743
38	Self	S210118	0.8333333333333334	1	2	2	1	0.3	1433.3333362	1500.000003	2066.6666708	2216.6666711000003	Minor	Wrong_doings	37	You have downloaded pirated movies	C1_36	0.25	Easy	I1_17	56	Teddy Roosevelt was the youngest US President	0.0	No	RIGHT	390.29279999999744	RIGHT	599.7684999999819	LEFT	2435.773100000006	RIGHT	1278.3342000000175	10.9	0.3	Probable_Truth	RIGHT	RIGHT	3	711.9749000000866	17	2021-01-18 14:16:58.779203
97	Computer	S210118	0.5	1	2	1	2	0.6	1000.000002	1066.6666688	2350.0000047	1650.0000033	Major	Good_deeds	46	You have given way to the handicapped	C1_5	0.0	Hard	I2_21	18	Marijuana is legal in Singapore	0.0	No	LEFT	326.88500000006115	LEFT	480.4446999999072	RIGHT	1158.0277000000478	RIGHT	1376.355100000069	10.9	0.6	Probable_Lie	LEFT	LEFT	6	537.6520064525047	18	2021-01-18 14:17:21.323026
27	Self	S210118	0.6666666666666666	2	1	1	2	0.3	1283.3333359	1066.6666688	2350.0000047	1500.000003	Major	Good_deeds	43	You have given directions to a lost tourist	C1_59	0.0	Hard	I2_23	23	The current century is 21st	1.0	No	RIGHT	715.7451000000492	RIGHT	590.199499999926	RIGHT	1317.9896999999985	RIGHT	1975.0291999999945	11.2	0.3	Probable_Truth	LEFT	LEFT	2	669.5039999999608	19	2021-01-18 14:17:45.387159
103	Computer	S210118	0.5	1	2	2	1	0.3	1216.6666691	1150.0000023	2500.000005	1783.3333369	Minor	Wrong_doings	9	You have followed instructions	C1_14	0.7	Easy	I1_43	21	Today is a weekday	0.833333333333333	Yes	LEFT	390.34429999992426	LEFT	655.2978000000849	RIGHT	1794.616700000006	RIGHT	1396.9872000000123	11.2	0.3	Probable_Lie	RIGHT	LEFT	5	727.3885118749172	20	2021-01-18 14:18:09.602306
13	Self	S210118	0.5	2	1	2	1	0.3	1150.0000023	1066.6666688	1783.3333369	2216.6666711000003	Major	Wrong_doings	40	You have watched an M18 movie when you were underage	C2_58	0.65	Easy	I2_30	14	Beer is an alcoholic drink	0.888888888888889	No	RIGHT	1061.0865999999533	LEFT	518.1769000000713	RIGHT	1025.0932000000148	RIGHT	2397.4829999999656	10.9	0.3	Probable_Lie	RIGHT	RIGHT	1	1137.3331999999436	21	2021-01-18 14:18:34.555093
120	Computer	S210118	0.6666666666666666	2	1	1	2	0.7	1500.000003	1216.6666691	1500.000003	1500.000003	Major	Wrong_doings	28	You have attended all lectures as a student	C1_28	0.2	Hard	I2_54	36	"Statue of Liberty is 151 feet tall"	0.944444444444444	No	LEFT	926.0402999999542	RIGHT	717.9762999999184	RIGHT	1125.3898999999592	RIGHT	1771.7996000000085	10.9	0.7	Probable_Truth	RIGHT	RIGHT	5	539.4742972291069	22	2021-01-18 14:18:57.947008
59	Self	S210118	0.5	2	1	1	2	0.3	1150.0000023	1500.000003	1500.000003	2500.000005	Minor	Good_deeds	13	You have been physically hurt to protect others	C1_13	0.65	Easy	I2_44	42	There are 20 bones in the human skull	0.0	Yes	RIGHT	999.2780999999696	LEFT	1919.3429000000608	LEFT	4150.337300000047	LEFT	3172.4583999999822	10.599999999999998	0.3	Probable_Lie	RIGHT	LEFT	5	1044.37089999999	23	2021-01-18 14:19:28.483071
53	Self	S210118	0.5	1	2	2	1	0.6	1500.000003	1283.3333359	1650.0000033	1933.3333372	Minor	Good_deeds	19	You have made counterfeit money	C1_33	0.55	Hard	I2_8	46	Nomophobia is the fear of being without a phone or computer	0.777777777777778	Yes	RIGHT	678.065800000013	RIGHT	817.3690999999508	RIGHT	2837.273400000072	LEFT	1653.6121999999978	11.199999999999998	0.6	Probable_Truth	RIGHT	LEFT	2	1338.0240999999842	24	2021-01-18 14:19:54.771335
137	Computer	S210118	0.8333333333333334	2	1	1	2	0.6	1000.000002	1500.000003	1933.3333372	2216.6666711000003	Minor	Good_deeds	31	You have blackmailed others for money	C1_49	0.95	Hard	I2_41	57	Septicemia is a lung infection condition	0.944444444444444	Yes	LEFT	1442.2534000000269	LEFT	1557.229500000176	RIGHT	988.1961999999476	LEFT	1265.1564999998757	11.199999999999998	0.6	Probable_Lie	RIGHT	LEFT	3	874.7901923686316	25	2021-01-18 14:20:20.140399
19	Self	S210118	0.6666666666666666	1	2	1	2	0.4	1066.6666688	1283.3333359	1933.3333372	2350.0000047	Major	Good_deeds	43	You have engaged in arson	C1_40	0.05	Hard	I1_33	9	It takes 500 days to travel from Earth to Mars	0.0	No	RIGHT	384.5690000000559	RIGHT	754.6166000001904	LEFT	2807.014499999923	LEFT	1514.55030000011	11.599999999999998	0.4	Probable_Truth	RIGHT	RIGHT	6	612.5156999999035	26	2021-01-18 14:20:45.426991
73	Self	S210118	0.6666666666666666	2	1	1	2	0.1	1066.6666688	1000.000002	2500.000005	2500.000005	Minor	Wrong_doings	8	You have been restricting your electricity consumption	C2_8	0.15	Hard	I2_16	27	Earth's atmosphere extends up to 10,000km into space	0.666666666666667	No	RIGHT	1222.4616999999398	LEFT	1592.5815999999031	RIGHT	3174.999799999796	RIGHT	3214.8122000000967	11.499999999999998	0.1	Probable_Lie	LEFT	LEFT	5	502.7285000001029	27	2021-01-18 14:21:14.770557
17	Self	S210118	0.6666666666666666	1	2	1	2	0.1	1150.0000023	1500.000003	2066.6666708	1933.3333372	Major	Good_deeds	40	You have intentionally let others cut in line	C2_6	0.95	Hard	I1_4	33	Animals are living things	0.944444444444444	No	RIGHT	344.4400000000769	RIGHT	694.7723000000678	RIGHT	912.2704999999768	RIGHT	2652.452499999981	11.599999999999998	0.1	Probable_Truth	LEFT	LEFT	2	698.2259999999769	28	2021-01-18 14:21:39.290256
67	Self	S210118	0.6666666666666666	1	2	1	2	0.4	1283.3333359	1066.6666688	1500.000003	2350.0000047	Minor	Good_deeds	56	You have kidnapped someone	C1_58	0.7	Hard	I2_28	28	Algeria is Africa's second largest country	1.0	Yes	RIGHT	368.76580000011927	RIGHT	397.3005999998804	RIGHT	3079.939599999989	LEFT	964.2033000000084	11.999999999999998	0.4	Probable_Truth	LEFT	LEFT	1	805.4482000000007	29	2021-01-18 14:22:03.674764
128	Computer	S210118	0.8333333333333334	1	2	1	2	0.8	1433.3333362	1066.6666688	1500.000003	2216.6666711000003	Minor	Good_deeds	4	You have bribed someone to improve a grade	C1_17	0.7	Easy	I2_56	36	Acoustic Kitty refers to cat with implants	0.0555555555555556	No	LEFT	840.2298000000883	RIGHT	905.794399999877	LEFT	3733.289699999887	LEFT	1514.2717000001085	11.999999999999998	0.8	Probable_Truth	RIGHT	RIGHT	4	706.9341435779573	30	2021-01-18 14:22:30.153641
22	Self	S210118	0.6666666666666666	1	2	2	1	0.2	1433.3333362	1066.6666688	2500.000005	2216.6666711000003	Major	Good_deeds	54	You have cursed at others	C1_3	0.85	Hard	I2_39	58	The Earth is round	0.0	Yes	RIGHT	656.6399000000729	RIGHT	646.0832999998729	RIGHT	1096.992999999884	RIGHT	1720.3930999999102	12.199999999999998	0.2	Probable_Truth	LEFT	LEFT	2	680.4551000000174	31	2021-01-18 14:22:54.746218
35	Self	S210118	0.8333333333333334	1	2	1	2	0.6	1350.0000027	1283.3333359	1500.000003	1783.3333369	Major	Good_deeds	17	You have been convicted in court	C2_37	0.0	Hard	I1_45	29	Malay is one of the races in Singapore	0.611111111111111	No	RIGHT	455.84009999993214	RIGHT	539.9704999999813	RIGHT	1423.496600000135	LEFT	912.0201000000634	12.799999999999995	0.6	Probable_Truth	RIGHT	RIGHT	3	721.239100000048	32	2021-01-18 14:23:17.290309
54	Self	S210118	0.5	1	2	2	1	0.1	1150.0000023	1433.3333362	2350.0000047	1650.0000033	Major	Wrong_doings	14	You have drunk alcohol when you were underage	C2_50	0.9	Easy	I1_39	8	Bears have the biggest eyes among mammals	0.944444444444444	No	RIGHT	327.9786000000513	RIGHT	499.6774999999616	LEFT	2103.902099999914	RIGHT	2048.3937000001333	12.899999999999997	0.1	Probable_Truth	RIGHT	LEFT	2	841.3479999999254	33	2021-01-18 14:23:42.266990
60	Self	S210118	0.5	2	1	2	1	0.1	1283.3333359	1350.0000027	2066.6666708	2350.0000047	Major	Wrong_doings	52	You have given up your seat in the MRT	C1_38	0.05	Hard	I2_53	5	There are 9 rings in the Olympic flag	0.833333333333333	No	RIGHT	518.1271999999808	RIGHT	295.97919999991973	LEFT	2048.5853999998653	RIGHT	1222.59269999995	12.999999999999996	0.1	Probable_Truth	RIGHT	LEFT	2	1045.4340999999658	34	2021-01-18 14:24:07.026622
33	Self	S210118	0.8333333333333334	1	2	1	2	0.7	1066.6666688	1216.6666691	1933.3333372	1933.3333372	Minor	Good_deeds	18	You have held the elevator doors for others	C2_35	0.95	Easy	I2_31	2	Brazil is in South America	0.0555555555555556	Yes	RIGHT	800.8842999997796	RIGHT	740.5745999999453	RIGHT	3057.3541000001114	RIGHT	1402.0242999999937	13.699999999999996	0.7	Probable_Truth	LEFT	LEFT	1	723.1451000000106	35	2021-01-18 14:24:32.474899
95	Self	S210118	0.8333333333333334	2	1	2	1	0.7	1216.6666691	1000.000002	2066.6666708	1500.000003	Major	Wrong_doings	3	You have confessed to your mistake	C2_53	0.1	Hard	I2_35	47	Most plants emit oxygen in the day	0.888888888888889	No	RIGHT	1075.7886999999755	LEFT	576.5611000001627	RIGHT	2284.338200000093	RIGHT	1455.6018000000677	12.999999999999996	0.7	Probable_Lie	RIGHT	RIGHT	1	721.2823999998363	36	2021-01-18 14:24:56.945723
6	Self	S210118	0.5	1	2	2	1	0.3	1216.6666691	1150.0000023	2500.000005	1783.3333369	Minor	Wrong_doings	42	You have done something against your values	C2_9	0.0	Hard	I2_11	26	Hot chocolate was created by the Mayan culture	0.944444444444444	Yes	RIGHT	415.62739999994847	RIGHT	459.67829999995047	RIGHT	1995.0264999999945	LEFT	1886.2158000001727	13.299999999999995	0.3	Probable_Truth	RIGHT	LEFT	2	1306.2054999998054	37	2021-01-18 14:25:22.234905
40	Self	S210118	0.8333333333333334	2	1	1	2	0.4	1283.3333359	1433.3333362	2066.6666708	2216.6666711000003	Major	Good_deeds	53	You have queued to enter the MRT train	C1_30	0.05	Hard	I1_57	33	Arabi is the oldest surviving breed of horse	0.777777777777778	Yes	RIGHT	431.4507999999933	RIGHT	671.9253999999637	RIGHT	3030.987500000037	RIGHT	1503.1624999999167	13.699999999999998	0.4	Probable_Truth	LEFT	LEFT	1	614.705800000138	38	2021-01-18 14:25:48.058377
131	Computer	S210118	0.8333333333333334	1	2	1	2	0.4	1150.0000023	1150.0000023	1783.3333369	1500.000003	Major	Good_deeds	17	You have been convicted in court	C2_37	0.0	Hard	I1_45	29	Malay is one of the races in Singapore	0.611111111111111	No	LEFT	607.9416000000037	LEFT	2215.6634000000395	RIGHT	1182.962299999872	LEFT	981.2610999999832	13.699999999999998	0.4	Probable_Lie	RIGHT	RIGHT	1	745.5665359016614	39	2021-01-18 14:26:11.945325
70	Self	S210118	0.6666666666666666	1	2	2	1	0.7	1216.6666691	1433.3333362	1933.3333372	2066.6666708	Major	Wrong_doings	39	You have volunteered for a disaster-related humanitarian mission	C2_39	0.0	Easy	I1_42	42	Beef comes from cows	0.0	No	RIGHT	400.46010000014576	RIGHT	653.509700000086	RIGHT	1269.517699999824	LEFT	2568.3332999999493	14.399999999999997	0.7	Probable_Truth	LEFT	LEFT	1	625.448299999789	40	2021-01-18 14:26:36.682251
32	Self	S210118	0.8333333333333334	1	2	1	2	0.1	1500.000003	1350.0000027	2500.000005	2066.6666708	Minor	Good_deeds	4	You have bribed someone to improve a grade	C1_17	0.7	Easy	I2_56	36	Acoustic Kitty refers to cat with implants	0.0555555555555556	No	RIGHT	1575.8129999999255	RIGHT	2531.675999999834	LEFT	2327.5297000000137	LEFT	1064.368800000011	14.499999999999996	0.1	Probable_Lie	LEFT	LEFT	4	687.1168000000125	41	2021-01-18 14:27:04.859799
100	Computer	S210118	0.5	1	2	2	1	0.1	1150.0000023	1283.3333359	1933.3333372	2066.6666708	Minor	Good_deeds	5	You have assisted in a crime	C1_46	0.9	Easy	I2_34	11	Mageirocophobia is a fear of deathly disease	0.888888888888889	No	LEFT	350.9993999998642	LEFT	506.05300000006537	RIGHT	3463.0279999998947	LEFT	1255.5488999998945	14.499999999999996	0.1	Probable_Lie	LEFT	RIGHT	1	896.5396283883131	42	2021-01-18 14:27:30.338385
111	Computer	S210118	0.5	2	1	2	1	0.8	1283.3333359	1350.0000027	1650.0000033	2500.000005	Major	Good_deeds	23	You have started a hotline for victims of bully	C1_44	0.05	Easy	I2_26	53	Obama is the USA president now	0.833333333333333	No	LEFT	903.002699999888	LEFT	448.31780000004073	LEFT	1510.3985999999168	LEFT	2215.4880999999023	14.499999999999996	0.8	Probable_Lie	RIGHT	LEFT	6	848.3401582330939	43	2021-01-18 14:27:55.617274
58	Self	S210118	0.5	2	1	1	2	0.2	1350.0000027	1283.3333359	1650.0000033	1500.000003	Major	Good_deeds	38	You have cheated on a test	C2_11	0.45	Hard	I1_38	44	Chickens lay eggs	0.0555555555555556	Yes	RIGHT	1096.0878999999295	LEFT	656.0162000000673	RIGHT	983.7018999999144	LEFT	1302.5610999998207	14.299999999999995	0.2	Probable_Lie	LEFT	LEFT	6	943.6863999999332	44	2021-01-18 14:28:18.953156
56	Self	S210118	0.5	2	1	1	2	0.4	1066.6666688	1433.3333362	1783.3333369	1783.3333369	Minor	Wrong_doings	9	You have eaten something in the MRT train	C1_35	0.15	Easy	I1_60	25	There is typically 0.6 grams of mercury in glass thermometer	0.666666666666667	Yes	RIGHT	672.3982000000888	RIGHT	327.927900000077	RIGHT	1735.4822999998305	LEFT	1645.086199999923	14.699999999999998	0.4	Probable_Truth	LEFT	RIGHT	5	1134.7078000001147	45	2021-01-18 14:28:43.105091
15	Self	S210118	0.5	2	1	2	1	0.8	1000.000002	1500.000003	2350.0000047	1783.3333369	Major	Good_deeds	23	You have started a hotline for victims of bully	C1_44	0.05	Easy	I2_26	53	Obama is the USA president now	0.833333333333333	No	RIGHT	738.9032999999472	LEFT	656.2192000001232	LEFT	1060.0828000001457	LEFT	1670.8046999999624	13.899999999999997	0.8	Probable_Lie	RIGHT	LEFT	4	1060.921700000108	46	2021-01-18 14:29:07.498770
99	Computer	S210118	0.5	1	2	1	2	0.4	1283.3333359	1000.000002	2216.6666711000003	2500.000005	Major	Wrong_doings	45	You have used a fake name online	C2_47	0.95	Easy	I1_12	34	Some owl species hunt fish	0.666666666666667	Yes	LEFT	728.1306999998378	LEFT	896.1486000000605	RIGHT	2215.416799999957	LEFT	3245.2021000001423	13.899999999999997	0.4	Probable_Lie	LEFT	LEFT	6	504.1893041342798	47	2021-01-18 14:29:34.657122
16	Self	S210118	0.6666666666666666	1	2	1	2	0.5	1500.000003	1150.0000023	2216.6666711000003	1650.0000033	Minor	Wrong_doings	38	You have failed to keep promises	C1_43	0.0	Easy	I1_40	3	Singapore is in Africa	0.833333333333333	Yes	RIGHT	441.2943999998333	RIGHT	512.3682000000827	LEFT	1120.3560999999809	LEFT	1519.5935000001557	14.399999999999997	0.5	Probable_Truth	LEFT	LEFT	2	862.9699999999048	48	2021-01-18 14:32:36.649262
92	Self	S210118	0.8333333333333334	2	1	2	1	0.6	1350.0000027	1350.0000027	1933.3333372	2066.6666708	Major	Wrong_doings	37	You have organized a violent protest	C1_7	1.0	Easy	I1_13	52	Dutch is the 6th Europe's most widely spoken language	0.111111111111111	Yes	RIGHT	540.5757000000904	RIGHT	288.7938999999733	RIGHT	2552.1279999998114	LEFT	1078.683600000204	14.999999999999996	0.6	Probable_Truth	RIGHT	RIGHT	6	638.4064999999737	49	2021-01-18 14:33:01.018188
86	Self	S210118	0.8333333333333334	1	2	2	1	0.1	1216.6666691	1500.000003	1500.000003	2216.6666711000003	Minor	Good_deeds	34	You have claimed doing things that you never did	C2_57	1.0	Hard	I1_1	52	Statute of Liberty is in New York	0.0	No	RIGHT	608.5743999999522	RIGHT	1726.06339999993	RIGHT	1370.6505999998626	LEFT	2799.522300000035	15.099999999999996	0.1	Probable_Truth	LEFT	LEFT	1	600.6614000000354	50	2021-01-18 14:33:27.129061
87	Self	S210118	0.8333333333333334	1	2	2	1	0.3	1433.3333362	1283.3333359	1783.3333369	2350.0000047	Minor	Wrong_doings	31	You have engaged in money laundering	C2_17	0.0	Easy	I1_31	28	North Korea is more developed than South Korea	0.833333333333333	Yes	RIGHT	296.76880000010897	RIGHT	747.2986999998739	LEFT	1764.716700000008	LEFT	1249.5829000001777	15.399999999999997	0.3	Probable_Truth	LEFT	LEFT	1	666.3671999999679	51	2021-01-18 14:33:51.274211
135	Computer	S210118	0.8333333333333334	1	2	2	1	0.1	1000.000002	1350.0000027	1933.3333372	2066.6666708	Major	Wrong_doings	35	You have coveted things that belong to others	C2_20	0.7	Hard	I1_29	50	Mexico's National Day is September 16	1.0	No	LEFT	648.6652000000959	RIGHT	996.7527999999676	RIGHT	3302.7037000001656	LEFT	2190.7137000000603	15.399999999999997	0.1	Probable_Truth	LEFT	LEFT	1	943.8069419375196	52	2021-01-18 14:34:18.281769
68	Self	S210118	0.6666666666666666	1	2	2	1	0.5	1500.000003	1150.0000023	2500.000005	2500.000005	Minor	Wrong_doings	1	You have used heroin	C1_50	0.05	Hard	I2_25	2	South East Asia is currently free from polio	0.0	No	RIGHT	505.145900000116	RIGHT	573.663599999918	RIGHT	2773.734000000104	LEFT	1192.8454999999758	15.899999999999997	0.5	Probable_Truth	LEFT	LEFT	2	720.5278999999791	53	2021-01-18 14:34:44.266268
84	Self	S210118	0.8333333333333334	1	2	2	1	0.8	1350.0000027	1216.6666691	2066.6666708	2066.6666708	Major	Wrong_doings	16	You have donated a pay cheque to charity	C2_34	0.0	Hard	I2_49	31	Afghan Hound is the first cloned cat	1.0	No	RIGHT	336.46009999984017	RIGHT	758.1444999998439	LEFT	2669.6650000001227	LEFT	2999.627700000019	16.699999999999996	0.8	Probable_Truth	RIGHT	RIGHT	5	621.6301000001749	54	2021-01-18 14:35:10.929630
2	Self	S210118	0.5	1	2	1	2	0.2	1350.0000027	1350.0000027	2350.0000047	2216.6666711000003	Major	Good_deeds	26	You have started an NGO using your savings	C2_42	0.0	Hard	I2_18	12	There are 6 million animal species on Earth	0.0	Yes	RIGHT	759.2111999999815	LEFT	1348.4668000000966	RIGHT	2744.718899999953	LEFT	2018.1138000000371	16.499999999999996	0.2	Probable_Lie	LEFT	RIGHT	2	1237.3207999999067	55	2021-01-18 14:35:38.875358
125	Computer	S210118	0.6666666666666666	2	1	2	1	0.6	1216.6666691	1066.6666688	2500.000005	2350.0000047	Minor	Good_deeds	59	You have provided shelter for stray animals	C1_24	0.55	Easy	I1_3	54	It takes 112 years to build the Pisa Tower	0.0	Yes	LEFT	891.48739999996	LEFT	352.82009999991715	LEFT	1769.4550999999592	RIGHT	1150.9446000000023	16.499999999999996	0.6	Probable_Lie	RIGHT	RIGHT	2	978.1895618365728	56	2021-01-18 14:36:03.729805
18	Self	S210118	0.6666666666666666	1	2	1	2	0.8	1350.0000027	1216.6666691	1783.3333369	2066.6666708	Major	Wrong_doings	28	You have adopted a zero-waste lifestyle	C2_54	0.05	Easy	I1_9	4	Pyramid of Giza is 468 feet tall	0.0	No	RIGHT	304.3527999998332	RIGHT	642.9140000000189	RIGHT	1040.5617999999777	LEFT	1703.193100000135	17.299999999999997	0.8	Probable_Truth	LEFT	LEFT	2	611.0278000001017	57	2021-01-18 14:36:27.017305
55	Self	S210118	0.5	1	2	2	1	0.7	1216.6666691	1216.6666691	2066.6666708	2500.000005	Major	Good_deeds	22	You have said sorry when you were rude	C2_14	0.95	Hard	I1_46	11	A square has 3 corners	0.166666666666667	No	RIGHT	744.2763999999897	LEFT	1879.0538000000647	LEFT	1693.5117999998963	RIGHT	1839.558299999908	16.599999999999998	0.7	Probable_Lie	LEFT	LEFT	6	1765.158799999881	58	2021-01-18 14:36:54.513826
143	Computer	S210118	0.8333333333333334	2	1	2	1	0.5	1283.3333359	1433.3333362	2066.6666708	2066.6666708	Major	Wrong_doings	24	You have been donating all your excess food to a food bank	C2_60	1.0	Easy	I1_37	59	Vegetarians can eat vegetable products	0.0	No	LEFT	961.1619000002064	RIGHT	1008.0128999998124	RIGHT	3439.809800000148	RIGHT	3823.0296000001545	16.599999999999998	0.5	Probable_Truth	RIGHT	RIGHT	4	987.55866863436	59	2021-01-18 14:37:24.144997
39	Self	S210118	0.8333333333333334	1	2	2	1	0.4	1283.3333359	1000.000002	1650.0000033	2500.000005	Major	Wrong_doings	35	You have coveted things that belong to others	C2_20	0.7	Hard	I1_29	50	Mexico's National Day is September 16	1.0	No	RIGHT	368.8532000001032	RIGHT	886.9050000002972	RIGHT	1164.8835999999392	LEFT	1253.0492999999296	16.999999999999996	0.4	Probable_Truth	RIGHT	RIGHT	6	677.9993000000104	60	2021-01-18 14:37:47.505842
49	Self	S210118	0.5	1	2	1	2	0.5	1433.3333362	1150.0000023	1933.3333372	2350.0000047	Major	Good_deeds	48	You have helped others to pick up their belongings	C2_48	0.0	Easy	I2_17	39	Kangaroos live in Africa	0.666666666666667	Yes	RIGHT	592.1223999998801	LEFT	1589.6747000001596	LEFT	1799.041099999613	RIGHT	1541.1181999998007	16.499999999999996	0.5	Probable_Lie	LEFT	RIGHT	2	873.4852999996292	61	2021-01-18 14:38:13.337256
74	Self	S210118	0.6666666666666666	2	1	1	2	0.8	1500.000003	1500.000003	2216.6666711000003	1783.3333369	Major	Good_deeds	46	You have volunteered every week for many years	C2_1	0.0	Easy	I2_51	51	Singapore is a country	0.0	Yes	LEFT	600.0044000002163	RIGHT	1768.4736999999586	RIGHT	2127.9781999996885	RIGHT	3738.9686999999863	16.499999999999996	0.8	Probable_Truth	LEFT	LEFT	1	729.5307999997931	62	2021-01-18 14:38:41.872950
89	Self	S210118	0.8333333333333334	2	1	1	2	0.2	1066.6666688	1433.3333362	1650.0000033	2350.0000047	Minor	Good_deeds	29	You have donated blood every 6 months for many years	C1_29	1.0	Hard	I2_48	13	Fibers in oranges can be used to make fabric	0.0	Yes	RIGHT	664.0253000000484	RIGHT	559.8743000000468	RIGHT	3008.650799999941	RIGHT	2584.246500000063	16.699999999999996	0.2	Probable_Truth	LEFT	LEFT	1	596.8539999998939	63	2021-01-18 14:39:08.360517
117	Computer	S210118	0.6666666666666666	1	2	2	1	0.3	1500.000003	1433.3333362	1650.0000033	1650.0000033	Minor	Wrong_doings	3	You have illegally stayed in a country	C2_38	0.85	Easy	I2_58	40	The sun rises at night	0.722222222222222	Yes	LEFT	632.0958999999675	RIGHT	1184.80849999969	LEFT	1367.0045999997456	LEFT	1167.8554999998596	16.699999999999996	0.3	Probable_Truth	LEFT	RIGHT	6	525.6500305349065	64	2021-01-18 14:39:32.032788
23	Self	S210118	0.6666666666666666	1	2	2	1	0.3	1000.000002	1000.000002	1650.0000033	2500.000005	Minor	Wrong_doings	20	You have complimented others for good work	C1_20	0.85	Easy	I2_6	39	Cleopatra was born in Greece	0.0	No	RIGHT	328.3716999999342	LEFT	1742.6752999999735	RIGHT	1911.2552999999932	RIGHT	1719.8410999999396	16.399999999999995	0.3	Probable_Lie	LEFT	LEFT	6	728.4383000001071	65	2021-01-18 14:39:57.185234
48	Self	S210118	0.5	1	2	1	2	0.2	1000.000002	1350.0000027	2216.6666711000003	1783.3333369	Minor	Wrong_doings	33	You have faked an illness	C1_6	0.0	Easy	I2_40	46	The Moon orbits around the Earth	0.0555555555555556	No	RIGHT	280.11590000005526	RIGHT	575.110499999937	LEFT	2631.223200000022	LEFT	1008.1147999999304	16.599999999999994	0.2	Probable_Truth	LEFT	RIGHT	6	915.411199999653	66	2021-01-18 14:40:21.520070
47	Self	S210118	0.8333333333333334	2	1	2	1	0.7	1350.0000027	1500.000003	1500.000003	2500.000005	Major	Wrong_doings	24	You have been donating all your excess food to a food bank	C2_60	1.0	Easy	I1_37	59	Vegetarians can eat vegetable products	0.0	No	RIGHT	971.871100000044	LEFT	631.7331000000195	RIGHT	2607.7779999995983	RIGHT	1624.0335000002233	15.899999999999997	0.7	Probable_Lie	RIGHT	RIGHT	1	735.097400000086	67	2021-01-18 14:40:47.512804
123	Computer	S210118	0.6666666666666666	2	1	1	2	0.2	1350.0000027	1000.000002	1933.3333372	1783.3333369	Major	Good_deeds	43	You have given directions to a lost tourist	C1_59	0.0	Hard	I2_23	23	The current century is 21st	1.0	No	LEFT	1520.9457999999358	RIGHT	2614.347999999609	RIGHT	984.7192000001996	RIGHT	1722.335099999782	15.899999999999997	0.2	Probable_Truth	LEFT	LEFT	1	581.9607758183921	68	2021-01-18 14:41:13.577909
122	Computer	S210118	0.6666666666666666	2	1	1	2	0.5	1066.6666688	1283.3333359	2350.0000047	2066.6666708	Minor	Good_deeds	2	You have violated a traffic law	C1_42	0.05	Hard	I1_24	24	The first Grammy awards was held in 1959	0.0	Yes	LEFT	1388.4926999999152	RIGHT	600.9540999998535	RIGHT	1639.1465000001515	LEFT	1439.729400000033	15.899999999999997	0.5	Probable_Truth	RIGHT	LEFT	1	898.3196952347728	69	2021-01-18 14:41:38.881773
44	Self	S210118	0.8333333333333334	2	1	2	1	0.1	1000.000002	1216.6666691	2216.6666711000003	1650.0000033	Minor	Wrong_doings	49	You have thrown your trash into the bin	C2_7	0.0	Hard	I2_33	8	Nanyang Technological University is in Australia	0.0	Yes	RIGHT	983.0988000003344	LEFT	695.740300000125	LEFT	1654.6243000002503	RIGHT	1559.332700000141	15.799999999999995	0.1	Probable_Lie	RIGHT	RIGHT	1	480.3109000004042	70	2021-01-18 14:42:02.913890
78	Self	S210118	0.6666666666666666	2	1	2	1	0.4	1216.6666691	1433.3333362	2350.0000047	1933.3333372	Major	Wrong_doings	60	You have said thank you when you have received help	C2_33	1.0	Hard	I1_35	10	The Seine river is 50 feet above sea level	0.0	No	RIGHT	466.90150000040376	RIGHT	281.7370000002484	RIGHT	1603.707100000065	RIGHT	1392.6700999995774	16.199999999999996	0.4	Probable_Truth	LEFT	LEFT	2	727.1221999999398	71	2021-01-18 14:42:26.889413
132	Computer	S210118	0.8333333333333334	1	2	2	1	0.5	1066.6666688	1000.000002	2350.0000047	2350.0000047	Major	Good_deeds	57	You have held the door open for a stranger	C1_4	0.95	Easy	I2_36	45	Singapore is a poor country	0.722222222222222	Yes	LEFT	487.57500000010623	RIGHT	998.5212999999932	LEFT	1410.194500000216	RIGHT	1104.407899999842	16.199999999999996	0.5	Probable_Lie	LEFT	LEFT	4	513.2868236471164	72	2021-01-18 14:42:50.745439
4	Self	S210118	0.5	1	2	2	1	0.4	1283.3333359	1500.000003	1783.3333369	2066.6666708	Minor	Good_deeds	5	You have assisted in a crime	C1_46	0.9	Easy	I2_34	11	Mageirocophobia is a fear of deathly disease	0.888888888888889	No	RIGHT	857.5912999999673	LEFT	1330.8280999999624	RIGHT	1182.3134999999638	LEFT	1096.0328000001027	15.799999999999995	0.4	Probable_Lie	LEFT	RIGHT	1	857.4657999997726	73	2021-01-18 14:43:15.273585
116	Computer	S210118	0.6666666666666666	1	2	2	1	0.6	1433.3333362	1350.0000027	2500.000005	2500.000005	Minor	Good_deeds	6	You have rescued others from a catastrophe	C2_28	0.0	Hard	I2_3	6	Mozambique is the world's poorest country	0.722222222222222	Yes	LEFT	1321.8388999998751	RIGHT	1142.376399999648	RIGHT	1954.2681999996605	LEFT	2414.773999999852	15.799999999999995	0.6	Probable_Truth	LEFT	LEFT	2	505.2780723220508	74	2021-01-18 14:43:42.961870
115	Computer	S210118	0.6666666666666666	1	2	1	2	0.2	1000.000002	1000.000002	2066.6666708	1783.3333369	Major	Good_deeds	43	You have engaged in arson	C1_40	0.05	Hard	I1_33	9	It takes 500 days to travel from Earth to Mars	0.0	No	LEFT	697.1570000000611	RIGHT	1169.729599999755	LEFT	2071.718300000157	LEFT	1160.5918000000202	15.799999999999995	0.2	Probable_Truth	RIGHT	RIGHT	6	888.9608743810929	75	2021-01-18 14:44:07.361829
51	Self	S210118	0.5	1	2	1	2	0.4	1350.0000027	1000.000002	1500.000003	2066.6666708	Major	Wrong_doings	34	You have signed up as a bone marrow donor	C1_34	1.0	Hard	I1_23	40	Saturn's rings are between 30 and 300 feet thick	0.0	No	RIGHT	286.2906999998813	RIGHT	821.5700999999171	RIGHT	1152.2632000001067	LEFT	1676.5120999998544	16.199999999999996	0.4	Probable_Truth	RIGHT	LEFT	1	1104.1840000002594	76	2021-01-18 14:44:30.897060
85	Self	S210118	0.8333333333333334	1	2	2	1	0.6	1150.0000023	1433.3333362	1650.0000033	2500.000005	Major	Wrong_doings	10	You have helped your parents when asked to	C1_8	1.0	Hard	I2_52	1	Astatine is the rarest element in the Earth's crust	0.888888888888889	Yes	RIGHT	601.7013999999108	LEFT	1951.2707999997476	RIGHT	2019.375200000013	RIGHT	1200.400499999887	15.599999999999996	0.6	Probable_Lie	RIGHT	RIGHT	1	694.9030000000675	77	2021-01-18 14:44:56.672279
71	Self	S210118	0.6666666666666666	1	2	2	1	0.6	1433.3333362	1000.000002	1650.0000033	2216.6666711000003	Major	Good_deeds	58	You have stopped using products tested on animals	C1_1	0.9	Hard	I1_2	6	The human's inner ear is larger than a pencil eraser	0.0	No	RIGHT	304.01199999960227	RIGHT	686.6306000001714	LEFT	4143.284799999947	RIGHT	4152.144700000008	16.199999999999996	0.6	Probable_Lie	LEFT	LEFT	3	625.8591000000706	78	2021-01-18 14:45:25.457429
91	Self	S210118	0.8333333333333334	2	1	1	2	0.5	1150.0000023	1066.6666688	2350.0000047	2500.000005	Minor	Good_deeds	48	You have cheated on a national exam	C1_48	0.0	Easy	I1_27	27	There are 10 continents in the World	0.888888888888889	No	RIGHT	735.2931000000353	RIGHT	303.8716999999451	LEFT	1991.120299999693	LEFT	1332.7142999996795	16.699999999999996	0.5	Probable_Truth	LEFT	LEFT	1	813.7010999998893	79	2021-01-18 14:45:50.280355
129	Computer	S210118	0.8333333333333334	1	2	1	2	0.6	1500.000003	1216.6666691	1650.0000033	1650.0000033	Minor	Good_deeds	18	You have held the elevator doors for others	C2_35	0.95	Easy	I2_31	2	Brazil is in South America	0.0555555555555556	Yes	LEFT	359.86769999999524	LEFT	566.4381000001413	RIGHT	1016.6478000001008	RIGHT	953.15249999976	16.699999999999996	0.6	Probable_Lie	RIGHT	LEFT	5	718.2519204063624	80	2021-01-18 14:46:12.481937
98	Computer	S210118	0.5	1	2	1	2	0.5	1350.0000027	1216.6666691	1650.0000033	1500.000003	Major	Good_deeds	26	You have started an NGO using your savings	C2_42	0.0	Hard	I2_18	12	There are 6 million animal species on Earth	0.0	Yes	LEFT	472.074899999825	LEFT	457.95079999970767	RIGHT	2383.446399999684	LEFT	1236.4361999998437	16.699999999999996	0.5	Probable_Lie	LEFT	LEFT	5	676.4344740153477	81	2021-01-18 14:46:36.001339
81	Self	S210118	0.8333333333333334	1	2	1	2	0.4	1000.000002	1150.0000023	2500.000005	1783.3333369	Major	Good_deeds	47	You have bought cocaine	C1_47	0.05	Easy	I1_58	60	Cernan was the second last man to walk on the Moon	0.888888888888889	No	RIGHT	392.78650000005655	RIGHT	630.3027999997539	RIGHT	2277.507500000411	LEFT	1124.797899999976	17.099999999999994	0.4	Probable_Truth	LEFT	LEFT	1	640.6902000003356	82	2021-01-18 14:47:00.073414
0	Self	S210118	0.5	1	2	1	2	0.7	1433.3333362	1000.000002	2066.6666708	2350.0000047	Minor	Wrong_doings	47	You have been sued	C2_26	1.0	Hard	I1_26	43	Red is a color	0.0	No	RIGHT	305.10969999977533	RIGHT	749.9087999999574	RIGHT	1087.7086000000418	LEFT	1058.0826999998862	17.799999999999994	0.7	Probable_Truth	RIGHT	RIGHT	6	1088.5176000001593	83	2021-01-18 14:47:23.784721
5	Self	S210118	0.5	1	2	2	1	0.6	1066.6666688	1216.6666691	1933.3333372	1650.0000033	Major	Good_deeds	14	You have taken months off to volunteer	C1_45	0.05	Easy	I1_32	32	It is 20th Century now	0.0	No	RIGHT	301.0965000003125	RIGHT	700.3589000000829	LEFT	982.739600000059	RIGHT	1327.1816999999828	18.399999999999995	0.6	Probable_Truth	LEFT	RIGHT	5	1381.2599000002592	84	2021-01-18 14:47:46.920670
140	Computer	S210118	0.8333333333333334	2	1	2	1	0.4	1433.3333362	1150.0000023	2350.0000047	1783.3333369	Minor	Wrong_doings	49	You have thrown your trash into the bin	C2_7	0.0	Hard	I2_33	8	Nanyang Technological University is in Australia	0.0	Yes	LEFT	851.2417000001733	RIGHT	433.107000000291	LEFT	1116.3187000001926	RIGHT	992.4456999997346	18.399999999999995	0.4	Probable_Truth	RIGHT	RIGHT	3	564.9737700371375	85	2021-01-18 14:48:10.161443
24	Self	S210118	0.6666666666666666	2	1	1	2	0.6	1000.000002	1216.6666691	2216.6666711000003	1650.0000033	Major	Wrong_doings	28	You have attended all lectures as a student	C1_28	0.2	Hard	I2_54	36	"Statue of Liberty is 151 feet tall"	0.944444444444444	No	RIGHT	1111.525100000108	LEFT	551.9936000000598	RIGHT	760.3959999996732	RIGHT	1358.3987000001798	17.799999999999994	0.6	Probable_Lie	RIGHT	RIGHT	2	716.7650999999751	86	2021-01-18 14:48:33.321939
104	Computer	S210118	0.5	2	1	1	2	0.1	1066.6666688	1000.000002	2350.0000047	1500.000003	Minor	Good_deeds	44	You have bribed a police officer	C2_40	1.0	Easy	I2_43	48	There are 6000 spoken languages in the World	0.0	No	LEFT	1008.0710000002	RIGHT	832.0963000001029	RIGHT	1663.9758999999683	LEFT	1005.6704999997236	17.799999999999994	0.1	Probable_Truth	LEFT	RIGHT	4	680.4862152867324	87	2021-01-18 14:48:57.000746
1	Self	S210118	0.5	1	2	1	2	0.1	1000.000002	1283.3333359	1650.0000033	1933.3333372	Major	Good_deeds	46	You have given way to the handicapped	C1_5	0.0	Hard	I2_21	18	Marijuana is legal in Singapore	0.0	No	RIGHT	304.95739999969373	RIGHT	894.714600000043	LEFT	919.434600000386	RIGHT	1003.4006999999292	17.899999999999995	0.1	Probable_Truth	LEFT	RIGHT	5	1613.43799999986	88	2021-01-18 14:49:20.177966
9	Self	S210118	0.5	2	1	1	2	0.6	1350.0000027	1216.6666691	2500.000005	2066.6666708	Major	Wrong_doings	12	You have offered a listening ear to a friend	C2_27	0.0	Hard	I1_14	26	The hardest bone in human body is the jawbone	0.0555555555555556	Yes	RIGHT	661.313699999937	RIGHT	279.6399999997448	RIGHT	4342.313999999988	RIGHT	1325.8160999998836	18.5	0.6	Probable_Truth	RIGHT	RIGHT	4	752.2592999998778	89	2021-01-18 14:49:47.248867
57	Self	S210118	0.5	2	1	1	2	0.5	1216.6666691	1066.6666688	1933.3333372	2066.6666708	Major	Good_deeds	25	You have sorted your trash into recycling bin	C2_52	0.85	Easy	I2_22	38	Milwaukee Art Museum is located in California	0.0	No	RIGHT	932.6662999997096	RIGHT	296.3641999999709	RIGHT	2376.0637000000315	RIGHT	3982.364700000289	19.0	0.5	Probable_Truth	RIGHT	LEFT	2	905.6541999998444	90	2021-01-18 14:50:14.600485
80	Self	S210118	0.8333333333333334	1	2	1	2	0.2	1500.000003	1000.000002	2350.0000047	1650.0000033	Minor	Wrong_doings	8	You have made someone cry	C2_10	0.95	Hard	I2_55	58	There are 7 days in a week	0.0	Yes	RIGHT	448.96609999977954	RIGHT	498.7789000001612	RIGHT	944.1186000003654	RIGHT	2096.005200000036	19.2	0.2	Probable_Truth	RIGHT	RIGHT	4	436.4759000000049	91	2021-01-18 14:50:38.096327
82	Self	S210118	0.8333333333333334	1	2	1	2	0.5	1283.3333359	1066.6666688	2216.6666711000003	1500.000003	Minor	Good_deeds	57	You have sign up to sponsor a needy child	C1_16	0.2	Easy	I2_60	49	The Franco-Prussian War occurred in the 19th century	0.0555555555555556	No	RIGHT	342.5127999998949	RIGHT	528.7708000000748	RIGHT	2550.911499999984	RIGHT	3398.307500000101	19.7	0.5	Probable_Truth	RIGHT	RIGHT	3	716.397600000164	92	2021-01-18 14:51:04.272243
3	Self	S210118	0.5	1	2	1	2	0.8	1500.000003	1433.3333362	2216.6666711000003	1500.000003	Major	Wrong_doings	45	You have used a fake name online	C2_47	0.95	Easy	I1_12	34	Some owl species hunt fish	0.666666666666667	Yes	RIGHT	608.5532000001876	LEFT	1311.136499999975	RIGHT	1271.2670999999318	LEFT	2018.9242000001288	18.899999999999995	0.8	Probable_Lie	RIGHT	RIGHT	3	1824.9987000003784	93	2021-01-18 14:51:30.537402
136	Computer	S210118	0.8333333333333334	2	1	1	2	0.8	1216.6666691	1283.3333359	2216.6666711000003	1500.000003	Major	Good_deeds	53	You have queued to enter the MRT train	C1_30	0.05	Hard	I1_57	33	Arabi is the oldest surviving breed of horse	0.777777777777778	Yes	LEFT	996.5679000001728	LEFT	1200.3843000002234	RIGHT	888.0718000000343	RIGHT	940.9221000000798	18.899999999999995	0.8	Probable_Lie	LEFT	RIGHT	1	884.5209081788877	94	2021-01-18 14:51:54.232843
83	Self	S210118	0.8333333333333334	1	2	1	2	0.7	1066.6666688	1350.0000027	1933.3333372	1933.3333372	Major	Good_deeds	17	You have helped with household chores	C1_31	0.55	Easy	I1_28	55	Today is Sunday	0.0	Yes	RIGHT	864.8589999997967	LEFT	1059.36470000006	LEFT	1136.884900000041	RIGHT	859.5795999999609	18.2	0.7	Probable_Lie	RIGHT	RIGHT	1	600.4078999999365	95	2021-01-18 14:52:17.616987
20	Self	S210118	0.6666666666666666	1	2	2	1	0.7	1216.6666691	1350.0000027	2350.0000047	1500.000003	Minor	Good_deeds	6	You have rescued others from a catastrophe	C2_28	0.0	Hard	I2_3	6	Mozambique is the world's poorest country	0.722222222222222	Yes	RIGHT	880.2169000000504	LEFT	1043.9834999997402	RIGHT	1316.6580000001886	LEFT	1079.8052000000098	17.499999999999996	0.7	Probable_Lie	LEFT	LEFT	5	2192.8388000001178	96	2021-01-18 14:53:14.112813
75	Self	S210118	0.6666666666666666	2	1	1	2	0.3	1150.0000023	1066.6666688	1500.000003	1500.000003	Minor	Wrong_doings	11	You have kept your promises	C1_11	1.0	Hard	I1_10	35	Cheese is an Asian staple	0.111111111111111	No	RIGHT	506.74090000029537	RIGHT	272.2850999998627	LEFT	1655.6775999997626	RIGHT	997.7728999997452	17.799999999999997	0.3	Probable_Lie	LEFT	LEFT	3	659.6383000000969	97	2021-01-18 14:53:36.001857
112	Computer	S210118	0.6666666666666666	1	2	1	2	0.8	1216.6666691	1500.000003	1933.3333372	2066.6666708	Minor	Wrong_doings	38	You have failed to keep promises	C1_43	0.0	Easy	I1_40	3	Singapore is in Africa	0.833333333333333	Yes	LEFT	440.5485000002045	LEFT	658.9360000002671	LEFT	999.6111000000384	LEFT	1630.2504000000226	17.799999999999997	0.8	Probable_Lie	LEFT	RIGHT	2	839.6547040749249	98	2021-01-18 14:53:59.847214
25	Self	S210118	0.6666666666666666	2	1	1	2	0.5	1500.000003	1283.3333359	2500.000005	1933.3333372	Minor	Wrong_doings	42	You have bought cigarettes for a minor	C2_59	0.2	Easy	I1_36	54	It is snowing outside now	0.0555555555555556	No	RIGHT	547.8941999999734	RIGHT	271.94290000034016	LEFT	2055.620600000111	LEFT	1679.3422999999166	18.3	0.5	Probable_Truth	RIGHT	RIGHT	5	554.0579000003163	99	2021-01-18 14:54:24.744574
26	Self	S210118	0.6666666666666666	2	1	1	2	0.1	1433.3333362	1150.0000023	1783.3333369	2500.000005	Minor	Good_deeds	2	You have violated a traffic law	C1_42	0.05	Hard	I1_24	24	The first Grammy awards was held in 1959	0.0	Yes	RIGHT	504.3424999998933	RIGHT	287.9848999996284	RIGHT	830.9673999997358	LEFT	822.8248000000349	18.4	0.1	Probable_Truth	RIGHT	RIGHT	4	607.6912999997148	100	2021-01-18 14:54:47.240075
50	Self	S210118	0.5	1	2	1	2	0.3	1066.6666688	1500.000003	1783.3333369	2216.6666711000003	Minor	Good_deeds	50	You have let a homeless man into your house	C1_22	0.1	Easy	I2_46	17	Singapore ranked 8th in World's smallest countries	0.833333333333333	Yes	RIGHT	288.34480000023177	RIGHT	562.1384999999464	LEFT	3999.3500000000495	LEFT	1552.6867999997194	18.7	0.3	Probable_Truth	RIGHT	LEFT	1	823.82779999989	101	2021-01-18 14:55:13.608269
118	Computer	S210118	0.6666666666666666	1	2	2	1	0.4	1150.0000023	1066.6666688	2350.0000047	1500.000003	Major	Good_deeds	54	You have cursed at others	C1_3	0.85	Hard	I2_39	58	The Earth is round	0.0	Yes	LEFT	287.97420000000784	LEFT	367.723500000011	RIGHT	728.3535000001393	RIGHT	777.5001999998494	18.7	0.4	Probable_Lie	LEFT	RIGHT	2	720.3302814547388	102	2021-01-18 14:55:35.120354
36	Self	S210118	0.8333333333333334	1	2	2	1	0.5	1216.6666691	1433.3333362	1783.3333369	1500.000003	Major	Good_deeds	57	You have held the door open for a stranger	C1_4	0.95	Easy	I2_36	45	Singapore is a poor country	0.722222222222222	Yes	RIGHT	327.4282000002131	RIGHT	827.2124000000076	LEFT	1061.8619000001672	RIGHT	888.093900000058	19.2	0.5	Probable_Truth	LEFT	LEFT	1	701.9573999996283	103	2021-01-18 14:55:57.432134
102	Computer	S210118	0.5	1	2	2	1	0.2	1066.6666688	1433.3333362	1783.3333369	2216.6666711000003	Minor	Wrong_doings	42	You have done something against your values	C2_9	0.0	Hard	I2_11	26	Hot chocolate was created by the Mayan culture	0.944444444444444	Yes	LEFT	319.7602999998708	RIGHT	788.3460000002742	RIGHT	1048.5791999999492	LEFT	1590.054599999803	19.2	0.2	Probable_Truth	RIGHT	LEFT	2	760.9838294513077	104	2021-01-18 14:56:21.016448
130	Computer	S210118	0.8333333333333334	1	2	1	2	0.3	1283.3333359	1283.3333359	2500.000005	2500.000005	Minor	Wrong_doings	36	You have started a movement to support a cause	C2_18	0.0	Hard	I1_50	31	Africa is the continent with the least rainfall	0.0	Yes	LEFT	807.8755000001365	LEFT	1161.2370000002556	RIGHT	1838.8526999997337	LEFT	2211.9011999998293	19.2	0.3	Probable_Lie	RIGHT	RIGHT	1	868.922569881154	105	2021-01-18 14:56:48.040278
30	Self	S210118	0.6666666666666666	2	1	2	1	0.4	1066.6666688	1433.3333362	1500.000003	2066.6666708	Minor	Good_deeds	13	You have returned your trays in food courts	C2_13	0.75	Hard	I1_54	45	China is a part of Asia	0.777777777777778	Yes	RIGHT	793.4649999997418	RIGHT	497.06560000004174	RIGHT	2088.023400000111	RIGHT	2567.8978999999345	19.6	0.4	Probable_Truth	RIGHT	RIGHT	6	627.1543999996538	106	2021-01-18 14:57:13.256068
34	Self	S210118	0.8333333333333334	1	2	1	2	0.2	1000.000002	1066.6666688	2216.6666711000003	2350.0000047	Minor	Wrong_doings	36	You have started a movement to support a cause	C2_18	0.0	Hard	I1_50	31	Africa is the continent with the least rainfall	0.0	Yes	RIGHT	479.7665999999481	LEFT	744.9759999999515	RIGHT	719.5891999999731	LEFT	1491.545400000177	19.4	0.2	Probable_Lie	LEFT	LEFT	6	675.6696000002194	107	2021-01-18 14:57:36.576826
108	Computer	S210118	0.5	2	1	2	1	0.5	1216.6666691	1283.3333359	2500.000005	1650.0000033	Minor	Wrong_doings	27	You have taken responsibility for your actions	C2_23	0.8	Hard	I1_53	30	Airbags in cars are filled with sodium azide	0.0	Yes	LEFT	1335.6006000003615	LEFT	656.1296999998376	LEFT	3399.8993000000155	RIGHT	391.9922000000042	19.4	0.5	Probable_Lie	RIGHT	LEFT	5	786.6152606164646	108	2021-01-18 14:58:02.360029
43	Self	S210118	0.8333333333333334	2	1	1	2	0.6	1150.0000023	1150.0000023	2350.0000047	1933.3333372	Minor	Wrong_doings	7	You have pretended to be busy to avoid a social situation	C2_24	0.0	Easy	I2_5	37	Fishes can swim in water	0.0	Yes	RIGHT	1091.7640999996363	RIGHT	473.19800000013856	RIGHT	1105.2491999998892	RIGHT	3891.901299999972	20.0	0.6	Probable_Truth	RIGHT	RIGHT	3	827.0323000001554	109	2021-01-18 14:58:28.904941
133	Computer	S210118	0.8333333333333334	1	2	2	1	0.2	1216.6666691	1500.000003	2216.6666711000003	1783.3333369	Major	Wrong_doings	20	You have a non-judgmental attitude towards everyone	C1_57	0.0	Hard	I2_2	17	Christmas Day is in March	0.833333333333333	Yes	LEFT	552.1201999999903	LEFT	944.2458999997144	LEFT	1243.4497999997802	LEFT	1957.9432000000447	20.0	0.2	Probable_Lie	LEFT	RIGHT	1	922.0863046837388	110	2021-01-18 14:58:53.808402
93	Self	S210118	0.8333333333333334	2	1	2	1	0.1	1000.000002	1283.3333359	1500.000003	1783.3333369	Major	Wrong_doings	45	You have helped a friend in need	C2_3	0.05	Easy	I1_52	35	December is the last month of the year	0.0555555555555556	No	RIGHT	1036.786900000152	LEFT	361.2437000001592	RIGHT	1129.3381000000409	RIGHT	775.1548999999613	19.9	0.1	Probable_Lie	RIGHT	RIGHT	1	444.6429999998145	111	2021-01-18 14:59:15.696485
61	Self	S210118	0.5	2	1	2	1	0.8	1500.000003	1216.6666691	2216.6666711000003	2216.6666711000003	Minor	Good_deeds	11	You have engaged in underage smoking	C2_25	0.05	Hard	I1_5	53	It sometimes snows in Singapore	0.888888888888889	Yes	RIGHT	649.0146000001005	RIGHT	631.6736999997374	LEFT	1296.5517999996337	LEFT	1040.4813000000104	20.7	0.8	Probable_Truth	LEFT	RIGHT	5	835.1197000001775	112	2021-01-18 14:59:39.871691
31	Self	S210118	0.6666666666666666	2	1	2	1	0.2	1350.0000027	1000.000002	1933.3333372	1783.3333369	Major	Wrong_doings	59	You have taken part in burglary	C2_2	1.0	Easy	I2_45	3	Feijoa is a type of grape	0.0	Yes	RIGHT	1253.0424999999923	LEFT	697.6568000000043	RIGHT	1265.182200000254	LEFT	1175.8608999998614	20.5	0.2	Probable_Lie	RIGHT	RIGHT	1	779.4143999999505	113	2021-01-18 15:00:03.679700
106	Computer	S210118	0.5	2	1	1	2	0.6	1433.3333362	1150.0000023	1500.000003	1783.3333369	Minor	Wrong_doings	27	You have participated in a scamming business	C1_12	0.0	Hard	I1_48	4	R. Amundsen discovered the South Pole	0.611111111111111	Yes	LEFT	1137.4439999999595	LEFT	856.0557999999219	RIGHT	1224.3846999999732	LEFT	1282.0487999997567	20.5	0.6	Probable_Truth	RIGHT	LEFT	2	575.4863692609548	114	2021-01-18 15:00:27.184401
107	Computer	S210118	0.5	2	1	1	2	0.2	1150.0000023	1433.3333362	2066.6666708	1933.3333372	Major	Good_deeds	51	You have told someone's secret to others	C1_27	0.95	Easy	I1_21	43	Carnivore refers to meat-eater	0.0	No	LEFT	861.4566000001105	RIGHT	791.5430000002743	RIGHT	1144.342699999925	RIGHT	2596.589700000095	20.5	0.2	Probable_Truth	RIGHT	RIGHT	6	931.8576734727465	115	2021-01-18 15:00:52.663708
65	Self	S210118	0.6666666666666666	1	2	1	2	0.2	1066.6666688	1216.6666691	2216.6666711000003	1783.3333369	Minor	Wrong_doings	19	You have switched off appliances when not in use	C2_16	0.5	Easy	I2_38	50	It is night time now	0.666666666666667	Yes	RIGHT	271.1116000000402	RIGHT	549.5060000002923	LEFT	991.1112999998296	RIGHT	1657.8239999998914	20.7	0.2	Probable_Truth	LEFT	LEFT	1	621.1697999997341	116	2021-01-18 15:01:15.616066
69	Self	S210118	0.6666666666666666	1	2	2	1	0.1	1000.000002	1500.000003	2350.0000047	1500.000003	Major	Good_deeds	16	You have shown your appreciation to your teachers	C2_56	0.1	Easy	I1_41	41	A triangle has three sides	0.0	No	RIGHT	344.9515000002066	LEFT	786.3558999997622	RIGHT	1415.238699999918	RIGHT	909.7974999999678	20.6	0.1	Probable_Lie	LEFT	LEFT	6	565.6826999997975	117	2021-01-18 15:01:38.560112
96	Computer	S210118	0.5	1	2	1	2	0.8	1433.3333362	1500.000003	2066.6666708	1933.3333372	Minor	Wrong_doings	47	You have been sued	C2_26	1.0	Hard	I1_26	43	Red is a color	0.0	No	LEFT	1000.9750000003804	RIGHT	714.5237999998244	RIGHT	911.9934999998804	LEFT	773.9968999999292	20.6	0.8	Probable_Lie	LEFT	RIGHT	3	665.6537353906191	118	2021-01-18 15:02:02.128441
14	Self	S210118	0.5	2	1	2	1	0.5	1433.3333362	1350.0000027	2216.6666711000003	2500.000005	Minor	Good_deeds	58	You have risked your life to save another person's life	C1_51	0.0	Hard	I2_4	21	Last day of the year is 30th December	1.0	Yes	RIGHT	847.8722999998354	RIGHT	359.9183000001176	LEFT	2663.843299999826	LEFT	2238.5133000002497	21.1	0.5	Probable_Truth	LEFT	RIGHT	6	855.7000999999218	119	2021-01-18 15:02:29.167082
7	Self	S210118	0.5	1	2	2	1	0.5	1150.0000023	1066.6666688	1500.000003	2500.000005	Minor	Wrong_doings	9	You have followed instructions	C1_14	0.7	Easy	I1_43	21	Today is a weekday	0.833333333333333	Yes	RIGHT	2743.9509999999245	RIGHT	749.6915000001536	RIGHT	1157.3002000000088	RIGHT	863.4494000002633	21.6	0.5	Probable_Lie	RIGHT	RIGHT	2	625.0906999998733	120	2021-01-18 15:02:54.095409
139	Computer	S210118	0.8333333333333334	2	1	1	2	0.7	1500.000003	1350.0000027	1500.000003	1933.3333372	Minor	Wrong_doings	7	You have pretended to be busy to avoid a social situation	C2_24	0.0	Easy	I2_5	37	Fishes can swim in water	0.0	Yes	LEFT	1727.924499999972	LEFT	1599.597400000221	RIGHT	864.5575999998982	RIGHT	1396.6705000002548	21.6	0.7	Probable_Lie	RIGHT	LEFT	6	539.9507586455836	121	2021-01-18 15:03:19.071105
90	Self	S210118	0.8333333333333334	2	1	1	2	0.3	1433.3333362	1500.000003	2216.6666711000003	1933.3333372	Major	Wrong_doings	53	You have lost everything just to help others	C1_37	0.8	Easy	I1_47	13	February has 30 days	0.0	No	RIGHT	569.9415999997655	RIGHT	551.5540000001238	RIGHT	4232.406099999935	LEFT	1664.6559999999226	21.9	0.3	Probable_Lie	LEFT	LEFT	5	1987.0712999995703	122	2021-01-18 15:03:47.736427
28	Self	S210118	0.6666666666666666	2	1	2	1	0.8	1216.6666691	1350.0000027	2066.6666708	2216.6666711000003	Major	Wrong_doings	24	You have gossiped about your best friend	C2_43	1.0	Easy	I2_1	1	Penguin can fly with their wings	0.888888888888889	No	RIGHT	622.8202000002057	RIGHT	560.3919000000133	LEFT	1424.4229000000814	LEFT	2183.373100000153	22.7	0.8	Probable_Truth	RIGHT	RIGHT	5	623.2241000002432	123	2021-01-18 15:04:12.576004
127	Computer	S210118	0.6666666666666666	2	1	2	1	0.4	1283.3333359	1150.0000023	2066.6666708	1650.0000033	Major	Wrong_doings	59	You have taken part in burglary	C2_2	1.0	Easy	I2_45	3	Feijoa is a type of grape	0.0	Yes	LEFT	1085.4549000000588	RIGHT	616.7390000000523	RIGHT	863.4385000000293	LEFT	791.6717999996763	22.7	0.4	Probable_Truth	LEFT	LEFT	2	737.3176982315244	124	2021-01-18 15:04:35.383373
113	Computer	S210118	0.6666666666666666	1	2	1	2	0.1	1350.0000027	1216.6666691	1783.3333369	2350.0000047	Major	Good_deeds	40	You have intentionally let others cut in line	C2_6	0.95	Hard	I1_4	33	Animals are living things	0.944444444444444	No	RIGHT	334.05720000018846	RIGHT	552.2937000000638	RIGHT	1382.9005999996298	RIGHT	1611.8726999998216	22.8	0.1	Probable_Lie	LEFT	LEFT	3	792.1890569204985	125	2021-01-18 15:04:59.336748
64	Self	S210118	0.6666666666666666	1	2	1	2	0.3	1350.0000027	1283.3333359	2066.6666708	1650.0000033	Major	Wrong_doings	50	You have cursed at your loved ones	C1_19	1.0	Hard	I1_6	38	Slavery was abolished in Cuba in 1886	0.944444444444444	Yes	RIGHT	288.874300000316	RIGHT	763.8363999999456	LEFT	4606.793699999798	LEFT	1592.8883999999923	23.1	0.3	Probable_Truth	RIGHT	RIGHT	5	602.9513999997107	126	2021-01-18 15:05:26.119160
121	Computer	S210118	0.6666666666666666	2	1	1	2	0.1	1150.0000023	1500.000003	2216.6666711000003	1933.3333372	Minor	Wrong_doings	42	You have bought cigarettes for a minor	C2_59	0.2	Easy	I1_36	54	It is snowing outside now	0.0555555555555556	No	LEFT	470.2741999999489	LEFT	254.9939999998969	LEFT	838.9007000000674	LEFT	885.7347000002846	23.1	0.1	Probable_Lie	RIGHT	RIGHT	1	754.648788176424	127	2021-01-18 15:05:48.695712
119	Computer	S210118	0.6666666666666666	1	2	2	1	0.5	1066.6666688	1283.3333359	2216.6666711000003	2216.6666711000003	Minor	Wrong_doings	20	You have complimented others for good work	C1_20	0.85	Easy	I2_6	39	Cleopatra was born in Greece	0.0	No	LEFT	400.972300000376	RIGHT	1030.7614999996986	RIGHT	1014.9344000001292	RIGHT	1054.9912999999833	23.1	0.5	Probable_Truth	RIGHT	RIGHT	4	745.0526337850705	128	2021-01-18 15:06:12.303886
72	Self	S210118	0.6666666666666666	2	1	1	2	0.7	1433.3333362	1150.0000023	1783.3333369	2066.6666708	Minor	Wrong_doings	15	You have watched a pirated movie	C1_15	0.85	Easy	I2_27	24	A caterpillar has more muscle than a human	0.0	No	RIGHT	1227.031899999929	LEFT	288.5620000001836	RIGHT	1430.477300000348	RIGHT	1102.646100000129	22.4	0.7	Probable_Lie	RIGHT	RIGHT	2	633.4837999997944	129	2021-01-18 15:06:35.993343
138	Computer	S210118	0.8333333333333334	2	1	1	2	0.2	1350.0000027	1216.6666691	1650.0000033	2350.0000047	Major	Good_deeds	30	You have stolen something	C1_23	1.0	Easy	I1_15	15	There are 30 hours in a day	0.944444444444444	No	LEFT	486.35779999995066	LEFT	304.1368999997758	LEFT	1206.028999999944	LEFT	866.8276999997033	22.4	0.2	Probable_Lie	RIGHT	LEFT	3	865.2511862621099	130	2021-01-18 15:06:58.863284
105	Computer	S210118	0.5	2	1	1	2	0.4	1350.0000027	1500.000003	1933.3333372	2216.6666711000003	Major	Wrong_doings	12	You have offered a listening ear to a friend	C2_27	0.0	Hard	I1_14	26	The hardest bone in human body is the jawbone	0.0555555555555556	Yes	LEFT	2420.8552999998574	LEFT	992.7749999997104	RIGHT	799.3208000002596	RIGHT	1081.4267000000657	22.4	0.4	Probable_Lie	RIGHT	LEFT	6	851.0683700151178	131	2021-01-18 15:07:24.575435
63	Self	S210118	0.5	2	1	2	1	0.7	1000.000002	1150.0000023	2350.0000047	1933.3333372	Major	Wrong_doings	35	You have sheltered others from disasters	C1_9	0.85	Easy	I1_25	22	The Eiffel Tower is in Paris	0.764705882352941	No	RIGHT	771.0693999997602	LEFT	224.5562000002792	RIGHT	1309.6746000001076	LEFT	3000.1468999998906	21.700000000000003	0.7	Probable_Lie	LEFT	RIGHT	3	1041.1420000000362	132	2021-01-18 15:07:49.927211
126	Computer	S210118	0.6666666666666666	2	1	2	1	0.8	1433.3333362	1433.3333362	1783.3333369	2216.6666711000003	Minor	Good_deeds	13	You have returned your trays in food courts	C2_13	0.75	Hard	I1_54	45	China is a part of Asia	0.777777777777778	Yes	LEFT	652.094500000203	LEFT	336.36909999995623	RIGHT	1248.9945999996053	RIGHT	2047.1959000001332	21.700000000000003	0.8	Probable_Lie	LEFT	RIGHT	2	965.396475505746	133	2021-01-18 15:08:14.615521
142	Computer	S210118	0.8333333333333334	2	1	2	1	0.3	1066.6666688	1066.6666688	2500.000005	1650.0000033	Minor	Good_deeds	60	You have engaged in drink-driving	C2_31	0.65	Hard	I2_59	5	The hyoid bone is the only jointless bone	0.888888888888889	No	LEFT	426.339299999654	LEFT	336.076999999932	RIGHT	1605.2740000000083	LEFT	1559.768300000087	21.700000000000003	0.3	Probable_Lie	RIGHT	RIGHT	1	590.1686990394726	134	2021-01-18 15:08:37.983656
12	Self	S210118	0.5	2	1	2	1	0.2	1216.6666691	1433.3333362	2066.6666708	1933.3333372	Minor	Wrong_doings	27	You have taken responsibility for your actions	C2_23	0.8	Hard	I1_53	30	Airbags in cars are filled with sodium azide	0.0	Yes	RIGHT	376.0674000000108	RIGHT	279.2887000000519	RIGHT	1405.2811999999903	RIGHT	1159.518399999797	21.9	0.2	Probable_Truth	LEFT	LEFT	2	1356.984100000318	135	2021-01-18 15:09:01.784553
134	Computer	S210118	0.8333333333333334	1	2	2	1	0.7	1350.0000027	1433.3333362	2066.6666708	1933.3333372	Minor	Wrong_doings	37	You have downloaded pirated movies	C1_36	0.25	Easy	I1_17	56	Teddy Roosevelt was the youngest US President	0.0	No	LEFT	271.9474000000446	LEFT	1332.609600000069	LEFT	1779.7059999998055	RIGHT	1159.3003999996654	21.9	0.7	Probable_Lie	LEFT	RIGHT	1	825.6444365971231	136	2021-01-18 15:09:26.519894
42	Self	S210118	0.8333333333333334	2	1	1	2	0.8	1216.6666691	1066.6666688	1933.3333372	2066.6666708	Major	Good_deeds	30	You have stolen something	C1_23	1.0	Easy	I1_15	15	There are 30 hours in a day	0.944444444444444	No	RIGHT	634.3563000000358	RIGHT	248.60039999975925	LEFT	741.9929000002412	LEFT	941.533800000343	22.700000000000003	0.8	Probable_Truth	RIGHT	RIGHT	3	897.5851000000148	137	2021-01-18 15:09:48.847770
110	Computer	S210118	0.5	2	1	2	1	0.7	1500.000003	1216.6666691	2216.6666711000003	2350.0000047	Minor	Good_deeds	58	You have risked your life to save another person's life	C1_51	0.0	Hard	I2_4	21	Last day of the year is 30th December	1.0	Yes	LEFT	994.2893000002186	RIGHT	696.4606999999887	LEFT	2068.453899999895	LEFT	1055.3043999998408	22.700000000000003	0.7	Probable_Truth	RIGHT	LEFT	2	696.6460023597537	138	2021-01-18 15:10:14.214145
37	Self	S210118	0.8333333333333334	1	2	2	1	0.8	1150.0000023	1150.0000023	2350.0000047	1650.0000033	Major	Wrong_doings	20	You have a non-judgmental attitude towards everyone	C1_57	0.0	Hard	I2_2	17	Christmas Day is in March	0.833333333333333	Yes	RIGHT	336.5931999996974	RIGHT	578.7974999998369	LEFT	1192.434499999763	LEFT	1391.340300000138	23.500000000000004	0.8	Probable_Truth	RIGHT	RIGHT	5	642.8781999998137	139	2021-01-18 15:10:37.230438
79	Self	S210118	0.6666666666666666	2	1	2	1	0.5	1283.3333359	1283.3333359	1650.0000033	1650.0000033	Major	Good_deeds	33	You have lied to your parents	C1_60	0.0	Hard	I2_24	19	The Earth turns the closest to the sun in May	0.944444444444444	Yes	RIGHT	479.1473000000224	RIGHT	529.1079999997237	LEFT	1864.3243999999868	LEFT	1735.906200000045	24.000000000000004	0.5	Probable_Truth	RIGHT	RIGHT	5	675.8966000002147	140	2021-01-18 15:11:00.951670
66	Self	S210118	0.6666666666666666	1	2	1	2	0.8	1150.0000023	1350.0000027	1783.3333369	1933.3333372	Minor	Good_deeds	30	You have fabricated facts about yourself	C2_30	0.0	Easy	I2_50	25	Singapore has four seasons	0.777777777777778	Yes	RIGHT	1096.5839000000417	LEFT	937.6938000000335	LEFT	1055.9667000006812	LEFT	1434.0556999995897	23.200000000000003	0.8	Probable_Lie	LEFT	LEFT	6	697.5585000000137	141	2021-01-18 15:11:24.966352
88	Self	S210118	0.8333333333333334	2	1	1	2	0.8	1283.3333359	1216.6666691	2500.000005	2216.6666711000003	Minor	Good_deeds	29	You have deceived a loved one	C2_45	0.0	Hard	I2_13	12	Polish is 20th most spoken language in the World	0.888888888888889	Yes	RIGHT	476.830699999482	RIGHT	489.2669000000751	LEFT	2703.016999999818	LEFT	1366.4208000000144	24.000000000000004	0.8	Probable_Truth	LEFT	LEFT	1	581.81119999972	142	2021-01-18 15:11:50.375132
8	Self	S210118	0.5	2	1	1	2	0.7	1283.3333359	1000.000002	1500.000003	1650.0000033	Minor	Good_deeds	44	You have bribed a police officer	C2_40	1.0	Easy	I2_43	48	There are 6000 spoken languages in the World	0.0	No	RIGHT	1203.6579000005077	LEFT	352.2099000001617	RIGHT	1936.237499999152	LEFT	1501.5209999992294	23.300000000000004	0.7	Probable_Lie	LEFT	RIGHT	2	987.8344999997352	143	2021-01-18 15:12:14.367325
