index	Trial_Type	Participant_ID	Trial_Probability	Question_Position_Prediction_Correct	Question_Position_Prediction_Agent	Question_Position_Comparison_Self	Question_Position_Comparison_Irrelevant	Trial_Stake	Trial_Stake_Jitter	Trial_Type_Jitter	Trial_Result_Jitter	Balance_Update_Jitter	Question_Comparison_Condition	Question_Comparison_Type	Question_Comparison_Question	Question_Comparison_Label	Question_Comparison_Item	Question_Comparison_Proportion_Yes	Question_Factual_Condition	Question_Factual_Item	Question_Factual_Question	Question_Factual_Label	Question_Factual_Proportion_DontKnow	Question_Factual_Type	Answer_Prediction_Agent	Answer_Prediction_Agent_RT	Answer_Prediction_Correct	Answer_Prediction_Correct_RT	Answer_Self	Answer_Self_RT	Answer_Irrelevant	Answer_Irrelevant_RT	Trial_Balance	Trial_Balance_Effect	Trial_Condition	Trial_ProbableSide	Prediction_Choice	Prediction_Result	Prediction_RT	Trial_Order	Trial_Datetime
11	Self	S200214	0.5	2	1	1	2	0.4	1066.6666688	1283.3333359	2066.6666708	1650.0000033	Minor	Wrong_doings	22	You have cursed at your loved ones	C1_30	0.0	Easy	I2_35	35	A dog has four legs	0.0	No	RIGHT	653.9688000000297	RIGHT	576.3419999999542	LEFT	1342.5933999999415	RIGHT	1000.0863999999864	10.4	0.4	Probable_Truth	LEFT	RIGHT	6	908.164700000043	0	2020-02-14 11:55:26.946608
22	Self	S200214	0.6666666666666666	1	2	2	1	0.4	1500.000003	1150.0000023	2066.6666708	1500.000003	Major	Good_deeds	28	You have lost everything just to help others	C1_48	0.0	Hard	I2_31	45	Some owl species hunt fish	0.888888888888889	Yes	RIGHT	759.5810999999912	LEFT	758.8068000000021	RIGHT	3015.2136000000382	LEFT	2534.650700000043	10.0	0.4	Probable_Lie	LEFT	LEFT	5	514.6717000000081	1	2020-02-14 11:55:53.322938
84	Self	S200214	0.8333333333333334	1	2	2	1	0.4	1350.0000027	1350.0000027	1783.3333369	2066.6666708	Minor	Wrong_doings	39	You have been convicted in court	C2_8	1.0	Hard	I1_5	13	Summer is hotter than winter	0.0	Yes	RIGHT	441.40119999997296	RIGHT	610.0732999999536	LEFT	904.1539999999486	RIGHT	1999.4296999999503	10.4	0.4	Probable_Truth	LEFT	LEFT	1	925.655699999993	2	2020-02-14 11:56:17.323141
99	Computer	S200214	0.5	1	2	1	2	0.6	1350.0000027	1000.000002	1650.0000033	1783.3333369	Major	Wrong_doings	40	You have donated a pay cheque to charity	C2_18	0.95	Easy	I1_32	49	Singapore ranked 8th in World's smallest countries	0.111111111111111	No	LEFT	599.906400000009	RIGHT	786.7540999999392	LEFT	1666.226800000004	RIGHT	2919.02140000002	10.4	0.6	Probable_Truth	RIGHT	RIGHT	5	693.137578310389	3	2020-02-14 11:56:42.346354
143	Computer	S200214	0.8333333333333334	2	1	2	1	0.4	1066.6666688	1283.3333359	1500.000003	2216.6666711000003	Major	Wrong_doings	42	You have stopped using plastics completely	C1_49	0.5	Easy	I2_21	28	Kangaroos live in Africa	0.0	No	LEFT	908.0066000000216	LEFT	872.4627000000282	LEFT	1535.1084000000128	LEFT	1192.461900000012	10.4	0.4	Probable_Lie	LEFT	RIGHT	1	612.2008814231721	4	2020-02-14 11:57:06.107326
94	Self	S200214	0.8333333333333334	2	1	2	1	0.3	1500.000003	1066.6666688	1783.3333369	1783.3333369	Minor	Wrong_doings	59	You have cursed at others	C2_38	0.55	Hard	I1_26	38	Mexico's National Day is September 16	0.666666666666667	Yes	RIGHT	810.0271999999222	RIGHT	350.5635000000211	RIGHT	1599.3539999999484	LEFT	2962.30700000001	10.7	0.3	Probable_Truth	RIGHT	RIGHT	3	722.263699999985	5	2020-02-14 11:57:31.258536
53	Self	S200214	0.5	1	2	2	1	0.6	1283.3333359	1283.3333359	1500.000003	1933.3333372	Minor	Wrong_doings	57	You have done something against your values	C1_5	1.0	Easy	I1_54	14	"Statue of Liberty is 151 feet tall"	0.0	Yes	RIGHT	560.0862999999663	RIGHT	614.8245000000543	LEFT	1983.4635000000844	LEFT	2075.378600000022	11.3	0.6	Probable_Truth	LEFT	LEFT	1	1218.563300000028	6	2020-02-14 11:57:56.282707
79	Self	S200214	0.6666666666666666	2	1	2	1	0.2	1066.6666688	1216.6666691	2350.0000047	1500.000003	Major	Good_deeds	48	You have used a fake name online	C1_23	0.8	Easy	I2_55	55	Acoustic Kitty refers to cat with implants	1.0	Yes	RIGHT	378.2446000000164	RIGHT	400.2760999999282	RIGHT	1223.4376000000111	LEFT	2180.7124000000613	11.5	0.2	Probable_Lie	LEFT	LEFT	4	819.8482999999896	7	2020-02-14 11:58:19.995014
30	Self	S200214	0.6666666666666666	2	1	2	1	0.1	1000.000002	1216.6666691	2066.6666708	2066.6666708	Major	Good_deeds	52	You have assisted in a crime	C1_37	0.05	Hard	I2_41	11	Nanyang Technological University is in Australia	0.0	Yes	RIGHT	615.6392000000324	RIGHT	336.32680000005166	LEFT	1223.492800000031	LEFT	1779.8117999999477	11.6	0.1	Probable_Truth	LEFT	LEFT	1	703.6875000000009	8	2020-02-14 11:58:43.579183
77	Self	S200214	0.6666666666666666	2	1	2	1	0.5	1216.6666691	1433.3333362	2500.000005	2216.6666711000003	Minor	Wrong_doings	34	You have said sorry when you were rude	C2_46	0.95	Hard	I2_56	26	Feijoa is a type of grape	0.0	Yes	RIGHT	628.9084000000003	LEFT	328.6491999999725	RIGHT	1711.575899999957	LEFT	1919.918199999984	11.1	0.5	Probable_Lie	RIGHT	RIGHT	2	535.2726999999504	9	2020-02-14 11:59:08.642838
40	Self	S200214	0.8333333333333334	2	1	1	2	0.1	1000.000002	1150.0000023	1500.000003	1783.3333369	Minor	Wrong_doings	49	You have deceived a loved one	C1_27	0.65	Hard	I1_1	50	South East Asia is currently free from polio	0.944444444444444	Yes	RIGHT	492.7796000000626	RIGHT	327.77360000000044	LEFT	2113.856300000066	LEFT	3591.1528999999973	11.2	0.1	Probable_Truth	RIGHT	RIGHT	6	466.2243000000217	10	2020-02-14 11:59:33.641842
72	Self	S200214	0.6666666666666666	2	1	1	2	0.1	1350.0000027	1066.6666688	2066.6666708	1650.0000033	Minor	Wrong_doings	29	You have engaged in drink-driving	C2_26	0.1	Easy	I1_19	56	The hardest bone in human body is the jawbone	0.0	No	RIGHT	349.2467000000943	RIGHT	264.3964999999753	LEFT	1176.329399999986	LEFT	4223.958100000004	11.3	0.1	Probable_Truth	LEFT	LEFT	2	486.297000000036	11	2020-02-14 11:59:58.849897
108	Computer	S200214	0.5	2	1	2	1	0.1	1216.6666691	1066.6666688	1933.3333372	1650.0000033	Major	Good_deeds	60	You have been restricting your electricity consumption	C2_47	0.7	Easy	I1_35	17	The Earth turns the closest to the sun in May	0.722222222222222	Yes	LEFT	892.606199999932	LEFT	599.5140999999649	LEFT	3062.921000000074	RIGHT	4470.000899999945	11.3	0.1	Probable_Truth	RIGHT	LEFT	1	998.3085239863568	12	2020-02-14 12:00:27.314422
24	Self	S200214	0.6666666666666666	2	1	1	2	0.2	1500.000003	1500.000003	1783.3333369	1500.000003	Minor	Wrong_doings	11	You have cheated on a national exam	C1_45	0.05	Easy	I1_41	41	The Seine river is 50 feet above sea level	0.0	Yes	RIGHT	386.48860000000695	LEFT	311.3546000000724	LEFT	1125.2130999999963	LEFT	2622.721400000046	11.1	0.2	Probable_Lie	RIGHT	RIGHT	1	695.8769999999959	13	2020-02-14 12:00:51.313983
68	Self	S200214	0.6666666666666666	1	2	2	1	0.4	1500.000003	1350.0000027	2500.000005	1650.0000033	Minor	Good_deeds	13	You have organized a violent protest	C1_58	0.0	Easy	I2_48	3	Red is a color	0.833333333333333	No	RIGHT	455.5889000000661	LEFT	684.0310000000045	LEFT	1032.552199999941	RIGHT	903.884000000062	10.7	0.4	Probable_Lie	LEFT	LEFT	6	631.4796999999999	14	2020-02-14 12:01:14.594090
23	Self	S200214	0.6666666666666666	1	2	2	1	0.7	1000.000002	1216.6666691	2500.000005	1783.3333369	Major	Wrong_doings	48	You have said thank you when you have received help	C2_53	1.0	Hard	I2_52	31	Teddy Roosevelt was the youngest US President	0.833333333333333	No	RIGHT	391.614699999991	RIGHT	418.90410000007705	RIGHT	1238.9599000000544	LEFT	3267.620500000021	11.4	0.7	Probable_Truth	LEFT	LEFT	1	581.6720999999916	15	2020-02-14 12:01:39.569826
3	Self	S200214	0.5	1	2	1	2	0.2	1433.3333362	1150.0000023	1650.0000033	1500.000003	Major	Wrong_doings	40	You have donated a pay cheque to charity	C2_18	0.95	Easy	I1_32	49	Singapore ranked 8th in World's smallest countries	0.111111111111111	No	RIGHT	302.353900000071	RIGHT	366.0487000000785	LEFT	1189.741099999992	RIGHT	1079.5401999999967	11.599999999999998	0.2	Probable_Truth	LEFT	RIGHT	5	1220.850300000052	16	2020-02-14 12:02:02.035196
12	Self	S200214	0.5	2	1	2	1	0.5	1216.6666691	1350.0000027	1783.3333369	2350.0000047	Major	Good_deeds	60	You have been restricting your electricity consumption	C2_47	0.7	Easy	I1_35	17	The Earth turns the closest to the sun in May	0.722222222222222	Yes	RIGHT	521.016799999984	RIGHT	272.0711999999139	LEFT	1759.4525000000658	RIGHT	1603.7117999999282	12.099999999999998	0.5	Probable_Truth	LEFT	LEFT	2	902.9756999999564	17	2020-02-14 12:02:26.370830
91	Self	S200214	0.8333333333333334	2	1	1	2	0.7	1350.0000027	1000.000002	2066.6666708	1500.000003	Major	Wrong_doings	2	You have taken part in burglary	C2_2	0.0	Easy	I2_2	40	It sometimes snows in Singapore	0.0	No	RIGHT	381.1570999999958	RIGHT	424.8662999999624	LEFT	981.979000000024	LEFT	1079.652900000042	12.799999999999995	0.7	Probable_Lie	LEFT	LEFT	2	602.0521000000372	18	2020-02-14 12:02:48.329723
104	Computer	S200214	0.5	2	1	1	2	0.5	1066.6666688	1000.000002	2066.6666708	1933.3333372	Major	Wrong_doings	43	You have rescued others from a catastrophe	C1_60	0.05	Hard	I1_44	51	Lehman Brothers went bankrupt on 20th September	0.888888888888889	No	LEFT	523.1351999999561	RIGHT	358.4144000000151	LEFT	1773.1997000000774	RIGHT	1792.014399999971	12.799999999999995	0.5	Probable_Truth	LEFT	RIGHT	4	874.7832202564489	19	2020-02-14 12:03:12.282631
97	Computer	S200214	0.5	1	2	1	2	0.4	1000.000002	1350.0000027	2216.6666711000003	1650.0000033	Major	Good_deeds	18	You have engaged in underage smoking	C1_40	0.95	Hard	I1_31	59	There are 30 hours in a day	0.0	No	LEFT	376.64729999994506	LEFT	1071.707599999968	LEFT	3391.216199999917	LEFT	1055.3151999999957	12.799999999999995	0.4	Probable_Lie	LEFT	LEFT	6	781.880926365372	20	2020-02-14 12:03:37.746791
115	Computer	S200214	0.6666666666666666	1	2	1	2	0.2	1150.0000023	1066.6666688	2500.000005	2066.6666708	Major	Good_deeds	27	You have told someone's secret to others	C2_28	0.25	Easy	I1_21	12	Brazil is in South America	0.833333333333333	No	LEFT	313.0106999999498	LEFT	742.0148000001063	LEFT	3087.330400000156	RIGHT	1967.9222000002028	12.799999999999995	0.2	Probable_Lie	RIGHT	RIGHT	2	945.3470630838364	21	2020-02-14 12:04:04.154373
71	Self	S200214	0.6666666666666666	1	2	2	1	0.3	1066.6666688	1433.3333362	2350.0000047	2216.6666711000003	Major	Good_deeds	10	You have volunteered for a disaster-related humanitarian mission	C2_10	0.95	Hard	I1_3	48	Mozambique is the world's poorest country	0.0	No	RIGHT	305.50930000003973	LEFT	657.9773999999361	LEFT	2064.7029000001567	LEFT	2921.8435000000227	12.499999999999996	0.3	Probable_Lie	RIGHT	RIGHT	2	722.9251000001113	22	2020-02-14 12:04:30.465952
123	Computer	S200214	0.6666666666666666	2	1	1	2	0.8	1433.3333362	1150.0000023	2066.6666708	1783.3333369	Major	Good_deeds	7	You have sorted your trash into recycling bin	C2_60	0.55	Hard	I1_11	15	A square has 3 corners	0.944444444444444	No	LEFT	661.9404999999006	LEFT	680.9467999999015	RIGHT	2200.3274999999576	LEFT	1065.0510999998914	12.499999999999996	0.8	Probable_Lie	RIGHT	RIGHT	2	664.3676489285464	23	2020-02-14 12:04:54.745905
14	Self	S200214	0.5	2	1	2	1	0.7	1283.3333359	1000.000002	1650.0000033	2066.6666708	Minor	Good_deeds	37	You have held the door open for a stranger	C1_43	0.95	Hard	I2_51	39	North Korea is more developed than South Korea	0.777777777777778	No	RIGHT	902.8642000000672	LEFT	433.330099999921	RIGHT	1382.863099999895	LEFT	1614.709300000186	11.799999999999995	0.7	Probable_Lie	LEFT	RIGHT	2	862.9206000000522	24	2020-02-14 12:05:18.513824
114	Computer	S200214	0.6666666666666666	1	2	1	2	0.1	1433.3333362	1500.000003	1783.3333369	1500.000003	Minor	Good_deeds	53	You have bribed a police officer	C1_57	1.0	Hard	I1_60	29	The Eiffel Tower is in Paris	0.0555555555555556	No	LEFT	487.8862999999001	RIGHT	625.6883999999445	LEFT	894.2458000001352	RIGHT	1384.6534999997857	11.799999999999995	0.1	Probable_Truth	LEFT	LEFT	2	880.5649012524077	25	2020-02-14 12:05:41.577797
85	Self	S200214	0.8333333333333334	1	2	2	1	0.7	1066.6666688	1150.0000023	2500.000005	1650.0000033	Minor	Good_deeds	39	You have given directions to a lost tourist	C1_8	0.65	Hard	I1_4	5	There are 20 bones in the human skull	0.888888888888889	No	RIGHT	369.2737000001216	RIGHT	513.9443999999003	RIGHT	3341.691699999956	LEFT	1703.7148999997953	12.499999999999996	0.7	Probable_Truth	RIGHT	RIGHT	4	566.1592999999812	26	2020-02-14 12:06:07.019304
34	Self	S200214	0.8333333333333334	1	2	1	2	0.3	1500.000003	1216.6666691	2216.6666711000003	2350.0000047	Minor	Wrong_doings	6	You have switched off appliances when not in use	C2_14	0.85	Easy	I1_58	6	Statute of Liberty is in New York	0.0	No	RIGHT	335.5082000000493	RIGHT	509.9001999999473	RIGHT	2066.3610999999946	RIGHT	1391.328200000089	12.799999999999995	0.3	Probable_Truth	LEFT	LEFT	1	631.9582000000992	27	2020-02-14 12:06:31.818199
17	Self	S200214	0.6666666666666666	1	2	1	2	0.2	1216.6666691	1283.3333359	1783.3333369	2350.0000047	Minor	Wrong_doings	11	You have a non-judgmental attitude towards everyone	C2_27	0.85	Easy	I2_12	60	Last day of the year is 30th December	0.0	Yes	RIGHT	289.1188999999485	LEFT	403.0689999999595	RIGHT	4835.168199999998	LEFT	2000.237499999912	12.599999999999998	0.2	Probable_Lie	RIGHT	RIGHT	2	773.8013000000592	28	2020-02-14 12:06:59.321756
83	Self	S200214	0.8333333333333334	1	2	1	2	0.1	1000.000002	1066.6666688	1500.000003	2500.000005	Major	Wrong_doings	4	You have volunteered every week for many years	C2_43	0.0	Easy	I1_52	39	December is the last month of the year	0.0	No	RIGHT	241.49130000000696	RIGHT	421.8108999998549	LEFT	2805.8204999999816	RIGHT	1351.1490999999296	12.699999999999998	0.1	Probable_Truth	RIGHT	RIGHT	6	475.47450000001845	29	2020-02-14 12:07:23.258188
90	Self	S200214	0.8333333333333334	2	1	1	2	0.4	1150.0000023	1216.6666691	2500.000005	2500.000005	Major	Good_deeds	33	You have complimented others for good work	C1_59	1.0	Easy	I1_25	26	Animals are living things	0.0555555555555556	No	RIGHT	595.6423000000086	RIGHT	327.067199999874	RIGHT	1540.4602999999497	RIGHT	864.1414000001078	13.099999999999998	0.4	Probable_Truth	RIGHT	RIGHT	5	406.2220000000707	30	2020-02-14 12:07:46.938826
42	Self	S200214	0.8333333333333334	2	1	1	2	0.4	1216.6666691	1283.3333359	2350.0000047	1650.0000033	Major	Good_deeds	51	You have helped others to pick up their belongings	C2_42	0.0	Hard	I2_25	53	The human's inner ear is larger than a pencil eraser	0.0555555555555556	Yes	RIGHT	388.4347999999136	RIGHT	359.0123000001313	RIGHT	1366.9250000000377	LEFT	3478.54540000003	13.499999999999998	0.4	Probable_Truth	RIGHT	RIGHT	6	514.5732999999382	31	2020-02-14 12:08:12.121996
89	Self	S200214	0.8333333333333334	2	1	1	2	0.6	1216.6666691	1500.000003	1650.0000033	2350.0000047	Major	Wrong_doings	59	You have gossiped about your best friend	C2_59	0.85	Hard	I2_30	40	Airbags in cars are filled with sodium azide	0.666666666666667	No	RIGHT	511.8941000000632	RIGHT	272.07599999997	LEFT	1188.897499999939	LEFT	2823.923599999944	14.099999999999998	0.6	Probable_Truth	LEFT	LEFT	1	522.4963000000571	32	2020-02-14 12:08:36.730004
7	Self	S200214	0.5	1	2	2	1	0.1	1150.0000023	1216.6666691	2350.0000047	2350.0000047	Minor	Good_deeds	24	You have pretended to be busy to avoid a social situation	C1_9	0.7	Hard	I2_43	43	Today is a weekday	0.888888888888889	Yes	RIGHT	297.12130000007164	LEFT	554.5580999998947	RIGHT	2359.282599999915	RIGHT	1483.7893999999778	13.999999999999998	0.1	Probable_Lie	RIGHT	LEFT	5	911.759200000006	33	2020-02-14 12:09:01.978102
59	Self	S200214	0.5	2	1	1	2	0.1	1150.0000023	1350.0000027	2350.0000047	1500.000003	Minor	Wrong_doings	24	You have engaged in arson	C2_25	0.85	Hard	I1_10	48	French is Singapore's official language	0.944444444444444	Yes	RIGHT	971.7694999999368	LEFT	591.6283999999905	LEFT	1132.9304000000775	LEFT	991.1658000000898	13.9	0.1	Probable_Lie	RIGHT	LEFT	6	1468.417699999918	34	2020-02-14 12:09:26.058189
15	Self	S200214	0.5	2	1	2	1	0.8	1500.000003	1066.6666688	1933.3333372	1783.3333369	Minor	Good_deeds	20	You have made counterfeit money	C2_20	0.95	Hard	I1_28	17	Nomophobia is the fear of being without a phone or computer	0.0555555555555556	Yes	RIGHT	685.7268000001113	LEFT	400.61900000000605	LEFT	1199.7624000000542	LEFT	2760.532000000012	13.099999999999998	0.8	Probable_Lie	RIGHT	LEFT	6	1304.0692000001854	35	2020-02-14 12:09:51.265568
9	Self	S200214	0.5	2	1	1	2	0.2	1350.0000027	1433.3333362	2216.6666711000003	1500.000003	Major	Good_deeds	47	You have blackmailed others for money	C2_16	0.0	Easy	I1_17	28	Singapore is a poor country	0.0555555555555556	Yes	RIGHT	1103.8878999997903	LEFT	551.3714999999593	LEFT	879.3358000000353	LEFT	952.112599999964	12.9	0.2	Probable_Lie	RIGHT	LEFT	4	560.7875000000604	36	2020-02-14 12:10:14.387880
52	Self	S200214	0.5	1	2	2	1	0.3	1216.6666691	1350.0000027	1650.0000033	2066.6666708	Minor	Wrong_doings	13	You have kidnapped someone	C2_13	0.9	Easy	I1_47	2	It is night time now	0.666666666666667	No	RIGHT	264.1332999999122	RIGHT	446.37889999989966	LEFT	678.879600000073	LEFT	1049.1590000001452	13.2	0.3	Probable_Truth	RIGHT	LEFT	2	614.5758000000114	37	2020-02-14 12:10:36.299426
69	Self	S200214	0.6666666666666666	1	2	2	1	0.2	1000.000002	1283.3333359	1933.3333372	2066.6666708	Major	Good_deeds	1	You have been donating all your excess food to a food bank	C1_13	1.0	Hard	I2_3	43	The first Olympic Games was held in the 5th century B.C	0.0	Yes	RIGHT	272.59879999996883	RIGHT	333.21390000014617	LEFT	1911.1689000001209	RIGHT	2814.317900000105	13.4	0.2	Probable_Truth	LEFT	LEFT	2	621.6708000001745	38	2020-02-14 12:11:01.114355
124	Computer	S200214	0.6666666666666666	2	1	2	1	0.7	1500.000003	1500.000003	1783.3333369	2350.0000047	Minor	Good_deeds	19	You have taken months off to volunteer	C2_52	0.1	Easy	I2_4	24	The Earth is round	0.777777777777778	Yes	LEFT	808.7804000001597	RIGHT	528.5839999999098	RIGHT	3824.211299999888	RIGHT	981.0436000000208	13.4	0.7	Probable_Truth	RIGHT	LEFT	1	672.4991702448056	39	2020-02-14 12:11:27.626578
44	Self	S200214	0.8333333333333334	2	1	2	1	0.5	1283.3333359	1350.0000027	2500.000005	1933.3333372	Minor	Good_deeds	30	You have given way to the handicapped	C2_30	0.0	Easy	I2_28	23	Mageirocophobia is a fear of deathly disease	0.666666666666667	No	RIGHT	381.9857000000866	RIGHT	328.32920000009835	RIGHT	1424.019699999917	LEFT	2286.4163000001554	13.9	0.5	Probable_Truth	RIGHT	RIGHT	3	686.9290000001911	40	2020-02-14 12:11:52.369808
76	Self	S200214	0.6666666666666666	2	1	2	1	0.7	1000.000002	1283.3333359	2216.6666711000003	1783.3333369	Minor	Good_deeds	23	You have borrowed things and never returned	C2_48	0.05	Easy	I1_42	12	Cernan was the second last man to walk on the Moon	0.611111111111111	Yes	RIGHT	391.8654999999944	RIGHT	328.66330000001653	LEFT	1879.5442000000548	LEFT	3066.2982999999717	14.599999999999998	0.7	Probable_Truth	LEFT	LEFT	2	722.6780999999391	41	2020-02-14 12:12:17.617858
58	Self	S200214	0.5	2	1	1	2	0.3	1500.000003	1433.3333362	1933.3333372	2350.0000047	Major	Good_deeds	58	You have eaten something in the MRT train	C1_24	0.95	Easy	I2_42	37	Fishes can swim in water	1.0	No	RIGHT	1107.352600000013	LEFT	288.1727999999839	LEFT	1252.237599999944	RIGHT	936.364899999944	14.299999999999995	0.3	Probable_Lie	RIGHT	LEFT	6	914.575300000024	42	2020-02-14 12:12:41.905922
105	Computer	S200214	0.5	2	1	1	2	0.2	1150.0000023	1150.0000023	2350.0000047	2500.000005	Major	Good_deeds	47	You have blackmailed others for money	C2_16	0.0	Easy	I1_17	28	Singapore is a poor country	0.0555555555555556	Yes	LEFT	1290.395799999942	LEFT	783.5774000000129	LEFT	1095.0870000001487	LEFT	735.8064000000013	14.299999999999995	0.2	Probable_Lie	RIGHT	RIGHT	2	782.1687325682494	43	2020-02-14 12:13:06.314275
61	Self	S200214	0.5	2	1	2	1	0.4	1433.3333362	1066.6666688	2216.6666711000003	2066.6666708	Minor	Good_deeds	45	You have stopped using products tested on animals	C1_35	0.55	Hard	I2_23	5	Carnivore refers to meat-eater	0.0	No	RIGHT	392.2704999999951	RIGHT	512.54270000004	RIGHT	2207.40509999996	RIGHT	1429.3537999999444	14.699999999999998	0.4	Probable_Truth	RIGHT	LEFT	2	2114.9667000001955	44	2020-02-14 12:13:32.330220
16	Self	S200214	0.6666666666666666	1	2	1	2	0.8	1350.0000027	1500.000003	2350.0000047	1650.0000033	Minor	Good_deeds	33	You have helped a friend in need	C2_33	0.8	Easy	I1_45	52	Christmas Day is in March	0.0	Yes	RIGHT	161.0728000000563	LEFT	963.424600000053	RIGHT	968.8764999998511	LEFT	1014.453999999887	13.899999999999997	0.8	Probable_Lie	RIGHT	RIGHT	1	539.9657000000389	45	2020-02-14 12:13:55.401863
134	Computer	S200214	0.8333333333333334	1	2	2	1	0.1	1283.3333359	1350.0000027	2500.000005	2500.000005	Major	Wrong_doings	14	You have watched an M18 movie when you were underage	C1_6	0.0	Easy	I2_60	50	Milwaukee Art Museum is located in California	0.0	No	LEFT	256.892599999901	LEFT	903.2841999999164	LEFT	1591.6727999999694	LEFT	1629.1936999998595	13.899999999999997	0.1	Probable_Lie	RIGHT	RIGHT	1	673.5540993271009	46	2020-02-14 12:14:20.657912
96	Computer	S200214	0.5	1	2	1	2	0.2	1433.3333362	1066.6666688	2500.000005	1500.000003	Minor	Wrong_doings	36	You have downloaded pirated movies	C2_24	0.05	Hard	I1_8	31	The Franco-Prussian War occurred in the 19th century	0.833333333333333	No	LEFT	263.612700000067	LEFT	1344.213100000161	RIGHT	2693.581499999937	LEFT	3271.209300000009	13.899999999999997	0.2	Probable_Lie	LEFT	RIGHT	2	746.419927072373	47	2020-02-14 12:14:48.049783
56	Self	S200214	0.5	2	1	1	2	0.8	1000.000002	1150.0000023	2500.000005	1783.3333369	Minor	Wrong_doings	25	You have taken responsibility for your actions	C2_17	1.0	Easy	I1_6	6	It takes 112 years to build the Pisa Tower	0.0	Yes	RIGHT	438.1418000000394	RIGHT	400.3973999999744	RIGHT	1259.6162999998342	LEFT	1799.0374999999403	14.699999999999998	0.8	Probable_Truth	LEFT	LEFT	3	1069.646199999852	48	2020-02-14 12:16:38.713666
67	Self	S200214	0.6666666666666666	1	2	1	2	0.7	1216.6666691	1000.000002	1500.000003	1500.000003	Minor	Wrong_doings	40	You have offered a listening ear to a friend	C2_35	0.05	Easy	I1_36	3	Fibers in oranges can be used to make fabric	0.888888888888889	Yes	RIGHT	328.4511000001657	RIGHT	357.7706999999464	RIGHT	1308.7115000000722	LEFT	2095.1563999999507	15.399999999999997	0.7	Probable_Lie	LEFT	LEFT	3	565.8158000001094	49	2020-02-14 12:17:01.162148
138	Computer	S200214	0.8333333333333334	2	1	1	2	0.7	1150.0000023	1066.6666688	1933.3333372	2500.000005	Major	Good_deeds	51	You have helped others to pick up their belongings	C2_42	0.0	Hard	I2_25	53	The human's inner ear is larger than a pencil eraser	0.0555555555555556	Yes	LEFT	568.1455999999798	LEFT	672.2451000000547	RIGHT	1222.6504999998724	LEFT	1127.851400000054	15.399999999999997	0.7	Probable_Lie	RIGHT	LEFT	2	512.5801419663595	50	2020-02-14 12:17:24.489413
62	Self	S200214	0.5	2	1	2	1	0.2	1216.6666691	1216.6666691	2066.6666708	2500.000005	Major	Good_deeds	35	You have confessed to your mistake	C2_45	0.45	Hard	I2_5	23	There is typically 0.6 grams of mercury in glass thermometer	0.0	Yes	RIGHT	269.42480000002433	RIGHT	272.2132999999758	RIGHT	1126.5732999997908	RIGHT	3435.9457000000475	15.599999999999996	0.2	Probable_Truth	RIGHT	LEFT	3	701.5923000001294	51	2020-02-14 12:17:49.874146
92	Self	S200214	0.8333333333333334	2	1	2	1	0.5	1433.3333362	1350.0000027	2216.6666711000003	2066.6666708	Major	Good_deeds	38	You have returned your trays in food courts	C1_1	0.0	Hard	I2_40	2	Chickens lay eggs	0.0	No	RIGHT	337.5043999999434	RIGHT	288.51090000011936	RIGHT	1272.6313999999093	RIGHT	853.1146999998782	16.099999999999994	0.5	Probable_Truth	RIGHT	RIGHT	3	444.73690000018	52	2020-02-14 12:18:12.713425
126	Computer	S200214	0.6666666666666666	2	1	2	1	0.1	1000.000002	1283.3333359	2500.000005	1933.3333372	Major	Good_deeds	52	You have assisted in a crime	C1_37	0.05	Hard	I2_41	11	Nanyang Technological University is in Australia	0.0	Yes	LEFT	561.572999999953	RIGHT	295.73869999990166	LEFT	840.1955000001635	LEFT	1077.563000000055	16.099999999999994	0.1	Probable_Truth	LEFT	LEFT	1	528.8895263296627	53	2020-02-14 12:18:35.305413
5	Self	S200214	0.5	1	2	2	1	0.3	1216.6666691	1350.0000027	1783.3333369	2066.6666708	Minor	Good_deeds	9	You have adopted a zero-waste lifestyle	C1_31	1.0	Hard	I2_46	8	There are 7 days in a week	1.0	Yes	RIGHT	304.6772999998666	RIGHT	410.63310000004094	RIGHT	2216.640699999971	RIGHT	779.7758000001522	16.399999999999995	0.3	Probable_Truth	RIGHT	LEFT	3	1128.1951000000845	54	2020-02-14 12:18:59.138025
35	Self	S200214	0.8333333333333334	1	2	1	2	0.5	1283.3333359	1500.000003	1500.000003	2500.000005	Minor	Good_deeds	46	You have sign up to sponsor a needy child	C1_46	0.05	Easy	I1_13	58	The sun rises at night	0.888888888888889	Yes	RIGHT	304.6795000000202	RIGHT	317.77089999991404	LEFT	3157.820000000129	LEFT	984.6095000000332	16.899999999999995	0.5	Probable_Truth	RIGHT	RIGHT	2	488.6257999999089	55	2020-02-14 12:19:23.745790
0	Self	S200214	0.5	1	2	1	2	0.4	1066.6666688	1500.000003	2066.6666708	1650.0000033	Minor	Wrong_doings	36	You have downloaded pirated movies	C2_24	0.05	Hard	I1_8	31	The Franco-Prussian War occurred in the 19th century	0.833333333333333	No	RIGHT	248.01750000005995	RIGHT	334.18490000008205	RIGHT	1952.2902999999587	LEFT	1174.65019999986	17.299999999999994	0.4	Probable_Truth	RIGHT	LEFT	3	704.7265000001062	56	2020-02-14 12:19:47.017739
78	Self	S200214	0.6666666666666666	2	1	2	1	0.8	1433.3333362	1150.0000023	1783.3333369	2500.000005	Major	Good_deeds	26	You have bribed someone to improve a grade	C1_17	0.15	Hard	I2_45	19	Cheese is an Asian staple	0.0	Yes	RIGHT	336.6216000001714	RIGHT	255.47359999995933	LEFT	934.967300000153	LEFT	1623.329399999875	18.099999999999994	0.8	Probable_Truth	LEFT	LEFT	2	455.37050000007184	57	2020-02-14 12:20:10.066083
133	Computer	S200214	0.8333333333333334	1	2	2	1	0.7	1066.6666688	1000.000002	1500.000003	1500.000003	Major	Good_deeds	23	You have been arrested	C1_15	0.9	Hard	I1_9	13	Malay is one of the races in Singapore	0.944444444444444	No	LEFT	296.88119999991613	LEFT	914.1491000000316	LEFT	807.9626999999618	RIGHT	1298.1970000000729	18.099999999999994	0.7	Probable_Lie	RIGHT	LEFT	5	512.2011967897125	58	2020-02-14 12:20:31.537464
120	Computer	S200214	0.6666666666666666	2	1	1	2	0.2	1066.6666688	1350.0000027	2216.6666711000003	1500.000003	Minor	Wrong_doings	11	You have cheated on a national exam	C1_45	0.05	Easy	I1_41	41	The Seine river is 50 feet above sea level	0.0	Yes	LEFT	623.6441000000923	LEFT	280.93189999981405	LEFT	997.7271000002474	RIGHT	1895.77109999982	18.099999999999994	0.2	Probable_Lie	RIGHT	LEFT	3	621.1230065842356	59	2020-02-14 12:20:54.658283
132	Computer	S200214	0.8333333333333334	1	2	2	1	0.2	1500.000003	1066.6666688	2066.6666708	1933.3333372	Major	Wrong_doings	15	You have faked an illness	C1_47	0.65	Hard	I2_6	22	February has 30 days	0.0	No	LEFT	232.4564000000464	LEFT	1040.7656000002137	LEFT	905.3079999998772	LEFT	1341.4631999999074	18.099999999999994	0.2	Probable_Lie	RIGHT	LEFT	6	569.9892389843687	60	2020-02-14 12:21:17.882230
131	Computer	S200214	0.8333333333333334	1	2	1	2	0.5	1350.0000027	1283.3333359	1650.0000033	1783.3333369	Minor	Good_deeds	46	You have sign up to sponsor a needy child	C1_46	0.05	Easy	I1_13	58	The sun rises at night	0.888888888888889	Yes	LEFT	415.8975000000282	RIGHT	729.1847999999845	LEFT	1316.644400000314	LEFT	783.6531999996623	18.099999999999994	0.5	Probable_Lie	LEFT	LEFT	3	549.320746868371	61	2020-02-14 12:21:40.313768
103	Computer	S200214	0.5	1	2	2	1	0.8	1500.000003	1216.6666691	2066.6666708	2500.000005	Minor	Good_deeds	24	You have pretended to be busy to avoid a social situation	C1_9	0.7	Hard	I2_43	43	Today is a weekday	0.888888888888889	Yes	LEFT	239.32710000008228	RIGHT	808.8831000000027	RIGHT	1462.9713999997875	RIGHT	1662.4907999998868	18.099999999999994	0.8	Probable_Truth	LEFT	LEFT	3	525.7398540308795	62	2020-02-14 12:22:04.857681
129	Computer	S200214	0.8333333333333334	1	2	1	2	0.6	1000.000002	1216.6666691	1783.3333369	1650.0000033	Minor	Wrong_doings	47	You have intentionally let others cut in line	C2_56	0.0	Hard	I2_11	11	Astatine is the rarest element in the Earth's crust	0.0	Yes	LEFT	432.684700000209	LEFT	679.3546000003516	RIGHT	3695.837700000084	LEFT	3469.499700000142	18.099999999999994	0.6	Probable_Lie	RIGHT	RIGHT	1	504.1128608453581	63	2020-02-14 12:22:31.858069
32	Self	S200214	0.8333333333333334	1	2	1	2	0.6	1350.0000027	1066.6666688	2066.6666708	1783.3333369	Minor	Good_deeds	54	You have taken part in violent demonstration	C2_54	0.9	Hard	I2_22	60	Pyramid of Giza is 468 feet tall	0.888888888888889	Yes	RIGHT	272.3197000000255	RIGHT	390.274600000339	LEFT	1090.5010000001312	RIGHT	3079.138800000237	18.7	0.6	Probable_Truth	LEFT	LEFT	1	423.5742000000755	64	2020-02-14 12:22:55.953386
117	Computer	S200214	0.6666666666666666	1	2	2	1	0.4	1216.6666691	1433.3333362	1650.0000033	2216.6666711000003	Major	Wrong_doings	57	You have failed to keep promises	C1_12	0.0	Hard	I1_29	21	Afghan Hound is the first cloned cat	0.0555555555555556	No	LEFT	255.7065999999395	LEFT	511.6588999999294	LEFT	2207.337100000132	LEFT	1951.683199999934	18.7	0.4	Probable_Truth	LEFT	RIGHT	4	652.719167870004	65	2020-02-14 12:23:20.616549
36	Self	S200214	0.8333333333333334	1	2	2	1	0.8	1066.6666688	1350.0000027	2350.0000047	1500.000003	Major	Wrong_doings	15	You have faked an illness	C1_47	0.65	Hard	I2_6	22	February has 30 days	0.0	No	RIGHT	376.2240999999449	LEFT	667.2343000000183	LEFT	759.6792999997888	LEFT	677.9232999997475	17.899999999999995	0.8	Probable_Lie	RIGHT	RIGHT	1	516.8653999999151	66	2020-02-14 12:23:42.457094
19	Self	S200214	0.6666666666666666	1	2	1	2	0.3	1066.6666688	1433.3333362	1650.0000033	1933.3333372	Major	Good_deeds	27	You have told someone's secret to others	C2_28	0.25	Easy	I1_21	12	Brazil is in South America	0.833333333333333	No	RIGHT	272.4177000000054	LEFT	639.2469000002166	LEFT	970.4971000001024	RIGHT	1616.4484000000812	17.599999999999994	0.3	Probable_Lie	RIGHT	RIGHT	2	496.6336000002229	67	2020-02-14 12:24:05.113265
86	Self	S200214	0.8333333333333334	1	2	2	1	0.3	1216.6666691	1433.3333362	2350.0000047	2350.0000047	Major	Wrong_doings	43	You have watched a pirated movie	C2_39	1.0	Hard	I1_39	44	Africa is the continent with the least rainfall	0.722222222222222	No	RIGHT	344.8827000001984	RIGHT	322.0516999999745	RIGHT	1318.73829999995	RIGHT	2444.623699999738	17.899999999999995	0.3	Probable_Truth	LEFT	LEFT	1	652.7791000003162	68	2020-02-14 12:24:30.121792
4	Self	S200214	0.5	1	2	2	1	0.5	1500.000003	1283.3333359	2216.6666711000003	2500.000005	Major	Wrong_doings	16	You have given up your seat in the MRT	C1_16	0.0	Easy	I2_49	27	R. Amundsen discovered the South Pole	0.0	Yes	RIGHT	40.356900000006135	LEFT	950.1964000000952	RIGHT	984.7497000000658	LEFT	1774.7190000000046	17.399999999999995	0.5	Probable_Lie	LEFT	LEFT	6	741.6567999998733	69	2020-02-14 12:24:54.688591
116	Computer	S200214	0.6666666666666666	1	2	2	1	0.6	1283.3333359	1150.0000023	2350.0000047	2350.0000047	Minor	Wrong_doings	12	You have sold illegal drugs	C1_11	0.0	Easy	I2_34	34	Dutch is the 6th Europe's most widely spoken language	0.833333333333333	Yes	LEFT	208.3540000003268	LEFT	835.8543999997892	LEFT	783.9984000002005	LEFT	1865.4594999998155	17.399999999999995	0.6	Probable_Truth	LEFT	RIGHT	4	992.263317891071	70	2020-02-14 12:25:19.089700
51	Self	S200214	0.5	1	2	1	2	0.4	1500.000003	1150.0000023	1783.3333369	2500.000005	Minor	Good_deeds	5	You have risked your life to save another person's life	C1_44	0.05	Hard	I2_18	47	Most plants emit oxygen in the day	0.944444444444444	Yes	RIGHT	200.26589999997668	RIGHT	242.7296999999271	LEFT	3207.075799999984	RIGHT	2399.6210999998766	17.799999999999994	0.4	Probable_Truth	LEFT	LEFT	1	649.0254000000277	71	2020-02-14 12:25:45.298062
118	Computer	S200214	0.6666666666666666	1	2	2	1	0.7	1500.000003	1000.000002	2216.6666711000003	1783.3333369	Major	Good_deeds	28	You have lost everything just to help others	C1_48	0.0	Hard	I2_31	45	Some owl species hunt fish	0.888888888888889	Yes	LEFT	159.28359999998065	LEFT	353.4541000003628	LEFT	4088.025900000048	RIGHT	2439.922499999738	17.799999999999994	0.7	Probable_Lie	RIGHT	LEFT	3	853.9373178974774	72	2020-02-14 12:26:12.265967
48	Self	S200214	0.5	1	2	1	2	0.8	1066.6666688	1066.6666688	1933.3333372	1783.3333369	Major	Good_deeds	31	You have provided shelter for stray animals	C2_31	1.0	Easy	I1_14	38	The first Grammy awards was held in 1959	0.888888888888889	No	RIGHT	295.0372000000243	LEFT	576.7839999998614	LEFT	1834.418199999618	RIGHT	1287.34250000025	16.999999999999993	0.8	Probable_Lie	RIGHT	LEFT	4	728.8008999998965	73	2020-02-14 12:26:35.417470
102	Computer	S200214	0.5	1	2	2	1	0.3	1216.6666691	1433.3333362	1783.3333369	2066.6666708	Minor	Wrong_doings	31	You have helped your parents when asked to	C2_36	0.2	Easy	I1_27	46	Septicemia is a lung infection condition	0.0	Yes	LEFT	223.8342000000557	RIGHT	477.03379999984463	RIGHT	2495.4093000001194	LEFT	1580.5344999998852	16.999999999999993	0.3	Probable_Truth	LEFT	RIGHT	5	698.776138197828	74	2020-02-14 12:26:59.970191
39	Self	S200214	0.8333333333333334	1	2	2	1	0.4	1150.0000023	1000.000002	1933.3333372	2066.6666708	Major	Good_deeds	56	You have started an NGO using your savings	C2_23	0.0	Easy	I1_50	9	There are 6 million animal species on Earth	0.666666666666667	Yes	RIGHT	72.96750000023167	RIGHT	308.7257000001955	LEFT	1863.460900000064	LEFT	1711.081699999795	17.39999999999999	0.4	Probable_Lie	LEFT	LEFT	5	398.8291999999092	75	2020-02-14 12:27:23.048441
49	Self	S200214	0.5	1	2	1	2	0.2	1150.0000023	1216.6666691	2500.000005	2216.6666711000003	Major	Good_deeds	42	You have thrown your trash into the bin	C2_57	0.75	Hard	I2_54	1	Obama is the USA president now	1.0	Yes	RIGHT	201.5653999997085	RIGHT	284.4709999999395	RIGHT	1192.529200000081	LEFT	1368.5890000001564	17.59999999999999	0.2	Probable_Truth	LEFT	LEFT	3	751.0800000000017	76	2020-02-14 12:27:46.505568
113	Computer	S200214	0.6666666666666666	1	2	1	2	0.8	1066.6666688	1216.6666691	1500.000003	2500.000005	Minor	Wrong_doings	11	You have a non-judgmental attitude towards everyone	C2_27	0.85	Easy	I2_12	60	Last day of the year is 30th December	0.0	Yes	LEFT	296.7022000002544	LEFT	472.4053999998432	RIGHT	1884.1883999998568	LEFT	920.7211000002644	17.59999999999999	0.8	Probable_Truth	LEFT	RIGHT	3	829.7978030998609	77	2020-02-14 12:28:09.769303
54	Self	S200214	0.5	1	2	2	1	0.7	1433.3333362	1500.000003	2350.0000047	1500.000003	Major	Wrong_doings	19	You have violated a traffic law	C1_19	0.0	Easy	I2_1	18	Slavery was abolished in Cuba in 1886	0.0555555555555556	Yes	RIGHT	312.2899999998481	LEFT	778.626499999973	LEFT	864.0919999998005	LEFT	1701.4521999999488	16.89999999999999	0.7	Probable_Lie	LEFT	LEFT	5	690.6400000002577	78	2020-02-14 12:28:33.472947
128	Computer	S200214	0.8333333333333334	1	2	1	2	0.4	1216.6666691	1150.0000023	2350.0000047	2216.6666711000003	Minor	Good_deeds	54	You have taken part in violent demonstration	C2_54	0.9	Hard	I2_22	60	Pyramid of Giza is 468 feet tall	0.888888888888889	Yes	LEFT	192.70540000024997	RIGHT	373.4262000002673	LEFT	918.8598999999158	RIGHT	823.0745999999272	16.89999999999999	0.4	Probable_Lie	LEFT	LEFT	2	706.446315267107	79	2020-02-14 12:28:55.994194
109	Computer	S200214	0.5	2	1	2	1	0.3	1283.3333359	1283.3333359	2216.6666711000003	2350.0000047	Major	Wrong_doings	16	You have followed instructions	C1_22	0.45	Easy	I2_17	35	It takes 500 days to travel from Earth to Mars	0.0	No	LEFT	350.43039999982284	LEFT	143.3169000001726	RIGHT	1023.0547999999544	RIGHT	3802.776699999868	16.89999999999999	0.3	Probable_Lie	RIGHT	RIGHT	1	901.4863928639968	80	2020-02-14 12:29:21.920386
63	Self	S200214	0.5	2	1	2	1	0.5	1283.3333359	1000.000002	1500.000003	2216.6666711000003	Major	Wrong_doings	3	You have been physically hurt to protect others	C2_58	0.0	Hard	I1_37	10	Cleopatra was born in Greece	0.722222222222222	Yes	RIGHT	756.7856000000575	RIGHT	232.5242000001708	LEFT	2064.6159000002626	LEFT	1254.2930999998134	17.39999999999999	0.5	Probable_Lie	LEFT	LEFT	5	692.603500000132	81	2020-02-14 12:29:45.497010
142	Computer	S200214	0.8333333333333334	2	1	2	1	0.1	1350.0000027	1433.3333362	2216.6666711000003	1650.0000033	Minor	Good_deeds	27	You have fabricated facts about yourself	C2_3	1.0	Hard	I2_50	1	Algeria is Africa's second largest country	0.944444444444444	No	LEFT	429.35709999983374	RIGHT	270.3993000000082	LEFT	1638.720999999805	LEFT	1648.82869999974	17.39999999999999	0.1	Probable_Lie	LEFT	LEFT	3	882.647707579526	82	2020-02-14 12:30:09.592641
43	Self	S200214	0.8333333333333334	2	1	1	2	0.8	1433.3333362	1000.000002	1783.3333369	2216.6666711000003	Minor	Wrong_doings	20	You have started a hotline for victims of bully	C1_20	0.0	Easy	I1_53	21	Beer is an alcoholic drink	0.166666666666667	Yes	RIGHT	234.7837000002073	RIGHT	209.2098000002807	LEFT	2994.6451999999226	RIGHT	1048.5254999998688	18.199999999999992	0.8	Probable_Truth	LEFT	LEFT	1	395.1442000002317	83	2020-02-14 12:30:33.480804
31	Self	S200214	0.6666666666666666	2	1	2	1	0.7	1150.0000023	1433.3333362	1500.000003	1933.3333372	Major	Wrong_doings	45	You have drunk alcohol when you were underage	C1_14	0.0	Hard	I1_15	4	Arabi is the oldest surviving breed of horse	0.888888888888889	No	RIGHT	261.9521999999961	RIGHT	296.782500000063	RIGHT	2343.8458999999057	LEFT	2709.537299999738	18.89999999999999	0.7	Probable_Truth	LEFT	LEFT	2	414.9073999997199	84	2020-02-14 12:30:58.097015
122	Computer	S200214	0.6666666666666666	2	1	1	2	0.6	1150.0000023	1066.6666688	1650.0000033	2216.6666711000003	Minor	Wrong_doings	60	You have donated blood every 6 months for many years	C2_19	0.85	Hard	I2_24	8	There are 6000 spoken languages in the World	0.0	Yes	RIGHT	643.2636000004095	RIGHT	264.16680000011183	RIGHT	2622.2649999999703	RIGHT	1559.3298000003415	19.499999999999996	0.6	Probable_Truth	RIGHT	RIGHT	4	759.0554185897024	85	2020-02-14 12:31:22.608628
121	Computer	S200214	0.6666666666666666	2	1	1	2	0.5	1350.0000027	1433.3333362	1933.3333372	2066.6666708	Major	Good_deeds	37	You have cheated on a test	C2_11	0.65	Easy	I1_33	33	Saturn's rings are between 30 and 300 feet thick	0.888888888888889	No	LEFT	277.13420000009137	LEFT	88.31129999998666	LEFT	749.9852999999348	RIGHT	1582.7180999999655	19.499999999999996	0.5	Probable_Truth	LEFT	RIGHT	3	726.7358292299888	86	2020-02-14 12:31:45.392431
70	Self	S200214	0.6666666666666666	1	2	2	1	0.1	1150.0000023	1066.6666688	1650.0000033	2500.000005	Minor	Good_deeds	53	You have lied to your parents	C2_1	0.95	Hard	I1_43	53	The Amazon forest covers an area of 1 billion acres	0.0555555555555556	Yes	RIGHT	848.6049000002822	LEFT	495.3641000001881	LEFT	1863.355800000136	RIGHT	1269.4761000002472	19.39999999999999	0.1	Probable_Lie	RIGHT	RIGHT	1	570.8090999996784	87	2020-02-14 12:32:09.386042
8	Self	S200214	0.5	2	1	1	2	0.6	1150.0000023	1150.0000023	2350.0000047	1933.3333372	Major	Wrong_doings	43	You have rescued others from a catastrophe	C1_60	0.05	Hard	I1_44	51	Lehman Brothers went bankrupt on 20th September	0.888888888888889	No	RIGHT	362.5238999998146	RIGHT	184.71249999993236	LEFT	1156.3891999999214	RIGHT	831.0246000000916	19.999999999999996	0.6	Probable_Lie	LEFT	LEFT	4	766.1060000000361	88	2020-02-14 12:32:31.849176
25	Self	S200214	0.6666666666666666	2	1	1	2	0.4	1350.0000027	1066.6666688	1933.3333372	2500.000005	Major	Good_deeds	37	You have cheated on a test	C2_11	0.65	Easy	I1_33	33	Saturn's rings are between 30 and 300 feet thick	0.888888888888889	No	RIGHT	899.0512000000308	LEFT	176.09070000025895	LEFT	1062.8938999998354	RIGHT	1152.1753000001809	19.599999999999994	0.4	Probable_Lie	RIGHT	RIGHT	2	491.13079999960974	89	2020-02-14 12:32:55.056863
10	Self	S200214	0.5	2	1	1	2	0.3	1433.3333362	1500.000003	2500.000005	2500.000005	Minor	Wrong_doings	30	You have coveted things that belong to others	C2_37	0.7	Hard	I2_39	44	Singapore is a country	0.944444444444444	Yes	RIGHT	276.9999000001917	RIGHT	199.7918000001846	LEFT	1550.0920999998016	RIGHT	848.4251999998378	19.899999999999995	0.3	Probable_Truth	RIGHT	LEFT	3	551.8523000000641	90	2020-02-14 12:33:18.993195
38	Self	S200214	0.8333333333333334	1	2	2	1	0.2	1216.6666691	1433.3333362	1650.0000033	1650.0000033	Major	Wrong_doings	14	You have watched an M18 movie when you were underage	C1_6	0.0	Easy	I2_60	50	Milwaukee Art Museum is located in California	0.0	No	RIGHT	446.1836999998922	LEFT	887.3078999999962	RIGHT	1918.19680000026	RIGHT	2197.203599999739	19.7	0.2	Probable_Lie	RIGHT	RIGHT	1	409.4887999999628	91	2020-02-14 12:33:43.386246
66	Self	S200214	0.6666666666666666	1	2	1	2	0.5	1350.0000027	1216.6666691	2066.6666708	1783.3333369	Major	Wrong_doings	29	You have made someone cry	C1_29	0.0	Hard	I1_24	33	Penguin can fly with their wings	0.777777777777778	No	RIGHT	97.0249000001786	RIGHT	252.64519999973345	RIGHT	2019.061299999976	LEFT	1279.980499999965	20.2	0.5	Probable_Truth	LEFT	LEFT	1	846.0919999997714	92	2020-02-14 12:34:06.872449
106	Computer	S200214	0.5	2	1	1	2	0.7	1500.000003	1216.6666691	1650.0000033	2216.6666711000003	Minor	Wrong_doings	30	You have coveted things that belong to others	C2_37	0.7	Hard	I2_39	44	Singapore is a country	0.944444444444444	Yes	LEFT	251.7233999997188	LEFT	16.87629999969431	LEFT	1032.0741999998972	RIGHT	575.1239999999598	20.2	0.7	Probable_Lie	LEFT	LEFT	4	593.7687861052411	93	2020-02-14 12:34:28.504801
55	Self	S200214	0.5	1	2	2	1	0.5	1000.000002	1433.3333362	2216.6666711000003	1650.0000033	Major	Good_deeds	9	You have helped with household chores	C1_42	0.2	Hard	I1_2	54	Hot chocolate was created by the Mayan culture	0.0	No	RIGHT	88.8463999999658	RIGHT	224.4553000000451	RIGHT	853.9802999998756	LEFT	1825.0155000000632	20.7	0.5	Probable_Truth	RIGHT	LEFT	1	630.7441000003564	94	2020-02-14 12:34:51.000383
107	Computer	S200214	0.5	2	1	1	2	0.4	1433.3333362	1350.0000027	1500.000003	2066.6666708	Minor	Wrong_doings	22	You have cursed at your loved ones	C1_30	0.0	Easy	I2_35	35	A dog has four legs	0.0	No	LEFT	750.2073999999084	RIGHT	207.4297999997725	LEFT	1239.3465000000106	RIGHT	615.8434000003581	20.7	0.4	Probable_Truth	LEFT	LEFT	2	867.8065004221071	95	2020-02-14 12:35:13.600437
33	Self	S200214	0.8333333333333334	1	2	1	2	0.1	1000.000002	1283.3333359	1783.3333369	2216.6666711000003	Minor	Wrong_doings	47	You have intentionally let others cut in line	C2_56	0.0	Hard	I2_11	11	Astatine is the rarest element in the Earth's crust	0.0	Yes	RIGHT	288.2669000000533	RIGHT	259.14270000021133	RIGHT	3441.790100000162	LEFT	1240.02019999989	20.8	0.1	Probable_Truth	RIGHT	RIGHT	6	445.4891999998836	96	2020-02-14 12:36:03.201600
125	Computer	S200214	0.6666666666666666	2	1	2	1	0.3	1216.6666691	1000.000002	2350.0000047	2500.000005	Minor	Wrong_doings	14	You have queued to enter the MRT train	C1_7	1.0	Easy	I2_8	41	A triangle has three sides	0.0	No	LEFT	785.8728999999585	RIGHT	96.92949999998746	RIGHT	1183.675299999777	LEFT	973.319100000026	20.8	0.3	Probable_Truth	RIGHT	LEFT	2	637.329965050361	97	2020-02-14 12:36:26.514217
136	Computer	S200214	0.8333333333333334	2	1	1	2	0.8	1433.3333362	1350.0000027	2500.000005	1500.000003	Minor	Wrong_doings	49	You have deceived a loved one	C1_27	0.65	Hard	I1_1	50	South East Asia is currently free from polio	0.944444444444444	Yes	RIGHT	542.3809999997502	RIGHT	216.27540000008597	LEFT	1366.7921999999635	RIGHT	2831.920600000103	21.6	0.8	Probable_Truth	LEFT	LEFT	1	747.8515527479207	98	2020-02-14 12:36:51.576508
137	Computer	S200214	0.8333333333333334	2	1	1	2	0.5	1283.3333359	1500.000003	2066.6666708	1783.3333369	Major	Good_deeds	3	You have participated in a scamming business	C1_51	1.0	Easy	I1_23	46	Today is Sunday	0.0	Yes	LEFT	318.9567999997962	LEFT	48.19039999983943	LEFT	1337.544699999853	LEFT	1015.7838999998604	21.6	0.5	Probable_Lie	RIGHT	LEFT	2	786.9207322497188	99	2020-02-14 12:37:14.288385
28	Self	S200214	0.6666666666666666	2	1	2	1	0.6	1283.3333359	1350.0000027	2500.000005	1650.0000033	Minor	Good_deeds	19	You have taken months off to volunteer	C2_52	0.1	Easy	I2_4	24	The Earth is round	0.777777777777778	Yes	RIGHT	540.7878999999411	LEFT	576.770800000304	RIGHT	1846.474500000113	RIGHT	1016.3135999996484	21.0	0.6	Probable_Lie	LEFT	LEFT	5	732.6463999997941	100	2020-02-14 12:37:38.361098
141	Computer	S200214	0.8333333333333334	2	1	2	1	0.3	1216.6666691	1000.000002	1650.0000033	2066.6666708	Major	Wrong_doings	50	You have illegally stayed in a country	C2_50	0.0	Hard	I1_46	25	The Moon orbits around the Earth	0.777777777777778	No	LEFT	391.79280000007566	LEFT	207.9819000000498	LEFT	1103.807599999982	LEFT	4381.5465000002405	21.0	0.3	Probable_Lie	RIGHT	LEFT	2	816.4031327802793	101	2020-02-14 12:38:03.769774
112	Computer	S200214	0.6666666666666666	1	2	1	2	0.3	1350.0000027	1350.0000027	1933.3333372	1933.3333372	Minor	Good_deeds	33	You have helped a friend in need	C2_33	0.8	Easy	I1_45	52	Christmas Day is in March	0.0	Yes	LEFT	160.83620000017618	LEFT	1506.439500000397	RIGHT	1147.8305000000546	LEFT	863.553199999842	21.0	0.3	Probable_Lie	RIGHT	RIGHT	1	939.90231093303	102	2020-02-14 12:38:27.520653
13	Self	S200214	0.5	2	1	2	1	0.1	1000.000002	1216.6666691	1500.000003	2216.6666711000003	Major	Wrong_doings	16	You have followed instructions	C1_22	0.45	Easy	I2_17	35	It takes 500 days to travel from Earth to Mars	0.0	No	RIGHT	373.62179999990985	LEFT	377.1970000002512	RIGHT	727.5126999998065	RIGHT	1255.9723000003942	20.899999999999995	0.1	Probable_Lie	LEFT	LEFT	4	541.205600000012	103	2020-02-14 12:38:49.304554
111	Computer	S200214	0.5	2	1	2	1	0.8	1000.000002	1433.3333362	1783.3333369	1783.3333369	Minor	Good_deeds	20	You have made counterfeit money	C2_20	0.95	Hard	I1_28	17	Nomophobia is the fear of being without a phone or computer	0.0555555555555556	Yes	LEFT	275.67679999992833	LEFT	48.82140000017898	LEFT	855.6997999999112	RIGHT	1505.2322000001368	20.899999999999995	0.8	Probable_Lie	RIGHT	LEFT	6	521.6720297527654	104	2020-02-14 12:39:11.080726
73	Self	S200214	0.6666666666666666	2	1	1	2	0.4	1150.0000023	1350.0000027	1933.3333372	1933.3333372	Minor	Good_deeds	38	You have kept your promises	C1_34	0.7	Hard	I2_26	42	Vegetarians can eat vegetable products	0.722222222222222	No	RIGHT	388.36689999970986	RIGHT	144.8021000001063	RIGHT	838.6540000001332	RIGHT	1942.9242000001068	21.299999999999997	0.4	Probable_Truth	LEFT	LEFT	2	641.7885999999271	105	2020-02-14 12:39:33.977355
6	Self	S200214	0.5	1	2	2	1	0.6	1000.000002	1433.3333362	1500.000003	2216.6666711000003	Minor	Wrong_doings	31	You have helped your parents when asked to	C2_36	0.2	Easy	I1_27	46	Septicemia is a lung infection condition	0.0	Yes	RIGHT	272.28210000021136	RIGHT	475.9506999998848	RIGHT	1142.9125999998178	LEFT	1368.8189000004058	21.899999999999995	0.6	Probable_Lie	RIGHT	LEFT	5	630.510399999821	106	2020-02-14 12:39:56.593052
127	Computer	S200214	0.6666666666666666	2	1	2	1	0.4	1283.3333359	1216.6666691	1500.000003	1650.0000033	Major	Wrong_doings	45	You have drunk alcohol when you were underage	C1_14	0.0	Hard	I1_15	4	Arabi is the oldest surviving breed of horse	0.888888888888889	No	LEFT	319.7215000000142	LEFT	16.90519999965545	RIGHT	1351.183900000251	LEFT	942.5599000001056	21.899999999999995	0.4	Probable_Lie	LEFT	LEFT	6	795.5167283426431	107	2020-02-14 12:40:18.249004
57	Self	S200214	0.5	2	1	1	2	0.7	1350.0000027	1283.3333359	1650.0000033	1650.0000033	Minor	Wrong_doings	17	You have bought cigarettes for a minor	C1_50	0.05	Easy	I2_58	58	The hyoid bone is the only jointless bone	0.0	No	RIGHT	726.1717999999746	LEFT	737.0074999998906	LEFT	1511.4200999996683	RIGHT	1975.897199999963	21.2	0.7	Probable_Lie	RIGHT	LEFT	6	582.4107999997068	108	2020-02-14 12:40:42.289331
21	Self	S200214	0.6666666666666666	1	2	2	1	0.5	1433.3333362	1350.0000027	1500.000003	2500.000005	Major	Wrong_doings	57	You have failed to keep promises	C1_12	0.0	Hard	I1_29	21	Afghan Hound is the first cloned cat	0.0555555555555556	No	RIGHT	55.372799999986455	RIGHT	250.97150000010515	LEFT	1072.2985000002154	LEFT	886.4394000001994	21.7	0.5	Probable_Lie	RIGHT	RIGHT	2	470.2703000002657	109	2020-02-14 12:41:04.384845
47	Self	S200214	0.8333333333333334	2	1	2	1	0.6	1066.6666688	1066.6666688	2216.6666711000003	2066.6666708	Major	Wrong_doings	42	You have stopped using plastics completely	C1_49	0.5	Easy	I2_21	28	Kangaroos live in Africa	0.0	No	RIGHT	279.80600000000777	RIGHT	16.765399999712827	LEFT	1647.2474000001966	LEFT	1078.0143000001772	22.3	0.6	Probable_Truth	LEFT	LEFT	1	448.9980999996988	110	2020-02-14 12:41:26.847478
75	Self	S200214	0.6666666666666666	2	1	1	2	0.3	1500.000003	1000.000002	1500.000003	2066.6666708	Major	Wrong_doings	46	You have sheltered others from disasters	C2_29	0.0	Easy	I1_57	45	It is 20th Century now	0.111111111111111	No	RIGHT	350.6938000000446	RIGHT	1.1193999998795334	LEFT	2228.307400000176	LEFT	1335.8441000000312	22.6	0.3	Probable_Truth	LEFT	LEFT	2	645.9629000000859	111	2020-02-14 12:41:50.048455
81	Self	S200214	0.8333333333333334	1	2	1	2	0.5	1433.3333362	1500.000003	2216.6666711000003	1500.000003	Major	Good_deeds	8	You have bought cocaine	C1_39	0.15	Easy	I2_27	27	Singapore is in Africa	0.0555555555555556	Yes	RIGHT	184.30769999986296	RIGHT	272.60030000024926	LEFT	918.4454999999616	LEFT	855.4411000000073	23.1	0.5	Probable_Truth	LEFT	LEFT	1	384.6032000001287	112	2020-02-14 12:42:11.888887
100	Computer	S200214	0.5	1	2	2	1	0.7	1066.6666688	1150.0000023	1933.3333372	2350.0000047	Major	Wrong_doings	16	You have given up your seat in the MRT	C1_16	0.0	Easy	I2_49	27	R. Amundsen discovered the South Pole	0.0	Yes	RIGHT	423.541799999839	RIGHT	222.4607000002834	RIGHT	751.9294999997328	LEFT	1067.6000999997086	23.8	0.7	Probable_Truth	RIGHT	RIGHT	6	730.6066747144754	113	2020-02-14 12:42:34.161198
65	Self	S200214	0.6666666666666666	1	2	1	2	0.6	1433.3333362	1150.0000023	1783.3333369	2350.0000047	Minor	Wrong_doings	58	You have held the elevator doors for others	C1_53	0.05	Easy	I2_53	36	China is a part of Asia	0.0	No	RIGHT	168.40670000010505	RIGHT	354.2806999998902	RIGHT	1071.8848000001344	Time_Max_Exceeded	5000.290799999675	24.4	0.6	Probable_Truth	LEFT	LEFT	2	605.3894000001492	114	2020-02-14 12:43:00.657991
20	Self	S200214	0.6666666666666666	1	2	2	1	0.6	1283.3333359	1066.6666688	1933.3333372	2216.6666711000003	Minor	Wrong_doings	12	You have sold illegal drugs	C1_11	0.0	Easy	I2_34	34	Dutch is the 6th Europe's most widely spoken language	0.833333333333333	Yes	RIGHT	113.42960000001769	RIGHT	260.9010999999555	LEFT	743.8243000001421	LEFT	1630.6205000000773	25.0	0.6	Probable_Lie	LEFT	LEFT	4	562.9436999997779	115	2020-02-14 12:43:23.048403
130	Computer	S200214	0.8333333333333334	1	2	1	2	0.8	1433.3333362	1500.000003	2216.6666711000003	2066.6666708	Minor	Wrong_doings	6	You have switched off appliances when not in use	C2_14	0.85	Easy	I1_58	6	Statute of Liberty is in New York	0.0	No	RIGHT	24.4963000000098	RIGHT	292.52790000009554	RIGHT	1302.1998999997777	RIGHT	767.3521000001529	25.8	0.8	Probable_Truth	LEFT	LEFT	1	796.7648637492505	116	2020-02-14 12:43:46.024570
80	Self	S200214	0.8333333333333334	1	2	1	2	0.2	1283.3333359	1216.6666691	1933.3333372	1783.3333369	Major	Good_deeds	36	You have shown your appreciation to your teachers	C2_7	1.0	Easy	I2_44	4	A caterpillar has more muscle than a human	0.611111111111111	Yes	RIGHT	168.13330000013593	LEFT	620.5313000000388	RIGHT	1402.962099999968	LEFT	1327.3807999999008	25.6	0.2	Probable_Lie	RIGHT	RIGHT	1	522.254299999986	117	2020-02-14 12:44:08.856969
26	Self	S200214	0.6666666666666666	2	1	1	2	0.5	1433.3333362	1150.0000023	2350.0000047	1783.3333369	Minor	Wrong_doings	60	You have donated blood every 6 months for many years	C2_19	0.85	Hard	I2_24	8	There are 6000 spoken languages in the World	0.0	Yes	RIGHT	75.89689999986149	RIGHT	207.57140000023355	RIGHT	932.7056000001904	RIGHT	887.2885000000679	26.1	0.5	Probable_Lie	LEFT	LEFT	3	397.0412999997279	118	2020-02-14 12:44:30.648872
50	Self	S200214	0.5	1	2	1	2	0.1	1350.0000027	1000.000002	2066.6666708	2350.0000047	Minor	Wrong_doings	44	You have been sued	C2_9	0.0	Hard	I2_38	54	The current century is 21st	0.0	No	RIGHT	144.58029999968858	LEFT	710.0421999998616	LEFT	838.0542999998397	LEFT	1097.3113000000012	26.0	0.1	Probable_Lie	RIGHT	LEFT	6	672.0387000000301	119	2020-02-14 12:44:53.450165
37	Self	S200214	0.8333333333333334	1	2	2	1	0.7	1433.3333362	1150.0000023	2500.000005	1933.3333372	Major	Good_deeds	23	You have been arrested	C1_15	0.9	Hard	I1_9	13	Malay is one of the races in Singapore	0.944444444444444	No	RIGHT	176.4431000001423	RIGHT	260.44450000017605	LEFT	648.0102999998962	RIGHT	876.3114000003043	26.7	0.7	Probable_Truth	RIGHT	RIGHT	4	455.7169999998223	120	2020-02-14 12:45:15.456507
1	Self	S200214	0.5	1	2	1	2	0.8	1350.0000027	1000.000002	1933.3333372	1783.3333369	Major	Good_deeds	18	You have engaged in underage smoking	C1_40	0.95	Hard	I1_31	59	There are 30 hours in a day	0.0	No	RIGHT	119.115999999849	RIGHT	276.5544999997473	LEFT	1672.7250999997525	LEFT	767.9805000002489	27.5	0.8	Probable_Lie	LEFT	LEFT	6	615.8878999999615	121	2020-02-14 12:45:37.553155
140	Computer	S200214	0.8333333333333334	2	1	2	1	0.6	1000.000002	1150.0000023	1783.3333369	2350.0000047	Minor	Good_deeds	30	You have given way to the handicapped	C2_30	0.0	Easy	I2_28	23	Mageirocophobia is a fear of deathly disease	0.666666666666667	No	LEFT	233.4192999996958	LEFT	87.9253999996763	RIGHT	967.2722999998769	LEFT	1499.2566999999326	27.5	0.6	Probable_Lie	RIGHT	LEFT	4	957.767535840526	122	2020-02-14 12:46:00.144889
46	Self	S200214	0.8333333333333334	2	1	2	1	0.2	1150.0000023	1433.3333362	1933.3333372	2500.000005	Minor	Good_deeds	27	You have fabricated facts about yourself	C2_3	1.0	Hard	I2_50	1	Algeria is Africa's second largest country	0.944444444444444	No	RIGHT	300.51229999980933	RIGHT	200.2190000002884	LEFT	735.8029000001807	LEFT	1341.344299999946	27.7	0.2	Probable_Truth	LEFT	LEFT	1	447.27729999976873	123	2020-02-14 12:46:22.759680
95	Self	S200214	0.8333333333333334	2	1	2	1	0.2	1000.000002	1150.0000023	1933.3333372	2216.6666711000003	Minor	Good_deeds	28	You have attended all lectures as a student	C2_6	0.95	Easy	I1_38	30	Earth's atmosphere extends up to 10,000km into space	0.833333333333333	Yes	RIGHT	708.2759999998416	LEFT	88.19220000032146	LEFT	2255.408299999999	RIGHT	1511.7757000002712	27.5	0.2	Probable_Lie	RIGHT	RIGHT	1	439.7706000004291	124	2020-02-14 12:46:46.640259
82	Self	S200214	0.8333333333333334	1	2	1	2	0.8	1150.0000023	1283.3333359	2066.6666708	2216.6666711000003	Minor	Wrong_doings	7	You have stolen something	C1_36	0.0	Easy	I2_13	52	Polish is 20th most spoken language in the World	0.0	No	RIGHT	144.6272999996836	RIGHT	205.6527999998252	LEFT	704.3966999999611	RIGHT	2518.906700000116	28.3	0.8	Probable_Lie	LEFT	LEFT	5	468.8876999998684	125	2020-02-14 12:47:09.976114
27	Self	S200214	0.6666666666666666	2	1	1	2	0.3	1066.6666688	1283.3333359	2216.6666711000003	2216.6666711000003	Major	Good_deeds	7	You have sorted your trash into recycling bin	C2_60	0.55	Hard	I1_11	15	A square has 3 corners	0.944444444444444	No	RIGHT	361.01540000026944	LEFT	48.67380000041521	RIGHT	1176.4694999997118	LEFT	751.3936000000285	28.0	0.3	Probable_Lie	RIGHT	RIGHT	1	505.0415999999132	126	2020-02-14 12:47:32.176934
18	Self	S200214	0.6666666666666666	1	2	1	2	0.1	1150.0000023	1000.000002	2216.6666711000003	2066.6666708	Minor	Good_deeds	53	You have bribed a police officer	C1_57	1.0	Hard	I1_60	29	The Eiffel Tower is in Paris	0.0555555555555556	No	RIGHT	153.70819999998275	RIGHT	262.65769999963595	LEFT	672.1546999997372	RIGHT	703.0572999997275	28.1	0.1	Probable_Truth	LEFT	LEFT	1	655.3389000000607	127	2020-02-14 12:47:53.632598
45	Self	S200214	0.8333333333333334	2	1	2	1	0.7	1350.0000027	1216.6666691	1650.0000033	2350.0000047	Major	Wrong_doings	50	You have illegally stayed in a country	C2_50	0.0	Hard	I1_46	25	The Moon orbits around the Earth	0.777777777777778	No	RIGHT	238.8738999998168	RIGHT	72.34970000035901	LEFT	711.308000000372	RIGHT	1313.6075000002163	28.8	0.7	Probable_Lie	LEFT	LEFT	3	404.2374000000564	128	2020-02-14 12:48:15.519936
135	Computer	S200214	0.8333333333333334	1	2	2	1	0.3	1150.0000023	1433.3333362	1933.3333372	2350.0000047	Major	Good_deeds	56	You have started an NGO using your savings	C2_23	0.0	Easy	I1_50	9	There are 6 million animal species on Earth	0.666666666666667	Yes	LEFT	489.4912999998269	LEFT	223.97749999981897	LEFT	894.8605999999018	LEFT	1403.1881999999314	28.8	0.3	Probable_Lie	RIGHT	LEFT	2	625.2226540066152	129	2020-02-14 12:48:38.609230
119	Computer	S200214	0.6666666666666666	1	2	2	1	0.5	1000.000002	1283.3333359	2066.6666708	1650.0000033	Major	Wrong_doings	48	You have said thank you when you have received help	C2_53	1.0	Hard	I2_52	31	Teddy Roosevelt was the youngest US President	0.833333333333333	No	LEFT	72.3747000001822	LEFT	326.9153000001097	RIGHT	1216.094400000202	RIGHT	1504.760400000123	28.8	0.5	Probable_Lie	LEFT	RIGHT	2	505.0113174984225	130	2020-02-14 12:49:00.799400
101	Computer	S200214	0.5	1	2	2	1	0.1	1150.0000023	1283.3333359	1500.000003	1933.3333372	Minor	Good_deeds	9	You have adopted a zero-waste lifestyle	C1_31	1.0	Hard	I2_46	8	There are 7 days in a week	1.0	Yes	RIGHT	113.3230000000367	RIGHT	328.2253999996101	RIGHT	1847.220599999673	RIGHT	806.9681000001765	28.9	0.1	Probable_Truth	LEFT	RIGHT	5	969.0423974437754	131	2020-02-14 12:49:23.296563
2	Self	S200214	0.5	1	2	1	2	0.7	1283.3333359	1066.6666688	2500.000005	1933.3333372	Major	Good_deeds	34	You have engaged in money laundering	C2_34	0.05	Easy	I2_59	32	There are 10 continents in the World	0.944444444444444	No	RIGHT	104.17710000001534	RIGHT	308.8290999999117	LEFT	901.851500000248	LEFT	1247.099900000194	29.6	0.7	Probable_Lie	LEFT	LEFT	4	785.725199999888	132	2020-02-14 12:49:45.999511
74	Self	S200214	0.6666666666666666	2	1	1	2	0.6	1283.3333359	1500.000003	1650.0000033	2350.0000047	Major	Wrong_doings	17	You have signed up as a bone marrow donor	C1_38	0.85	Hard	I1_12	57	Beef comes from cows	0.777777777777778	No	RIGHT	176.12329999974463	RIGHT	64.18279999979859	LEFT	1411.508799999865	RIGHT	895.2444999999898	30.200000000000003	0.6	Probable_Truth	LEFT	LEFT	2	496.04909999970914	133	2020-02-14 12:50:08.409320
88	Self	S200214	0.8333333333333334	2	1	1	2	0.8	1066.6666688	1433.3333362	2350.0000047	1933.3333372	Minor	Wrong_doings	1	You have let a homeless man into your house	C1_33	0.2	Hard	I2_16	25	Bears have the biggest eyes among mammals	1.0	Yes	RIGHT	147.71109999992404	RIGHT	431.5037999999731	LEFT	1915.24870000012	RIGHT	3264.220799999748	31.000000000000004	0.8	Probable_Truth	RIGHT	RIGHT	3	419.1722000000482	134	2020-02-14 12:50:33.953177
60	Self	S200214	0.5	2	1	2	1	0.6	1066.6666688	1500.000003	1783.3333369	1933.3333372	Major	Good_deeds	50	You have claimed doing things that you never did	C1_3	0.1	Easy	I1_48	42	Singapore has four seasons	0.833333333333333	No	RIGHT	274.4619000000057	RIGHT	160.32039999981862	LEFT	1671.1756000004243	LEFT	798.3948000000964	31.600000000000005	0.6	Probable_Lie	LEFT	LEFT	5	802.6476000000002	135	2020-02-14 12:50:56.519449
87	Self	S200214	0.8333333333333334	1	2	2	1	0.6	1500.000003	1000.000002	1650.0000033	1933.3333372	Minor	Good_deeds	8	You have started a movement to support a cause	C1_4	0.0	Hard	I2_36	36	There are 9 rings in the Olympic flag	0.764705882352941	Yes	RIGHT	94.09649999997782	RIGHT	270.25849999972706	LEFT	1342.8636999997252	LEFT	1697.295899999972	32.2	0.6	Probable_Truth	LEFT	LEFT	1	392.5995999998122	136	2020-02-14 12:51:18.984479
41	Self	S200214	0.8333333333333334	2	1	1	2	0.3	1500.000003	1500.000003	2066.6666708	1500.000003	Major	Good_deeds	3	You have participated in a scamming business	C1_51	1.0	Easy	I1_23	46	Today is Sunday	0.0	Yes	RIGHT	605.6585999999697	RIGHT	159.95909999992364	LEFT	1638.6324999998578	LEFT	727.4116000003232	32.5	0.3	Probable_Truth	LEFT	LEFT	1	596.9724999999926	137	2020-02-14 12:51:41.856990
98	Computer	S200214	0.5	1	2	1	2	0.5	1283.3333359	1500.000003	2350.0000047	2216.6666711000003	Major	Good_deeds	34	You have engaged in money laundering	C2_34	0.05	Easy	I2_59	32	There are 10 continents in the World	0.944444444444444	No	LEFT	98.12479999982315	LEFT	95.5943999997544	LEFT	728.9743000001181	LEFT	775.0393000001168	32.5	0.5	Probable_Lie	LEFT	LEFT	4	761.9350920876112	138	2020-02-14 12:52:04.241248
93	Self	S200214	0.8333333333333334	2	1	2	1	0.1	1283.3333359	1283.3333359	1500.000003	1650.0000033	Minor	Good_deeds	6	You have used heroin	C1_28	0.0	Easy	I1_40	16	Marijuana is legal in Singapore	0.0	Yes	RIGHT	236.57349999984945	RIGHT	153.4498999999414	LEFT	783.4800000000541	LEFT	1929.5336999998651	32.6	0.1	Probable_Lie	LEFT	LEFT	2	326.2487000001784	139	2020-02-14 12:52:25.959454
139	Computer	S200214	0.8333333333333334	2	1	1	2	0.2	1500.000003	1216.6666691	2350.0000047	1933.3333372	Minor	Wrong_doings	20	You have started a hotline for victims of bully	C1_20	0.0	Easy	I1_53	21	Beer is an alcoholic drink	0.166666666666667	Yes	LEFT	211.9126000002325	LEFT	80.17870000003313	LEFT	732.5587000000269	RIGHT	807.0965000001706	32.6	0.2	Probable_Lie	LEFT	RIGHT	1	603.763046405946	140	2020-02-14 12:52:47.968563
29	Self	S200214	0.6666666666666666	2	1	2	1	0.8	1216.6666691	1000.000002	1650.0000033	2350.0000047	Minor	Wrong_doings	14	You have queued to enter the MRT train	C1_7	1.0	Easy	I2_8	41	A triangle has three sides	0.0	No	RIGHT	310.8847000003152	RIGHT	8.519299999989016	RIGHT	840.5238000000281	LEFT	801.7964000000575	33.4	0.8	Probable_Lie	RIGHT	RIGHT	2	587.1257999997397	141	2020-02-14 12:53:09.311998
64	Self	S200214	0.6666666666666666	1	2	1	2	0.8	1283.3333359	1500.000003	2216.6666711000003	1933.3333372	Major	Wrong_doings	35	You have extorted money from anyone	C2_40	1.0	Easy	I2_33	24	It is snowing outside now	0.611111111111111	Yes	RIGHT	223.97120000005089	RIGHT	270.66869999998744	LEFT	902.7040999999372	LEFT	903.57640000002	34.2	0.8	Probable_Truth	LEFT	LEFT	1	382.0756000000074	142	2020-02-14 12:53:31.504452
110	Computer	S200214	0.5	2	1	2	1	0.6	1350.0000027	1500.000003	2500.000005	1500.000003	Minor	Good_deeds	37	You have held the door open for a stranger	C1_43	0.95	Hard	I2_51	39	North Korea is more developed than South Korea	0.777777777777778	No	LEFT	955.4231000001892	LEFT	568.2896000002984	RIGHT	823.5325999999077	LEFT	892.2025000001668	34.2	0.6	Probable_Lie	LEFT	RIGHT	1	887.6160441165201	143	2020-02-14 12:53:55.047898
