Participant	Task	Stimulus_Side	Response	RT	ITI	Previous_Response	Previous_RT	Trial_Onset	Trial_End	Trial_Order	Duration	Conflict	Cue_Response	Cue_Response_RT	Stop_Signal	Stop_Signal_RT
S200214	Conflict_Resolution	RIGHT	RIGHT	1119.56439999994	883.3333351	n/a	n/a	2020-02-14 11:29:09.878283	2020-02-14 11:29:11.207928	1	5.68402198333333	False	n/a	n/a	n/a	n/a
S200214	Conflict_Resolution	LEFT	RIGHT	975.085799999988	1250.0000025	n/a	n/a	2020-02-14 11:29:12.478187	2020-02-14 11:29:13.661743	2	5.68402198333333	True	n/a	n/a	n/a	n/a
S200214	Conflict_Resolution	RIGHT	LEFT	885.125700000003	600.0000012	n/a	n/a	2020-02-14 11:29:14.280618	2020-02-14 11:29:15.373920	3	5.68402198333333	True	n/a	n/a	n/a	n/a
S200214	Conflict_Resolution	RIGHT	RIGHT	714.435999999978	650.0000013	n/a	n/a	2020-02-14 11:29:16.043630	2020-02-14 11:29:16.965374	4	5.68402198333333	False	n/a	n/a	n/a	n/a
S200214	Conflict_Resolution	RIGHT	LEFT	825.941599999965	1466.6666696	n/a	n/a	2020-02-14 11:29:18.451415	2020-02-14 11:29:19.485431	5	5.68402198333333	True	n/a	n/a	n/a	n/a
S200214	Conflict_Resolution	LEFT	LEFT	1326.92249999991	716.6666681	n/a	n/a	2020-02-14 11:29:20.223116	2020-02-14 11:29:21.759764	6	5.68402198333333	False	n/a	n/a	n/a	n/a
S200214	Conflict_Resolution	LEFT	LEFT	1450.05839999999	850.0000017	n/a	n/a	2020-02-14 11:29:22.627932	2020-02-14 11:29:24.286164	7	5.68402198333333	True	n/a	n/a	n/a	n/a
S200214	Conflict_Resolution	LEFT	LEFT	622.587700000054	1150.0000023	n/a	n/a	2020-02-14 11:29:25.455105	2020-02-14 11:29:26.286414	8	5.68402198333333	True	n/a	n/a	n/a	n/a
S200214	Conflict_Resolution	LEFT	LEFT	425.316400000042	1466.6666696	n/a	n/a	2020-02-14 11:29:27.772874	2020-02-14 11:29:28.404855	9	5.68402198333333	True	n/a	n/a	n/a	n/a
S200214	Conflict_Resolution	LEFT	LEFT	415.691200000083	516.6666677	n/a	n/a	2020-02-14 11:29:28.942374	2020-02-14 11:29:29.566490	10	5.68402198333333	False	n/a	n/a	n/a	n/a
S200214	Conflict_Resolution	LEFT	RIGHT	387.330800000086	1216.6666691	n/a	n/a	2020-02-14 11:29:30.802755	2020-02-14 11:29:31.397764	11	5.68402198333333	True	n/a	n/a	n/a	n/a
S200214	Conflict_Resolution	RIGHT	RIGHT	1149.08739999998	783.3333349	n/a	n/a	2020-02-14 11:29:32.201005	2020-02-14 11:29:33.558777	12	5.68402198333333	True	n/a	n/a	n/a	n/a
S200214	Conflict_Resolution	RIGHT	RIGHT	465.828399999964	1483.3333363	n/a	n/a	2020-02-14 11:29:35.059689	2020-02-14 11:29:35.733946	13	5.68402198333333	False	n/a	n/a	n/a	n/a
S200214	Conflict_Resolution	LEFT	LEFT	593.27200000007	666.666668	n/a	n/a	2020-02-14 11:29:36.420620	2020-02-14 11:29:37.223446	14	5.68402198333333	True	n/a	n/a	n/a	n/a
S200214	Conflict_Resolution	LEFT	LEFT	375.239699999952	916.6666685	n/a	n/a	2020-02-14 11:29:38.158457	2020-02-14 11:29:38.741719	15	5.68402198333333	False	n/a	n/a	n/a	n/a
S200214	Conflict_Resolution	LEFT	LEFT	403.701400000045	1216.6666691	n/a	n/a	2020-02-14 11:29:39.978458	2020-02-14 11:29:40.589871	16	5.68402198333333	False	n/a	n/a	n/a	n/a
S200214	Conflict_Resolution	RIGHT	RIGHT	536.945399999922	683.3333347	n/a	n/a	2020-02-14 11:29:41.293051	2020-02-14 11:29:42.038791	17	5.68402198333333	True	n/a	n/a	n/a	n/a
S200214	Conflict_Resolution	RIGHT	RIGHT	547.55190000003	1150.0000023	n/a	n/a	2020-02-14 11:29:43.209642	2020-02-14 11:29:43.966562	18	5.68402198333333	True	n/a	n/a	n/a	n/a
S200214	Conflict_Resolution	LEFT	LEFT	457.071600000063	816.6666683	n/a	n/a	2020-02-14 11:29:44.804174	2020-02-14 11:29:45.470792	19	5.68402198333333	True	n/a	n/a	n/a	n/a
S200214	Conflict_Resolution	LEFT	LEFT	541.732499999966	1350.0000027	n/a	n/a	2020-02-14 11:29:46.839660	2020-02-14 11:29:47.589293	20	5.68402198333333	True	n/a	n/a	n/a	n/a
S200214	Conflict_Resolution	LEFT	LEFT	372.818999999936	1366.6666694	n/a	n/a	2020-02-14 11:29:48.976517	2020-02-14 11:29:49.558098	21	5.68402198333333	False	n/a	n/a	n/a	n/a
S200214	Conflict_Resolution	LEFT	LEFT	421.477600000003	533.3333344	n/a	n/a	2020-02-14 11:29:50.112388	2020-02-14 11:29:50.742294	22	5.68402198333333	False	n/a	n/a	n/a	n/a
S200214	Conflict_Resolution	RIGHT	RIGHT	356.493	633.3333346	n/a	n/a	2020-02-14 11:29:51.392580	2020-02-14 11:29:51.958266	23	5.68402198333333	False	n/a	n/a	n/a	n/a
S200214	Conflict_Resolution	LEFT	LEFT	425.450499999897	1100.0000022	n/a	n/a	2020-02-14 11:29:53.076366	2020-02-14 11:29:53.709235	24	5.68402198333333	True	n/a	n/a	n/a	n/a
S200214	Conflict_Resolution	LEFT	LEFT	372.738499999969	1200.0000024	n/a	n/a	2020-02-14 11:29:54.929101	2020-02-14 11:29:55.510708	25	5.68402198333333	False	n/a	n/a	n/a	n/a
S200214	Conflict_Resolution	LEFT	LEFT	334.222999999952	733.3333348	n/a	n/a	2020-02-14 11:29:56.263184	2020-02-14 11:29:56.805816	26	5.68402198333333	False	n/a	n/a	n/a	n/a
S200214	Conflict_Resolution	LEFT	RIGHT	376.458899999989	1500.000003	n/a	n/a	2020-02-14 11:29:58.325504	2020-02-14 11:29:58.909545	27	5.68402198333333	True	n/a	n/a	n/a	n/a
S200214	Conflict_Resolution	LEFT	LEFT	554.775599999971	1066.6666688	n/a	n/a	2020-02-14 11:29:59.995240	2020-02-14 11:30:00.757787	28	5.68402198333333	True	n/a	n/a	n/a	n/a
S200214	Conflict_Resolution	RIGHT	RIGHT	554.638800000021	1050.0000021	n/a	n/a	2020-02-14 11:30:01.827432	2020-02-14 11:30:02.590683	29	5.68402198333333	True	n/a	n/a	n/a	n/a
S200214	Conflict_Resolution	RIGHT	RIGHT	559.551100000022	900.0000018	n/a	n/a	2020-02-14 11:30:03.509546	2020-02-14 11:30:04.278227	30	5.68402198333333	True	n/a	n/a	n/a	n/a
S200214	Conflict_Resolution	LEFT	LEFT	553.474199999982	866.6666684	n/a	n/a	2020-02-14 11:30:05.164169	2020-02-14 11:30:05.926511	31	5.68402198333333	True	n/a	n/a	n/a	n/a
S200214	Conflict_Resolution	LEFT	LEFT	484.784800000057	1200.0000024	n/a	n/a	2020-02-14 11:30:07.145172	2020-02-14 11:30:07.840622	32	5.68402198333333	True	n/a	n/a	n/a	n/a
S200214	Conflict_Resolution	RIGHT	RIGHT	452.968600000077	733.3333348	n/a	n/a	2020-02-14 11:30:08.592821	2020-02-14 11:30:09.253378	33	5.68402198333333	False	n/a	n/a	n/a	n/a
S200214	Conflict_Resolution	LEFT	LEFT	317.572500000097	950.0000019	n/a	n/a	2020-02-14 11:30:10.224341	2020-02-14 11:30:10.749512	34	5.68402198333333	False	n/a	n/a	n/a	n/a
S200214	Conflict_Resolution	LEFT	LEFT	326.441900000077	966.6666686	n/a	n/a	2020-02-14 11:30:11.735624	2020-02-14 11:30:12.269491	35	5.68402198333333	False	n/a	n/a	n/a	n/a
S200214	Conflict_Resolution	RIGHT	RIGHT	575.827400000094	933.3333352	n/a	n/a	2020-02-14 11:30:13.221995	2020-02-14 11:30:14.005082	36	5.68402198333333	True	n/a	n/a	n/a	n/a
S200214	Conflict_Resolution	LEFT	LEFT	353.024600000026	1266.6666692	n/a	n/a	2020-02-14 11:30:15.292731	2020-02-14 11:30:15.853807	37	5.68402198333333	False	n/a	n/a	n/a	n/a
S200214	Conflict_Resolution	RIGHT	RIGHT	544.581600000015	883.3333351	n/a	n/a	2020-02-14 11:30:16.756625	2020-02-14 11:30:17.510048	38	5.68402198333333	True	n/a	n/a	n/a	n/a
S200214	Conflict_Resolution	LEFT	LEFT	339.850999999953	1350.0000027	n/a	n/a	2020-02-14 11:30:18.881974	2020-02-14 11:30:19.430381	39	5.68402198333333	False	n/a	n/a	n/a	n/a
S200214	Conflict_Resolution	RIGHT	RIGHT	372.637199999986	1183.3333357	n/a	n/a	2020-02-14 11:30:20.633302	2020-02-14 11:30:21.215108	40	5.68402198333333	False	n/a	n/a	n/a	n/a
S200214	Conflict_Resolution	RIGHT	RIGHT	386.955300000068	1000.000002	n/a	n/a	2020-02-14 11:30:22.235177	2020-02-14 11:30:22.830183	41	5.68402198333333	False	n/a	n/a	n/a	n/a
S200214	Conflict_Resolution	LEFT	LEFT	362.080900000024	1450.0000029	n/a	n/a	2020-02-14 11:30:24.299847	2020-02-14 11:30:24.869985	42	5.68402198333333	False	n/a	n/a	n/a	n/a
S200214	Conflict_Resolution	RIGHT	RIGHT	395.599500000003	783.3333349	n/a	n/a	2020-02-14 11:30:25.674067	2020-02-14 11:30:26.276886	43	5.68402198333333	False	n/a	n/a	n/a	n/a
S200214	Conflict_Resolution	RIGHT	RIGHT	581.976699999927	983.3333353	n/a	n/a	2020-02-14 11:30:27.279725	2020-02-14 11:30:28.069227	44	5.68402198333333	True	n/a	n/a	n/a	n/a
S200214	Conflict_Resolution	LEFT	LEFT	480.675000000019	900.0000018	n/a	n/a	2020-02-14 11:30:28.988748	2020-02-14 11:30:29.680339	45	5.68402198333333	True	n/a	n/a	n/a	n/a
S200214	Conflict_Resolution	LEFT	LEFT	593.538400000057	1016.6666687	n/a	n/a	2020-02-14 11:30:30.716339	2020-02-14 11:30:31.519798	46	5.68402198333333	True	n/a	n/a	n/a	n/a
S200214	Conflict_Resolution	RIGHT	RIGHT	376.069400000006	683.3333347	n/a	n/a	2020-02-14 11:30:32.221437	2020-02-14 11:30:32.806680	47	5.68402198333333	False	n/a	n/a	n/a	n/a
S200214	Conflict_Resolution	LEFT	LEFT	397.050300000046	1166.666669	n/a	n/a	2020-02-14 11:30:33.992987	2020-02-14 11:30:34.598211	48	5.68402198333333	True	n/a	n/a	n/a	n/a
S200214	Conflict_Resolution	LEFT	LEFT	437.046599999917	733.3333348	n/a	n/a	2020-02-14 11:30:35.352870	2020-02-14 11:30:35.999482	49	5.68402198333333	True	n/a	n/a	n/a	n/a
S200214	Conflict_Resolution	RIGHT	RIGHT	387.763299999961	933.3333352	n/a	n/a	2020-02-14 11:30:36.954063	2020-02-14 11:30:37.550803	50	5.68402198333333	False	n/a	n/a	n/a	n/a
S200214	Conflict_Resolution	RIGHT	RIGHT	442.876500000011	1133.3333356	n/a	n/a	2020-02-14 11:30:38.707193	2020-02-14 11:30:39.359449	51	5.68402198333333	False	n/a	n/a	n/a	n/a
S200214	Conflict_Resolution	LEFT	LEFT	473.540599999978	1450.0000029	n/a	n/a	2020-02-14 11:30:40.827896	2020-02-14 11:30:41.510241	52	5.68402198333333	True	n/a	n/a	n/a	n/a
S200214	Conflict_Resolution	RIGHT	RIGHT	416.280400000005	1033.3333354	n/a	n/a	2020-02-14 11:30:42.565464	2020-02-14 11:30:43.191785	53	5.68402198333333	False	n/a	n/a	n/a	n/a
S200214	Conflict_Resolution	LEFT	LEFT	562.603899999999	583.3333345	n/a	n/a	2020-02-14 11:30:43.795302	2020-02-14 11:30:44.565974	54	5.68402198333333	True	n/a	n/a	n/a	n/a
S200214	Conflict_Resolution	RIGHT	RIGHT	551.709100000039	833.333335	n/a	n/a	2020-02-14 11:30:45.422165	2020-02-14 11:30:46.182604	55	5.68402198333333	True	n/a	n/a	n/a	n/a
S200214	Conflict_Resolution	LEFT	LEFT	467.445999999995	516.6666677	n/a	n/a	2020-02-14 11:30:46.722192	2020-02-14 11:30:47.399481	56	5.68402198333333	True	n/a	n/a	n/a	n/a
S200214	Conflict_Resolution	RIGHT	RIGHT	343.624499999919	583.3333345	n/a	n/a	2020-02-14 11:30:48.005596	2020-02-14 11:30:48.560237	57	5.68402198333333	False	n/a	n/a	n/a	n/a
S200214	Conflict_Resolution	RIGHT	RIGHT	381.135300000096	700.0000014	n/a	n/a	2020-02-14 11:30:49.280435	2020-02-14 11:30:49.873198	58	5.68402198333333	False	n/a	n/a	n/a	n/a
S200214	Conflict_Resolution	RIGHT	RIGHT	388.084800000001	1333.333336	n/a	n/a	2020-02-14 11:30:51.225238	2020-02-14 11:30:51.822623	59	5.68402198333333	False	n/a	n/a	n/a	n/a
S200214	Conflict_Resolution	LEFT	LEFT	359.361900000067	1466.6666696	n/a	n/a	2020-02-14 11:30:53.310407	2020-02-14 11:30:53.878938	60	5.68402198333333	False	n/a	n/a	n/a	n/a
S200214	Conflict_Resolution	LEFT	LEFT	497.699699999998	616.6666679	n/a	n/a	2020-02-14 11:30:54.515248	2020-02-14 11:30:55.221863	61	5.68402198333333	True	n/a	n/a	n/a	n/a
S200214	Conflict_Resolution	LEFT	LEFT	400.068399999896	1066.6666688	n/a	n/a	2020-02-14 11:30:56.309759	2020-02-14 11:30:56.918130	62	5.68402198333333	False	n/a	n/a	n/a	n/a
S200214	Conflict_Resolution	LEFT	LEFT	531.347700000083	766.6666682	n/a	n/a	2020-02-14 11:30:57.706547	2020-02-14 11:30:58.446433	63	5.68402198333333	True	n/a	n/a	n/a	n/a
S200214	Conflict_Resolution	RIGHT	RIGHT	333.566700000006	1083.3333355	n/a	n/a	2020-02-14 11:30:59.552485	2020-02-14 11:31:00.093036	64	5.68402198333333	False	n/a	n/a	n/a	n/a
S200214	Conflict_Resolution	RIGHT	RIGHT	390.985399999977	1150.0000023	n/a	n/a	2020-02-14 11:31:01.271079	2020-02-14 11:31:01.872443	65	5.68402198333333	False	n/a	n/a	n/a	n/a
S200214	Conflict_Resolution	RIGHT	LEFT	431.372499999952	633.3333346	n/a	n/a	2020-02-14 11:31:02.525843	2020-02-14 11:31:03.171820	66	5.68402198333333	True	n/a	n/a	n/a	n/a
S200214	Conflict_Resolution	LEFT	LEFT	511.399399999959	566.6666678	n/a	n/a	2020-02-14 11:31:03.774222	2020-02-14 11:31:04.499969	67	5.68402198333333	True	n/a	n/a	n/a	n/a
S200214	Conflict_Resolution	LEFT	LEFT	421.627999999941	1166.666669	n/a	n/a	2020-02-14 11:31:05.687801	2020-02-14 11:31:06.319544	68	5.68402198333333	False	n/a	n/a	n/a	n/a
S200214	Conflict_Resolution	LEFT	LEFT	327.795400000014	900.0000018	n/a	n/a	2020-02-14 11:31:07.238159	2020-02-14 11:31:07.773748	69	5.68402198333333	False	n/a	n/a	n/a	n/a
S200214	Conflict_Resolution	RIGHT	RIGHT	552.951000000007	1083.3333355	n/a	n/a	2020-02-14 11:31:08.877074	2020-02-14 11:31:09.637632	70	5.68402198333333	True	n/a	n/a	n/a	n/a
S200214	Conflict_Resolution	RIGHT	RIGHT	474.130000000059	1433.3333362	n/a	n/a	2020-02-14 11:31:11.091340	2020-02-14 11:31:11.773888	71	5.68402198333333	True	n/a	n/a	n/a	n/a
S200214	Conflict_Resolution	RIGHT	RIGHT	405.015899999967	750.0000015	n/a	n/a	2020-02-14 11:31:12.544790	2020-02-14 11:31:13.158633	72	5.68402198333333	False	n/a	n/a	n/a	n/a
S200214	Conflict_Resolution	RIGHT	RIGHT	415.196700000024	500.000001	n/a	n/a	2020-02-14 11:31:13.677811	2020-02-14 11:31:14.301181	73	5.68402198333333	False	n/a	n/a	n/a	n/a
S200214	Conflict_Resolution	RIGHT	RIGHT	368.423200000052	1100.0000022	n/a	n/a	2020-02-14 11:31:15.420693	2020-02-14 11:31:15.997282	74	5.68402198333333	False	n/a	n/a	n/a	n/a
S200214	Conflict_Resolution	RIGHT	LEFT	407.884599999988	733.3333348	n/a	n/a	2020-02-14 11:31:16.750166	2020-02-14 11:31:17.365026	75	5.68402198333333	True	n/a	n/a	n/a	n/a
S200214	Conflict_Resolution	RIGHT	RIGHT	521.80270000008	1233.3333358	n/a	n/a	2020-02-14 11:31:18.620147	2020-02-14 11:31:19.350799	76	5.68402198333333	True	n/a	n/a	n/a	n/a
S200214	Conflict_Resolution	RIGHT	RIGHT	518.854600000054	500.000001	n/a	n/a	2020-02-14 11:31:19.870431	2020-02-14 11:31:20.597761	77	5.68402198333333	True	n/a	n/a	n/a	n/a
S200214	Conflict_Resolution	RIGHT	RIGHT	422.34140000005	533.3333344	n/a	n/a	2020-02-14 11:31:21.151262	2020-02-14 11:31:21.781741	78	5.68402198333333	True	n/a	n/a	n/a	n/a
S200214	Conflict_Resolution	RIGHT	RIGHT	400.542200000018	1266.6666692	n/a	n/a	2020-02-14 11:31:23.069359	2020-02-14 11:31:23.678816	79	5.68402198333333	False	n/a	n/a	n/a	n/a
S200214	Conflict_Resolution	RIGHT	RIGHT	629.207300000076	1333.333336	n/a	n/a	2020-02-14 11:31:25.032193	2020-02-14 11:31:25.870047	80	5.68402198333333	True	n/a	n/a	n/a	n/a
S200214	Conflict_Resolution	RIGHT	RIGHT	369.304100000022	1233.3333358	n/a	n/a	2020-02-14 11:31:27.124723	2020-02-14 11:31:27.702604	81	5.68402198333333	False	n/a	n/a	n/a	n/a
S200214	Conflict_Resolution	LEFT	LEFT	586.621899999955	1000.000002	n/a	n/a	2020-02-14 11:31:28.722628	2020-02-14 11:31:29.517235	82	5.68402198333333	True	n/a	n/a	n/a	n/a
S200214	Conflict_Resolution	RIGHT	RIGHT	494.15579999993	1183.3333357	n/a	n/a	2020-02-14 11:31:30.719812	2020-02-14 11:31:31.421271	83	5.68402198333333	True	n/a	n/a	n/a	n/a
S200214	Conflict_Resolution	LEFT	LEFT	385.656199999971	1416.6666695	n/a	n/a	2020-02-14 11:31:32.859627	2020-02-14 11:31:33.455988	84	5.68402198333333	False	n/a	n/a	n/a	n/a
S200214	Conflict_Resolution	LEFT	LEFT	561.957000000007	1416.6666695	n/a	n/a	2020-02-14 11:31:34.891088	2020-02-14 11:31:35.662213	85	5.68402198333333	True	n/a	n/a	n/a	n/a
S200214	Conflict_Resolution	LEFT	LEFT	477.147400000035	950.0000019	n/a	n/a	2020-02-14 11:31:36.632838	2020-02-14 11:31:37.318702	86	5.68402198333333	True	n/a	n/a	n/a	n/a
S200214	Conflict_Resolution	LEFT	LEFT	372.519499999953	766.6666682	n/a	n/a	2020-02-14 11:31:38.104865	2020-02-14 11:31:38.686285	87	5.68402198333333	False	n/a	n/a	n/a	n/a
S200214	Conflict_Resolution	RIGHT	RIGHT	389.423899999997	1383.3333361	n/a	n/a	2020-02-14 11:31:40.088649	2020-02-14 11:31:40.685236	88	5.68402198333333	False	n/a	n/a	n/a	n/a
S200214	Conflict_Resolution	RIGHT	RIGHT	360.518500000012	1283.3333359	n/a	n/a	2020-02-14 11:31:41.989253	2020-02-14 11:31:42.558531	89	5.68402198333333	False	n/a	n/a	n/a	n/a
S200214	Conflict_Resolution	RIGHT	RIGHT	408.946799999967	1216.6666691	n/a	n/a	2020-02-14 11:31:43.796681	2020-02-14 11:31:44.414676	90	5.68402198333333	False	n/a	n/a	n/a	n/a
S200214	Conflict_Resolution	RIGHT	RIGHT	445.540599999958	600.0000012	n/a	n/a	2020-02-14 11:31:45.031976	2020-02-14 11:31:45.685301	91	5.68402198333333	False	n/a	n/a	n/a	n/a
S200214	Conflict_Resolution	RIGHT	RIGHT	498.98769999993	850.0000017	n/a	n/a	2020-02-14 11:31:46.554981	2020-02-14 11:31:47.262195	92	5.68402198333333	True	n/a	n/a	n/a	n/a
S200214	Conflict_Resolution	RIGHT	RIGHT	485.264700000016	1000.000002	n/a	n/a	2020-02-14 11:31:48.279927	2020-02-14 11:31:48.974793	93	5.68402198333333	True	n/a	n/a	n/a	n/a
S200214	Conflict_Resolution	RIGHT	RIGHT	387.51329999991	800.0000016	n/a	n/a	2020-02-14 11:31:49.794426	2020-02-14 11:31:50.389847	94	5.68402198333333	False	n/a	n/a	n/a	n/a
S200214	Conflict_Resolution	RIGHT	RIGHT	626.29609999999	1266.6666692	n/a	n/a	2020-02-14 11:31:51.675439	2020-02-14 11:31:52.509932	95	5.68402198333333	True	n/a	n/a	n/a	n/a
S200214	Conflict_Resolution	LEFT	LEFT	481.971000000044	866.6666684	n/a	n/a	2020-02-14 11:31:53.396197	2020-02-14 11:31:54.086793	96	5.68402198333333	False	n/a	n/a	n/a	n/a
S200214	Conflict_Resolution	RIGHT	RIGHT	503.95309999999	1316.6666693	n/a	n/a	2020-02-14 11:31:55.421714	2020-02-14 11:31:56.134027	97	5.68402198333333	True	n/a	n/a	n/a	n/a
S200214	Conflict_Resolution	RIGHT	RIGHT	448.298399999999	1283.3333359	n/a	n/a	2020-02-14 11:31:57.437571	2020-02-14 11:31:58.092876	98	5.68402198333333	True	n/a	n/a	n/a	n/a
S200214	Conflict_Resolution	LEFT	LEFT	400.500800000032	1300.0000026	n/a	n/a	2020-02-14 11:31:59.413366	2020-02-14 11:32:00.021752	99	5.68402198333333	False	n/a	n/a	n/a	n/a
S200214	Conflict_Resolution	LEFT	LEFT	624.180199999955	683.3333347	n/a	n/a	2020-02-14 11:32:00.724914	2020-02-14 11:32:01.557416	100	5.68402198333333	True	n/a	n/a	n/a	n/a
S200214	Conflict_Resolution	LEFT	LEFT	447.508699999958	716.6666681	n/a	n/a	2020-02-14 11:32:02.293904	2020-02-14 11:32:02.950146	101	5.68402198333333	True	n/a	n/a	n/a	n/a
S200214	Conflict_Resolution	RIGHT	RIGHT	541.190899999947	1383.3333361	n/a	n/a	2020-02-14 11:32:04.352848	2020-02-14 11:32:05.101147	102	5.68402198333333	True	n/a	n/a	n/a	n/a
S200214	Conflict_Resolution	RIGHT	RIGHT	527.865199999951	1100.0000022	n/a	n/a	2020-02-14 11:32:06.221980	2020-02-14 11:32:06.958446	103	5.68402198333333	True	n/a	n/a	n/a	n/a
S200214	Conflict_Resolution	RIGHT	RIGHT	503.067600000008	1483.3333363	n/a	n/a	2020-02-14 11:32:08.462904	2020-02-14 11:32:09.174364	104	5.68402198333333	True	n/a	n/a	n/a	n/a
S200214	Conflict_Resolution	RIGHT	RIGHT	364.158800000041	1366.6666694	n/a	n/a	2020-02-14 11:32:10.561600	2020-02-14 11:32:11.133978	105	5.68402198333333	False	n/a	n/a	n/a	n/a
S200214	Conflict_Resolution	RIGHT	RIGHT	346.059200000013	850.0000017	n/a	n/a	2020-02-14 11:32:12.003410	2020-02-14 11:32:12.558676	106	5.68402198333333	False	n/a	n/a	n/a	n/a
S200214	Conflict_Resolution	LEFT	LEFT	395.674600000007	1000.000002	n/a	n/a	2020-02-14 11:32:13.577489	2020-02-14 11:32:14.180905	107	5.68402198333333	False	n/a	n/a	n/a	n/a
S200214	Conflict_Resolution	LEFT	LEFT	371.49629999999	816.6666683	n/a	n/a	2020-02-14 11:32:15.018225	2020-02-14 11:32:15.597199	108	5.68402198333333	False	n/a	n/a	n/a	n/a
S200214	Conflict_Resolution	RIGHT	RIGHT	555.879399999981	1216.6666691	n/a	n/a	2020-02-14 11:32:16.833944	2020-02-14 11:32:17.597591	109	5.68402198333333	True	n/a	n/a	n/a	n/a
S200214	Conflict_Resolution	LEFT	LEFT	401.419000000033	1316.6666693	n/a	n/a	2020-02-14 11:32:18.932166	2020-02-14 11:32:19.541884	110	5.68402198333333	False	n/a	n/a	n/a	n/a
S200214	Conflict_Resolution	LEFT	LEFT	465.10950000004	633.3333346	n/a	n/a	2020-02-14 11:32:20.196647	2020-02-14 11:32:20.869115	111	5.68402198333333	False	n/a	n/a	n/a	n/a
S200214	Conflict_Resolution	LEFT	LEFT	545.141899999976	1116.6666689	n/a	n/a	2020-02-14 11:32:22.004073	2020-02-14 11:32:22.758165	112	5.68402198333333	True	n/a	n/a	n/a	n/a
S200214	Conflict_Resolution	RIGHT	RIGHT	413.000600000032	983.3333353	n/a	n/a	2020-02-14 11:32:23.760511	2020-02-14 11:32:24.382649	113	5.68402198333333	False	n/a	n/a	n/a	n/a
S200214	Conflict_Resolution	LEFT	LEFT	353.812100000027	616.6666679	n/a	n/a	2020-02-14 11:32:25.019964	2020-02-14 11:32:25.582105	114	5.68402198333333	False	n/a	n/a	n/a	n/a
S200214	Conflict_Resolution	LEFT	LEFT	320.535000000064	1100.0000022	n/a	n/a	2020-02-14 11:32:26.701207	2020-02-14 11:32:27.231125	115	5.68402198333333	False	n/a	n/a	n/a	n/a
S200214	Conflict_Resolution	LEFT	RIGHT	366.775599999983	916.6666685	n/a	n/a	2020-02-14 11:32:28.167124	2020-02-14 11:32:28.740966	116	5.68402198333333	True	n/a	n/a	n/a	n/a
S200214	Conflict_Resolution	RIGHT	RIGHT	550.908100000015	1133.3333356	n/a	n/a	2020-02-14 11:32:29.894460	2020-02-14 11:32:30.654467	117	5.68402198333333	True	n/a	n/a	n/a	n/a
S200214	Conflict_Resolution	LEFT	LEFT	604.153300000007	633.3333346	n/a	n/a	2020-02-14 11:32:31.305707	2020-02-14 11:32:32.117033	118	5.68402198333333	True	n/a	n/a	n/a	n/a
S200214	Conflict_Resolution	RIGHT	RIGHT	600.264300000049	1366.6666694	n/a	n/a	2020-02-14 11:32:33.500905	2020-02-14 11:32:34.310777	119	5.68402198333333	True	n/a	n/a	n/a	n/a
S200214	Conflict_Resolution	LEFT	LEFT	391.957100000013	850.0000017	n/a	n/a	2020-02-14 11:32:35.181446	2020-02-14 11:32:35.782567	120	5.68402198333333	False	n/a	n/a	n/a	n/a
S200214	Conflict_Resolution	RIGHT	RIGHT	554.935600000022	650.0000013	n/a	n/a	2020-02-14 11:32:36.450792	2020-02-14 11:32:37.213812	121	5.68402198333333	True	n/a	n/a	n/a	n/a
S200214	Conflict_Resolution	LEFT	LEFT	374.60180000005	783.3333349	n/a	n/a	2020-02-14 11:32:38.014815	2020-02-14 11:32:38.597305	122	5.68402198333333	False	n/a	n/a	n/a	n/a
S200214	Conflict_Resolution	LEFT	LEFT	358.075699999972	566.6666678	n/a	n/a	2020-02-14 11:32:39.183458	2020-02-14 11:32:39.749425	123	5.68402198333333	False	n/a	n/a	n/a	n/a
S200214	Conflict_Resolution	RIGHT	RIGHT	419.660700000009	1433.3333362	n/a	n/a	2020-02-14 11:32:41.202204	2020-02-14 11:32:41.829884	124	5.68402198333333	False	n/a	n/a	n/a	n/a
S200214	Conflict_Resolution	RIGHT	RIGHT	397.903499999984	533.3333344	n/a	n/a	2020-02-14 11:32:42.383735	2020-02-14 11:32:42.990587	125	5.68402198333333	False	n/a	n/a	n/a	n/a
S200214	Conflict_Resolution	LEFT	LEFT	402.311499999996	1050.0000021	n/a	n/a	2020-02-14 11:32:44.058784	2020-02-14 11:32:44.669093	126	5.68402198333333	False	n/a	n/a	n/a	n/a
S200214	Conflict_Resolution	LEFT	LEFT	605.051300000014	783.3333349	n/a	n/a	2020-02-14 11:32:45.472652	2020-02-14 11:32:46.285227	127	5.68402198333333	True	n/a	n/a	n/a	n/a
S200214	Conflict_Resolution	LEFT	LEFT	473.627800000031	1300.0000026	n/a	n/a	2020-02-14 11:32:47.603960	2020-02-14 11:32:48.285145	128	5.68402198333333	True	n/a	n/a	n/a	n/a
S200214	Conflict_Resolution	LEFT	LEFT	479.052199999956	533.3333344	n/a	n/a	2020-02-14 11:32:48.838024	2020-02-14 11:32:49.526487	129	5.68402198333333	True	n/a	n/a	n/a	n/a
S200214	Conflict_Resolution	LEFT	LEFT	333.857899999998	1150.0000023	n/a	n/a	2020-02-14 11:32:50.703480	2020-02-14 11:32:51.246016	130	5.68402198333333	False	n/a	n/a	n/a	n/a
S200214	Conflict_Resolution	LEFT	LEFT	500.276100000065	966.6666686	n/a	n/a	2020-02-14 11:32:52.233378	2020-02-14 11:32:52.941494	131	5.68402198333333	True	n/a	n/a	n/a	n/a
S200214	Conflict_Resolution	LEFT	LEFT	354.142300000035	1400.0000028	n/a	n/a	2020-02-14 11:32:54.363308	2020-02-14 11:32:54.926289	132	5.68402198333333	False	n/a	n/a	n/a	n/a
S200214	Conflict_Resolution	RIGHT	RIGHT	563.942300000008	550.0000011	n/a	n/a	2020-02-14 11:32:55.497419	2020-02-14 11:32:56.270538	133	5.68402198333333	True	n/a	n/a	n/a	n/a
S200214	Conflict_Resolution	LEFT	LEFT	358.461200000079	1116.6666689	n/a	n/a	2020-02-14 11:32:57.407473	2020-02-14 11:32:57.974306	134	5.68402198333333	False	n/a	n/a	n/a	n/a
S200214	Conflict_Resolution	RIGHT	RIGHT	407.692999999995	1316.6666693	n/a	n/a	2020-02-14 11:32:59.309345	2020-02-14 11:32:59.925878	135	5.68402198333333	False	n/a	n/a	n/a	n/a
S200214	Conflict_Resolution	LEFT	LEFT	547.358599999939	1400.0000028	n/a	n/a	2020-02-14 11:33:01.346162	2020-02-14 11:33:02.101649	136	5.68402198333333	True	n/a	n/a	n/a	n/a
S200214	Conflict_Resolution	RIGHT	RIGHT	366.593800000032	550.0000011	n/a	n/a	2020-02-14 11:33:02.671331	2020-02-14 11:33:03.245937	137	5.68402198333333	False	n/a	n/a	n/a	n/a
S200214	Conflict_Resolution	LEFT	LEFT	337.521599999945	666.666668	n/a	n/a	2020-02-14 11:33:03.932090	2020-02-14 11:33:04.478106	138	5.68402198333333	False	n/a	n/a	n/a	n/a
S200214	Conflict_Resolution	RIGHT	RIGHT	475.174100000004	800.0000016	n/a	n/a	2020-02-14 11:33:05.298177	2020-02-14 11:33:05.981369	139	5.68402198333333	True	n/a	n/a	n/a	n/a
S200214	Conflict_Resolution	LEFT	LEFT	370.262099999991	1250.0000025	n/a	n/a	2020-02-14 11:33:07.251300	2020-02-14 11:33:07.829742	140	5.68402198333333	False	n/a	n/a	n/a	n/a
S200214	Conflict_Resolution	RIGHT	RIGHT	362.099199999989	1050.0000021	n/a	n/a	2020-02-14 11:33:08.899854	2020-02-14 11:33:09.470345	141	5.68402198333333	False	n/a	n/a	n/a	n/a
S200214	Conflict_Resolution	RIGHT	RIGHT	618.428300000005	1416.6666695	n/a	n/a	2020-02-14 11:33:10.907548	2020-02-14 11:33:11.734178	142	5.68402198333333	True	n/a	n/a	n/a	n/a
S200214	Conflict_Resolution	RIGHT	RIGHT	435.353699999951	1416.6666695	n/a	n/a	2020-02-14 11:33:13.170627	2020-02-14 11:33:13.814725	143	5.68402198333333	False	n/a	n/a	n/a	n/a
S200214	Conflict_Resolution	LEFT	LEFT	466.846500000088	1016.6666687	n/a	n/a	2020-02-14 11:33:14.850453	2020-02-14 11:33:15.524990	144	5.68402198333333	False	n/a	n/a	n/a	n/a
S200214	Conflict_Resolution	LEFT	LEFT	576.788599999986	1316.6666693	n/a	n/a	2020-02-14 11:33:16.860531	2020-02-14 11:33:17.646632	145	5.68402198333333	True	n/a	n/a	n/a	n/a
S200214	Conflict_Resolution	RIGHT	RIGHT	561.092600000052	1033.3333354	n/a	n/a	2020-02-14 11:33:18.700905	2020-02-14 11:33:19.470130	146	5.68402198333333	True	n/a	n/a	n/a	n/a
S200214	Conflict_Resolution	RIGHT	RIGHT	419.755399999985	833.333335	n/a	n/a	2020-02-14 11:33:20.321899	2020-02-14 11:33:20.949758	147	5.68402198333333	False	n/a	n/a	n/a	n/a
S200214	Conflict_Resolution	LEFT	LEFT	536.706099999947	1266.6666692	n/a	n/a	2020-02-14 11:33:22.236965	2020-02-14 11:33:22.983318	148	5.68402198333333	True	n/a	n/a	n/a	n/a
S200214	Conflict_Resolution	RIGHT	RIGHT	575.764199999981	700.0000014	n/a	n/a	2020-02-14 11:33:23.701490	2020-02-14 11:33:24.486498	149	5.68402198333333	True	n/a	n/a	n/a	n/a
S200214	Conflict_Resolution	LEFT	LEFT	497.883600000023	1050.0000021	n/a	n/a	2020-02-14 11:33:25.555748	2020-02-14 11:33:26.260904	150	5.68402198333333	True	n/a	n/a	n/a	n/a
S200214	Conflict_Resolution	RIGHT	RIGHT	367.232899999976	950.0000019	n/a	n/a	2020-02-14 11:33:27.230823	2020-02-14 11:33:27.806333	151	5.68402198333333	False	n/a	n/a	n/a	n/a
S200214	Conflict_Resolution	RIGHT	RIGHT	351.756899999941	900.0000018	n/a	n/a	2020-02-14 11:33:28.725903	2020-02-14 11:33:29.288491	152	5.68402198333333	False	n/a	n/a	n/a	n/a
S200214	Conflict_Resolution	LEFT	LEFT	430.258800000047	683.3333347	n/a	n/a	2020-02-14 11:33:29.991614	2020-02-14 11:33:30.629232	153	5.68402198333333	False	n/a	n/a	n/a	n/a
S200214	Conflict_Resolution	RIGHT	RIGHT	533.626400000003	583.3333345	n/a	n/a	2020-02-14 11:33:31.232162	2020-02-14 11:33:31.973359	154	5.68402198333333	True	n/a	n/a	n/a	n/a
S200214	Conflict_Resolution	RIGHT	RIGHT	478.853100000038	950.0000019	n/a	n/a	2020-02-14 11:33:32.942484	2020-02-14 11:33:33.629904	155	5.68402198333333	True	n/a	n/a	n/a	n/a
S200214	Conflict_Resolution	LEFT	LEFT	380.100799999923	583.3333345	n/a	n/a	2020-02-14 11:33:34.233277	2020-02-14 11:33:34.821188	156	5.68402198333333	False	n/a	n/a	n/a	n/a
S200214	Conflict_Resolution	LEFT	LEFT	479.493599999955	1366.6666694	n/a	n/a	2020-02-14 11:33:36.206048	2020-02-14 11:33:36.894568	157	5.68402198333333	True	n/a	n/a	n/a	n/a
S200214	Conflict_Resolution	LEFT	LEFT	391.686299999947	1500.000003	n/a	n/a	2020-02-14 11:33:38.413525	2020-02-14 11:33:39.014318	158	5.68402198333333	False	n/a	n/a	n/a	n/a
S200214	Conflict_Resolution	RIGHT	RIGHT	409.17689999992	1466.6666696	n/a	n/a	2020-02-14 11:33:40.500109	2020-02-14 11:33:41.117374	159	5.68402198333333	False	n/a	n/a	n/a	n/a
S200214	Conflict_Resolution	RIGHT	LEFT	438.512599999967	750.0000015	n/a	n/a	2020-02-14 11:33:41.887314	2020-02-14 11:33:42.533377	160	5.68402198333333	True	n/a	n/a	n/a	n/a
