"Participant"	"Task"	"Stimulus_Side"	"Response"	"RT"	"ITI"	"Previous_Response"	"Previous_RT"	"Stop_Signal"	"Stop_Signal_RT"	"Conflict"	"Cue_Response"	"Cue_Response_RT"	"Trial_Onset"	"Trial_End"	"Trial_Order"	"Duration"
"S200214"	"Conflict_Resolution"	"RIGHT"	"RIGHT"	1119.56439999994	883.3333351	n/a	n/a	n/a	n/a	"False"	n/a	n/a	"2020-02-14 11:29:09.878283"	"2020-02-14 11:29:11.207928"	1	5.68402198333333
"S200214"	"Conflict_Resolution"	"LEFT"	"RIGHT"	975.085799999988	1250.0000025	n/a	n/a	n/a	n/a	"True"	n/a	n/a	"2020-02-14 11:29:12.478187"	"2020-02-14 11:29:13.661743"	2	5.68402198333333
"S200214"	"Conflict_Resolution"	"RIGHT"	"LEFT"	885.125700000003	600.0000012	n/a	n/a	n/a	n/a	"True"	n/a	n/a	"2020-02-14 11:29:14.280618"	"2020-02-14 11:29:15.373920"	3	5.68402198333333
"S200214"	"Conflict_Resolution"	"RIGHT"	"RIGHT"	714.435999999978	650.0000013	n/a	n/a	n/a	n/a	"False"	n/a	n/a	"2020-02-14 11:29:16.043630"	"2020-02-14 11:29:16.965374"	4	5.68402198333333
"S200214"	"Conflict_Resolution"	"RIGHT"	"LEFT"	825.941599999965	1466.6666696	n/a	n/a	n/a	n/a	"True"	n/a	n/a	"2020-02-14 11:29:18.451415"	"2020-02-14 11:29:19.485431"	5	5.68402198333333
"S200214"	"Conflict_Resolution"	"LEFT"	"LEFT"	1326.92249999991	716.6666681	n/a	n/a	n/a	n/a	"False"	n/a	n/a	"2020-02-14 11:29:20.223116"	"2020-02-14 11:29:21.759764"	6	5.68402198333333
"S200214"	"Conflict_Resolution"	"LEFT"	"LEFT"	1450.05839999999	850.0000017	n/a	n/a	n/a	n/a	"True"	n/a	n/a	"2020-02-14 11:29:22.627932"	"2020-02-14 11:29:24.286164"	7	5.68402198333333
"S200214"	"Conflict_Resolution"	"LEFT"	"LEFT"	622.587700000054	1150.0000023	n/a	n/a	n/a	n/a	"True"	n/a	n/a	"2020-02-14 11:29:25.455105"	"2020-02-14 11:29:26.286414"	8	5.68402198333333
"S200214"	"Conflict_Resolution"	"LEFT"	"LEFT"	425.316400000042	1466.6666696	n/a	n/a	n/a	n/a	"True"	n/a	n/a	"2020-02-14 11:29:27.772874"	"2020-02-14 11:29:28.404855"	9	5.68402198333333
"S200214"	"Conflict_Resolution"	"LEFT"	"LEFT"	415.691200000083	516.6666677	n/a	n/a	n/a	n/a	"False"	n/a	n/a	"2020-02-14 11:29:28.942374"	"2020-02-14 11:29:29.566490"	10	5.68402198333333
"S200214"	"Conflict_Resolution"	"LEFT"	"RIGHT"	387.330800000086	1216.6666691	n/a	n/a	n/a	n/a	"True"	n/a	n/a	"2020-02-14 11:29:30.802755"	"2020-02-14 11:29:31.397764"	11	5.68402198333333
"S200214"	"Conflict_Resolution"	"RIGHT"	"RIGHT"	1149.08739999998	783.3333349	n/a	n/a	n/a	n/a	"True"	n/a	n/a	"2020-02-14 11:29:32.201005"	"2020-02-14 11:29:33.558777"	12	5.68402198333333
"S200214"	"Conflict_Resolution"	"RIGHT"	"RIGHT"	465.828399999964	1483.3333363	n/a	n/a	n/a	n/a	"False"	n/a	n/a	"2020-02-14 11:29:35.059689"	"2020-02-14 11:29:35.733946"	13	5.68402198333333
"S200214"	"Conflict_Resolution"	"LEFT"	"LEFT"	593.27200000007	666.666668	n/a	n/a	n/a	n/a	"True"	n/a	n/a	"2020-02-14 11:29:36.420620"	"2020-02-14 11:29:37.223446"	14	5.68402198333333
"S200214"	"Conflict_Resolution"	"LEFT"	"LEFT"	375.239699999952	916.6666685	n/a	n/a	n/a	n/a	"False"	n/a	n/a	"2020-02-14 11:29:38.158457"	"2020-02-14 11:29:38.741719"	15	5.68402198333333
"S200214"	"Conflict_Resolution"	"LEFT"	"LEFT"	403.701400000045	1216.6666691	n/a	n/a	n/a	n/a	"False"	n/a	n/a	"2020-02-14 11:29:39.978458"	"2020-02-14 11:29:40.589871"	16	5.68402198333333
"S200214"	"Conflict_Resolution"	"RIGHT"	"RIGHT"	536.945399999922	683.3333347	n/a	n/a	n/a	n/a	"True"	n/a	n/a	"2020-02-14 11:29:41.293051"	"2020-02-14 11:29:42.038791"	17	5.68402198333333
"S200214"	"Conflict_Resolution"	"RIGHT"	"RIGHT"	547.55190000003	1150.0000023	n/a	n/a	n/a	n/a	"True"	n/a	n/a	"2020-02-14 11:29:43.209642"	"2020-02-14 11:29:43.966562"	18	5.68402198333333
"S200214"	"Conflict_Resolution"	"LEFT"	"LEFT"	457.071600000063	816.6666683	n/a	n/a	n/a	n/a	"True"	n/a	n/a	"2020-02-14 11:29:44.804174"	"2020-02-14 11:29:45.470792"	19	5.68402198333333
"S200214"	"Conflict_Resolution"	"LEFT"	"LEFT"	541.732499999966	1350.0000027	n/a	n/a	n/a	n/a	"True"	n/a	n/a	"2020-02-14 11:29:46.839660"	"2020-02-14 11:29:47.589293"	20	5.68402198333333
"S200214"	"Conflict_Resolution"	"LEFT"	"LEFT"	372.818999999936	1366.6666694	n/a	n/a	n/a	n/a	"False"	n/a	n/a	"2020-02-14 11:29:48.976517"	"2020-02-14 11:29:49.558098"	21	5.68402198333333
"S200214"	"Conflict_Resolution"	"LEFT"	"LEFT"	421.477600000003	533.3333344	n/a	n/a	n/a	n/a	"False"	n/a	n/a	"2020-02-14 11:29:50.112388"	"2020-02-14 11:29:50.742294"	22	5.68402198333333
"S200214"	"Conflict_Resolution"	"RIGHT"	"RIGHT"	356.493	633.3333346	n/a	n/a	n/a	n/a	"False"	n/a	n/a	"2020-02-14 11:29:51.392580"	"2020-02-14 11:29:51.958266"	23	5.68402198333333
"S200214"	"Conflict_Resolution"	"LEFT"	"LEFT"	425.450499999897	1100.0000022	n/a	n/a	n/a	n/a	"True"	n/a	n/a	"2020-02-14 11:29:53.076366"	"2020-02-14 11:29:53.709235"	24	5.68402198333333
"S200214"	"Conflict_Resolution"	"LEFT"	"LEFT"	372.738499999969	1200.0000024	n/a	n/a	n/a	n/a	"False"	n/a	n/a	"2020-02-14 11:29:54.929101"	"2020-02-14 11:29:55.510708"	25	5.68402198333333
"S200214"	"Conflict_Resolution"	"LEFT"	"LEFT"	334.222999999952	733.3333348	n/a	n/a	n/a	n/a	"False"	n/a	n/a	"2020-02-14 11:29:56.263184"	"2020-02-14 11:29:56.805816"	26	5.68402198333333
"S200214"	"Conflict_Resolution"	"LEFT"	"RIGHT"	376.458899999989	1500.000003	n/a	n/a	n/a	n/a	"True"	n/a	n/a	"2020-02-14 11:29:58.325504"	"2020-02-14 11:29:58.909545"	27	5.68402198333333
"S200214"	"Conflict_Resolution"	"LEFT"	"LEFT"	554.775599999971	1066.6666688	n/a	n/a	n/a	n/a	"True"	n/a	n/a	"2020-02-14 11:29:59.995240"	"2020-02-14 11:30:00.757787"	28	5.68402198333333
"S200214"	"Conflict_Resolution"	"RIGHT"	"RIGHT"	554.638800000021	1050.0000021	n/a	n/a	n/a	n/a	"True"	n/a	n/a	"2020-02-14 11:30:01.827432"	"2020-02-14 11:30:02.590683"	29	5.68402198333333
"S200214"	"Conflict_Resolution"	"RIGHT"	"RIGHT"	559.551100000022	900.0000018	n/a	n/a	n/a	n/a	"True"	n/a	n/a	"2020-02-14 11:30:03.509546"	"2020-02-14 11:30:04.278227"	30	5.68402198333333
"S200214"	"Conflict_Resolution"	"LEFT"	"LEFT"	553.474199999982	866.6666684	n/a	n/a	n/a	n/a	"True"	n/a	n/a	"2020-02-14 11:30:05.164169"	"2020-02-14 11:30:05.926511"	31	5.68402198333333
"S200214"	"Conflict_Resolution"	"LEFT"	"LEFT"	484.784800000057	1200.0000024	n/a	n/a	n/a	n/a	"True"	n/a	n/a	"2020-02-14 11:30:07.145172"	"2020-02-14 11:30:07.840622"	32	5.68402198333333
"S200214"	"Conflict_Resolution"	"RIGHT"	"RIGHT"	452.968600000077	733.3333348	n/a	n/a	n/a	n/a	"False"	n/a	n/a	"2020-02-14 11:30:08.592821"	"2020-02-14 11:30:09.253378"	33	5.68402198333333
"S200214"	"Conflict_Resolution"	"LEFT"	"LEFT"	317.572500000097	950.0000019	n/a	n/a	n/a	n/a	"False"	n/a	n/a	"2020-02-14 11:30:10.224341"	"2020-02-14 11:30:10.749512"	34	5.68402198333333
"S200214"	"Conflict_Resolution"	"LEFT"	"LEFT"	326.441900000077	966.6666686	n/a	n/a	n/a	n/a	"False"	n/a	n/a	"2020-02-14 11:30:11.735624"	"2020-02-14 11:30:12.269491"	35	5.68402198333333
"S200214"	"Conflict_Resolution"	"RIGHT"	"RIGHT"	575.827400000094	933.3333352	n/a	n/a	n/a	n/a	"True"	n/a	n/a	"2020-02-14 11:30:13.221995"	"2020-02-14 11:30:14.005082"	36	5.68402198333333
"S200214"	"Conflict_Resolution"	"LEFT"	"LEFT"	353.024600000026	1266.6666692	n/a	n/a	n/a	n/a	"False"	n/a	n/a	"2020-02-14 11:30:15.292731"	"2020-02-14 11:30:15.853807"	37	5.68402198333333
"S200214"	"Conflict_Resolution"	"RIGHT"	"RIGHT"	544.581600000015	883.3333351	n/a	n/a	n/a	n/a	"True"	n/a	n/a	"2020-02-14 11:30:16.756625"	"2020-02-14 11:30:17.510048"	38	5.68402198333333
"S200214"	"Conflict_Resolution"	"LEFT"	"LEFT"	339.850999999953	1350.0000027	n/a	n/a	n/a	n/a	"False"	n/a	n/a	"2020-02-14 11:30:18.881974"	"2020-02-14 11:30:19.430381"	39	5.68402198333333
"S200214"	"Conflict_Resolution"	"RIGHT"	"RIGHT"	372.637199999986	1183.3333357	n/a	n/a	n/a	n/a	"False"	n/a	n/a	"2020-02-14 11:30:20.633302"	"2020-02-14 11:30:21.215108"	40	5.68402198333333
"S200214"	"Conflict_Resolution"	"RIGHT"	"RIGHT"	386.955300000068	1000.000002	n/a	n/a	n/a	n/a	"False"	n/a	n/a	"2020-02-14 11:30:22.235177"	"2020-02-14 11:30:22.830183"	41	5.68402198333333
"S200214"	"Conflict_Resolution"	"LEFT"	"LEFT"	362.080900000024	1450.0000029	n/a	n/a	n/a	n/a	"False"	n/a	n/a	"2020-02-14 11:30:24.299847"	"2020-02-14 11:30:24.869985"	42	5.68402198333333
"S200214"	"Conflict_Resolution"	"RIGHT"	"RIGHT"	395.599500000003	783.3333349	n/a	n/a	n/a	n/a	"False"	n/a	n/a	"2020-02-14 11:30:25.674067"	"2020-02-14 11:30:26.276886"	43	5.68402198333333
"S200214"	"Conflict_Resolution"	"RIGHT"	"RIGHT"	581.976699999927	983.3333353	n/a	n/a	n/a	n/a	"True"	n/a	n/a	"2020-02-14 11:30:27.279725"	"2020-02-14 11:30:28.069227"	44	5.68402198333333
"S200214"	"Conflict_Resolution"	"LEFT"	"LEFT"	480.675000000019	900.0000018	n/a	n/a	n/a	n/a	"True"	n/a	n/a	"2020-02-14 11:30:28.988748"	"2020-02-14 11:30:29.680339"	45	5.68402198333333
"S200214"	"Conflict_Resolution"	"LEFT"	"LEFT"	593.538400000057	1016.6666687	n/a	n/a	n/a	n/a	"True"	n/a	n/a	"2020-02-14 11:30:30.716339"	"2020-02-14 11:30:31.519798"	46	5.68402198333333
"S200214"	"Conflict_Resolution"	"RIGHT"	"RIGHT"	376.069400000006	683.3333347	n/a	n/a	n/a	n/a	"False"	n/a	n/a	"2020-02-14 11:30:32.221437"	"2020-02-14 11:30:32.806680"	47	5.68402198333333
"S200214"	"Conflict_Resolution"	"LEFT"	"LEFT"	397.050300000046	1166.666669	n/a	n/a	n/a	n/a	"True"	n/a	n/a	"2020-02-14 11:30:33.992987"	"2020-02-14 11:30:34.598211"	48	5.68402198333333
"S200214"	"Conflict_Resolution"	"LEFT"	"LEFT"	437.046599999917	733.3333348	n/a	n/a	n/a	n/a	"True"	n/a	n/a	"2020-02-14 11:30:35.352870"	"2020-02-14 11:30:35.999482"	49	5.68402198333333
"S200214"	"Conflict_Resolution"	"RIGHT"	"RIGHT"	387.763299999961	933.3333352	n/a	n/a	n/a	n/a	"False"	n/a	n/a	"2020-02-14 11:30:36.954063"	"2020-02-14 11:30:37.550803"	50	5.68402198333333
"S200214"	"Conflict_Resolution"	"RIGHT"	"RIGHT"	442.876500000011	1133.3333356	n/a	n/a	n/a	n/a	"False"	n/a	n/a	"2020-02-14 11:30:38.707193"	"2020-02-14 11:30:39.359449"	51	5.68402198333333
"S200214"	"Conflict_Resolution"	"LEFT"	"LEFT"	473.540599999978	1450.0000029	n/a	n/a	n/a	n/a	"True"	n/a	n/a	"2020-02-14 11:30:40.827896"	"2020-02-14 11:30:41.510241"	52	5.68402198333333
"S200214"	"Conflict_Resolution"	"RIGHT"	"RIGHT"	416.280400000005	1033.3333354	n/a	n/a	n/a	n/a	"False"	n/a	n/a	"2020-02-14 11:30:42.565464"	"2020-02-14 11:30:43.191785"	53	5.68402198333333
"S200214"	"Conflict_Resolution"	"LEFT"	"LEFT"	562.603899999999	583.3333345	n/a	n/a	n/a	n/a	"True"	n/a	n/a	"2020-02-14 11:30:43.795302"	"2020-02-14 11:30:44.565974"	54	5.68402198333333
"S200214"	"Conflict_Resolution"	"RIGHT"	"RIGHT"	551.709100000039	833.333335	n/a	n/a	n/a	n/a	"True"	n/a	n/a	"2020-02-14 11:30:45.422165"	"2020-02-14 11:30:46.182604"	55	5.68402198333333
"S200214"	"Conflict_Resolution"	"LEFT"	"LEFT"	467.445999999995	516.6666677	n/a	n/a	n/a	n/a	"True"	n/a	n/a	"2020-02-14 11:30:46.722192"	"2020-02-14 11:30:47.399481"	56	5.68402198333333
"S200214"	"Conflict_Resolution"	"RIGHT"	"RIGHT"	343.624499999919	583.3333345	n/a	n/a	n/a	n/a	"False"	n/a	n/a	"2020-02-14 11:30:48.005596"	"2020-02-14 11:30:48.560237"	57	5.68402198333333
"S200214"	"Conflict_Resolution"	"RIGHT"	"RIGHT"	381.135300000096	700.0000014	n/a	n/a	n/a	n/a	"False"	n/a	n/a	"2020-02-14 11:30:49.280435"	"2020-02-14 11:30:49.873198"	58	5.68402198333333
"S200214"	"Conflict_Resolution"	"RIGHT"	"RIGHT"	388.084800000001	1333.333336	n/a	n/a	n/a	n/a	"False"	n/a	n/a	"2020-02-14 11:30:51.225238"	"2020-02-14 11:30:51.822623"	59	5.68402198333333
"S200214"	"Conflict_Resolution"	"LEFT"	"LEFT"	359.361900000067	1466.6666696	n/a	n/a	n/a	n/a	"False"	n/a	n/a	"2020-02-14 11:30:53.310407"	"2020-02-14 11:30:53.878938"	60	5.68402198333333
"S200214"	"Conflict_Resolution"	"LEFT"	"LEFT"	497.699699999998	616.6666679	n/a	n/a	n/a	n/a	"True"	n/a	n/a	"2020-02-14 11:30:54.515248"	"2020-02-14 11:30:55.221863"	61	5.68402198333333
"S200214"	"Conflict_Resolution"	"LEFT"	"LEFT"	400.068399999896	1066.6666688	n/a	n/a	n/a	n/a	"False"	n/a	n/a	"2020-02-14 11:30:56.309759"	"2020-02-14 11:30:56.918130"	62	5.68402198333333
"S200214"	"Conflict_Resolution"	"LEFT"	"LEFT"	531.347700000083	766.6666682	n/a	n/a	n/a	n/a	"True"	n/a	n/a	"2020-02-14 11:30:57.706547"	"2020-02-14 11:30:58.446433"	63	5.68402198333333
"S200214"	"Conflict_Resolution"	"RIGHT"	"RIGHT"	333.566700000006	1083.3333355	n/a	n/a	n/a	n/a	"False"	n/a	n/a	"2020-02-14 11:30:59.552485"	"2020-02-14 11:31:00.093036"	64	5.68402198333333
"S200214"	"Conflict_Resolution"	"RIGHT"	"RIGHT"	390.985399999977	1150.0000023	n/a	n/a	n/a	n/a	"False"	n/a	n/a	"2020-02-14 11:31:01.271079"	"2020-02-14 11:31:01.872443"	65	5.68402198333333
"S200214"	"Conflict_Resolution"	"RIGHT"	"LEFT"	431.372499999952	633.3333346	n/a	n/a	n/a	n/a	"True"	n/a	n/a	"2020-02-14 11:31:02.525843"	"2020-02-14 11:31:03.171820"	66	5.68402198333333
"S200214"	"Conflict_Resolution"	"LEFT"	"LEFT"	511.399399999959	566.6666678	n/a	n/a	n/a	n/a	"True"	n/a	n/a	"2020-02-14 11:31:03.774222"	"2020-02-14 11:31:04.499969"	67	5.68402198333333
"S200214"	"Conflict_Resolution"	"LEFT"	"LEFT"	421.627999999941	1166.666669	n/a	n/a	n/a	n/a	"False"	n/a	n/a	"2020-02-14 11:31:05.687801"	"2020-02-14 11:31:06.319544"	68	5.68402198333333
"S200214"	"Conflict_Resolution"	"LEFT"	"LEFT"	327.795400000014	900.0000018	n/a	n/a	n/a	n/a	"False"	n/a	n/a	"2020-02-14 11:31:07.238159"	"2020-02-14 11:31:07.773748"	69	5.68402198333333
"S200214"	"Conflict_Resolution"	"RIGHT"	"RIGHT"	552.951000000007	1083.3333355	n/a	n/a	n/a	n/a	"True"	n/a	n/a	"2020-02-14 11:31:08.877074"	"2020-02-14 11:31:09.637632"	70	5.68402198333333
"S200214"	"Conflict_Resolution"	"RIGHT"	"RIGHT"	474.130000000059	1433.3333362	n/a	n/a	n/a	n/a	"True"	n/a	n/a	"2020-02-14 11:31:11.091340"	"2020-02-14 11:31:11.773888"	71	5.68402198333333
"S200214"	"Conflict_Resolution"	"RIGHT"	"RIGHT"	405.015899999967	750.0000015	n/a	n/a	n/a	n/a	"False"	n/a	n/a	"2020-02-14 11:31:12.544790"	"2020-02-14 11:31:13.158633"	72	5.68402198333333
"S200214"	"Conflict_Resolution"	"RIGHT"	"RIGHT"	415.196700000024	500.000001	n/a	n/a	n/a	n/a	"False"	n/a	n/a	"2020-02-14 11:31:13.677811"	"2020-02-14 11:31:14.301181"	73	5.68402198333333
"S200214"	"Conflict_Resolution"	"RIGHT"	"RIGHT"	368.423200000052	1100.0000022	n/a	n/a	n/a	n/a	"False"	n/a	n/a	"2020-02-14 11:31:15.420693"	"2020-02-14 11:31:15.997282"	74	5.68402198333333
"S200214"	"Conflict_Resolution"	"RIGHT"	"LEFT"	407.884599999988	733.3333348	n/a	n/a	n/a	n/a	"True"	n/a	n/a	"2020-02-14 11:31:16.750166"	"2020-02-14 11:31:17.365026"	75	5.68402198333333
"S200214"	"Conflict_Resolution"	"RIGHT"	"RIGHT"	521.80270000008	1233.3333358	n/a	n/a	n/a	n/a	"True"	n/a	n/a	"2020-02-14 11:31:18.620147"	"2020-02-14 11:31:19.350799"	76	5.68402198333333
"S200214"	"Conflict_Resolution"	"RIGHT"	"RIGHT"	518.854600000054	500.000001	n/a	n/a	n/a	n/a	"True"	n/a	n/a	"2020-02-14 11:31:19.870431"	"2020-02-14 11:31:20.597761"	77	5.68402198333333
"S200214"	"Conflict_Resolution"	"RIGHT"	"RIGHT"	422.34140000005	533.3333344	n/a	n/a	n/a	n/a	"True"	n/a	n/a	"2020-02-14 11:31:21.151262"	"2020-02-14 11:31:21.781741"	78	5.68402198333333
"S200214"	"Conflict_Resolution"	"RIGHT"	"RIGHT"	400.542200000018	1266.6666692	n/a	n/a	n/a	n/a	"False"	n/a	n/a	"2020-02-14 11:31:23.069359"	"2020-02-14 11:31:23.678816"	79	5.68402198333333
"S200214"	"Conflict_Resolution"	"RIGHT"	"RIGHT"	629.207300000076	1333.333336	n/a	n/a	n/a	n/a	"True"	n/a	n/a	"2020-02-14 11:31:25.032193"	"2020-02-14 11:31:25.870047"	80	5.68402198333333
"S200214"	"Conflict_Resolution"	"RIGHT"	"RIGHT"	369.304100000022	1233.3333358	n/a	n/a	n/a	n/a	"False"	n/a	n/a	"2020-02-14 11:31:27.124723"	"2020-02-14 11:31:27.702604"	81	5.68402198333333
"S200214"	"Conflict_Resolution"	"LEFT"	"LEFT"	586.621899999955	1000.000002	n/a	n/a	n/a	n/a	"True"	n/a	n/a	"2020-02-14 11:31:28.722628"	"2020-02-14 11:31:29.517235"	82	5.68402198333333
"S200214"	"Conflict_Resolution"	"RIGHT"	"RIGHT"	494.15579999993	1183.3333357	n/a	n/a	n/a	n/a	"True"	n/a	n/a	"2020-02-14 11:31:30.719812"	"2020-02-14 11:31:31.421271"	83	5.68402198333333
"S200214"	"Conflict_Resolution"	"LEFT"	"LEFT"	385.656199999971	1416.6666695	n/a	n/a	n/a	n/a	"False"	n/a	n/a	"2020-02-14 11:31:32.859627"	"2020-02-14 11:31:33.455988"	84	5.68402198333333
"S200214"	"Conflict_Resolution"	"LEFT"	"LEFT"	561.957000000007	1416.6666695	n/a	n/a	n/a	n/a	"True"	n/a	n/a	"2020-02-14 11:31:34.891088"	"2020-02-14 11:31:35.662213"	85	5.68402198333333
"S200214"	"Conflict_Resolution"	"LEFT"	"LEFT"	477.147400000035	950.0000019	n/a	n/a	n/a	n/a	"True"	n/a	n/a	"2020-02-14 11:31:36.632838"	"2020-02-14 11:31:37.318702"	86	5.68402198333333
"S200214"	"Conflict_Resolution"	"LEFT"	"LEFT"	372.519499999953	766.6666682	n/a	n/a	n/a	n/a	"False"	n/a	n/a	"2020-02-14 11:31:38.104865"	"2020-02-14 11:31:38.686285"	87	5.68402198333333
"S200214"	"Conflict_Resolution"	"RIGHT"	"RIGHT"	389.423899999997	1383.3333361	n/a	n/a	n/a	n/a	"False"	n/a	n/a	"2020-02-14 11:31:40.088649"	"2020-02-14 11:31:40.685236"	88	5.68402198333333
"S200214"	"Conflict_Resolution"	"RIGHT"	"RIGHT"	360.518500000012	1283.3333359	n/a	n/a	n/a	n/a	"False"	n/a	n/a	"2020-02-14 11:31:41.989253"	"2020-02-14 11:31:42.558531"	89	5.68402198333333
"S200214"	"Conflict_Resolution"	"RIGHT"	"RIGHT"	408.946799999967	1216.6666691	n/a	n/a	n/a	n/a	"False"	n/a	n/a	"2020-02-14 11:31:43.796681"	"2020-02-14 11:31:44.414676"	90	5.68402198333333
"S200214"	"Conflict_Resolution"	"RIGHT"	"RIGHT"	445.540599999958	600.0000012	n/a	n/a	n/a	n/a	"False"	n/a	n/a	"2020-02-14 11:31:45.031976"	"2020-02-14 11:31:45.685301"	91	5.68402198333333
"S200214"	"Conflict_Resolution"	"RIGHT"	"RIGHT"	498.98769999993	850.0000017	n/a	n/a	n/a	n/a	"True"	n/a	n/a	"2020-02-14 11:31:46.554981"	"2020-02-14 11:31:47.262195"	92	5.68402198333333
"S200214"	"Conflict_Resolution"	"RIGHT"	"RIGHT"	485.264700000016	1000.000002	n/a	n/a	n/a	n/a	"True"	n/a	n/a	"2020-02-14 11:31:48.279927"	"2020-02-14 11:31:48.974793"	93	5.68402198333333
"S200214"	"Conflict_Resolution"	"RIGHT"	"RIGHT"	387.51329999991	800.0000016	n/a	n/a	n/a	n/a	"False"	n/a	n/a	"2020-02-14 11:31:49.794426"	"2020-02-14 11:31:50.389847"	94	5.68402198333333
"S200214"	"Conflict_Resolution"	"RIGHT"	"RIGHT"	626.29609999999	1266.6666692	n/a	n/a	n/a	n/a	"True"	n/a	n/a	"2020-02-14 11:31:51.675439"	"2020-02-14 11:31:52.509932"	95	5.68402198333333
"S200214"	"Conflict_Resolution"	"LEFT"	"LEFT"	481.971000000044	866.6666684	n/a	n/a	n/a	n/a	"False"	n/a	n/a	"2020-02-14 11:31:53.396197"	"2020-02-14 11:31:54.086793"	96	5.68402198333333
"S200214"	"Conflict_Resolution"	"RIGHT"	"RIGHT"	503.95309999999	1316.6666693	n/a	n/a	n/a	n/a	"True"	n/a	n/a	"2020-02-14 11:31:55.421714"	"2020-02-14 11:31:56.134027"	97	5.68402198333333
"S200214"	"Conflict_Resolution"	"RIGHT"	"RIGHT"	448.298399999999	1283.3333359	n/a	n/a	n/a	n/a	"True"	n/a	n/a	"2020-02-14 11:31:57.437571"	"2020-02-14 11:31:58.092876"	98	5.68402198333333
"S200214"	"Conflict_Resolution"	"LEFT"	"LEFT"	400.500800000032	1300.0000026	n/a	n/a	n/a	n/a	"False"	n/a	n/a	"2020-02-14 11:31:59.413366"	"2020-02-14 11:32:00.021752"	99	5.68402198333333
"S200214"	"Conflict_Resolution"	"LEFT"	"LEFT"	624.180199999955	683.3333347	n/a	n/a	n/a	n/a	"True"	n/a	n/a	"2020-02-14 11:32:00.724914"	"2020-02-14 11:32:01.557416"	100	5.68402198333333
"S200214"	"Conflict_Resolution"	"LEFT"	"LEFT"	447.508699999958	716.6666681	n/a	n/a	n/a	n/a	"True"	n/a	n/a	"2020-02-14 11:32:02.293904"	"2020-02-14 11:32:02.950146"	101	5.68402198333333
"S200214"	"Conflict_Resolution"	"RIGHT"	"RIGHT"	541.190899999947	1383.3333361	n/a	n/a	n/a	n/a	"True"	n/a	n/a	"2020-02-14 11:32:04.352848"	"2020-02-14 11:32:05.101147"	102	5.68402198333333
"S200214"	"Conflict_Resolution"	"RIGHT"	"RIGHT"	527.865199999951	1100.0000022	n/a	n/a	n/a	n/a	"True"	n/a	n/a	"2020-02-14 11:32:06.221980"	"2020-02-14 11:32:06.958446"	103	5.68402198333333
"S200214"	"Conflict_Resolution"	"RIGHT"	"RIGHT"	503.067600000008	1483.3333363	n/a	n/a	n/a	n/a	"True"	n/a	n/a	"2020-02-14 11:32:08.462904"	"2020-02-14 11:32:09.174364"	104	5.68402198333333
"S200214"	"Conflict_Resolution"	"RIGHT"	"RIGHT"	364.158800000041	1366.6666694	n/a	n/a	n/a	n/a	"False"	n/a	n/a	"2020-02-14 11:32:10.561600"	"2020-02-14 11:32:11.133978"	105	5.68402198333333
"S200214"	"Conflict_Resolution"	"RIGHT"	"RIGHT"	346.059200000013	850.0000017	n/a	n/a	n/a	n/a	"False"	n/a	n/a	"2020-02-14 11:32:12.003410"	"2020-02-14 11:32:12.558676"	106	5.68402198333333
"S200214"	"Conflict_Resolution"	"LEFT"	"LEFT"	395.674600000007	1000.000002	n/a	n/a	n/a	n/a	"False"	n/a	n/a	"2020-02-14 11:32:13.577489"	"2020-02-14 11:32:14.180905"	107	5.68402198333333
"S200214"	"Conflict_Resolution"	"LEFT"	"LEFT"	371.49629999999	816.6666683	n/a	n/a	n/a	n/a	"False"	n/a	n/a	"2020-02-14 11:32:15.018225"	"2020-02-14 11:32:15.597199"	108	5.68402198333333
"S200214"	"Conflict_Resolution"	"RIGHT"	"RIGHT"	555.879399999981	1216.6666691	n/a	n/a	n/a	n/a	"True"	n/a	n/a	"2020-02-14 11:32:16.833944"	"2020-02-14 11:32:17.597591"	109	5.68402198333333
"S200214"	"Conflict_Resolution"	"LEFT"	"LEFT"	401.419000000033	1316.6666693	n/a	n/a	n/a	n/a	"False"	n/a	n/a	"2020-02-14 11:32:18.932166"	"2020-02-14 11:32:19.541884"	110	5.68402198333333
"S200214"	"Conflict_Resolution"	"LEFT"	"LEFT"	465.10950000004	633.3333346	n/a	n/a	n/a	n/a	"False"	n/a	n/a	"2020-02-14 11:32:20.196647"	"2020-02-14 11:32:20.869115"	111	5.68402198333333
"S200214"	"Conflict_Resolution"	"LEFT"	"LEFT"	545.141899999976	1116.6666689	n/a	n/a	n/a	n/a	"True"	n/a	n/a	"2020-02-14 11:32:22.004073"	"2020-02-14 11:32:22.758165"	112	5.68402198333333
"S200214"	"Conflict_Resolution"	"RIGHT"	"RIGHT"	413.000600000032	983.3333353	n/a	n/a	n/a	n/a	"False"	n/a	n/a	"2020-02-14 11:32:23.760511"	"2020-02-14 11:32:24.382649"	113	5.68402198333333
"S200214"	"Conflict_Resolution"	"LEFT"	"LEFT"	353.812100000027	616.6666679	n/a	n/a	n/a	n/a	"False"	n/a	n/a	"2020-02-14 11:32:25.019964"	"2020-02-14 11:32:25.582105"	114	5.68402198333333
"S200214"	"Conflict_Resolution"	"LEFT"	"LEFT"	320.535000000064	1100.0000022	n/a	n/a	n/a	n/a	"False"	n/a	n/a	"2020-02-14 11:32:26.701207"	"2020-02-14 11:32:27.231125"	115	5.68402198333333
"S200214"	"Conflict_Resolution"	"LEFT"	"RIGHT"	366.775599999983	916.6666685	n/a	n/a	n/a	n/a	"True"	n/a	n/a	"2020-02-14 11:32:28.167124"	"2020-02-14 11:32:28.740966"	116	5.68402198333333
"S200214"	"Conflict_Resolution"	"RIGHT"	"RIGHT"	550.908100000015	1133.3333356	n/a	n/a	n/a	n/a	"True"	n/a	n/a	"2020-02-14 11:32:29.894460"	"2020-02-14 11:32:30.654467"	117	5.68402198333333
"S200214"	"Conflict_Resolution"	"LEFT"	"LEFT"	604.153300000007	633.3333346	n/a	n/a	n/a	n/a	"True"	n/a	n/a	"2020-02-14 11:32:31.305707"	"2020-02-14 11:32:32.117033"	118	5.68402198333333
"S200214"	"Conflict_Resolution"	"RIGHT"	"RIGHT"	600.264300000049	1366.6666694	n/a	n/a	n/a	n/a	"True"	n/a	n/a	"2020-02-14 11:32:33.500905"	"2020-02-14 11:32:34.310777"	119	5.68402198333333
"S200214"	"Conflict_Resolution"	"LEFT"	"LEFT"	391.957100000013	850.0000017	n/a	n/a	n/a	n/a	"False"	n/a	n/a	"2020-02-14 11:32:35.181446"	"2020-02-14 11:32:35.782567"	120	5.68402198333333
"S200214"	"Conflict_Resolution"	"RIGHT"	"RIGHT"	554.935600000022	650.0000013	n/a	n/a	n/a	n/a	"True"	n/a	n/a	"2020-02-14 11:32:36.450792"	"2020-02-14 11:32:37.213812"	121	5.68402198333333
"S200214"	"Conflict_Resolution"	"LEFT"	"LEFT"	374.60180000005	783.3333349	n/a	n/a	n/a	n/a	"False"	n/a	n/a	"2020-02-14 11:32:38.014815"	"2020-02-14 11:32:38.597305"	122	5.68402198333333
"S200214"	"Conflict_Resolution"	"LEFT"	"LEFT"	358.075699999972	566.6666678	n/a	n/a	n/a	n/a	"False"	n/a	n/a	"2020-02-14 11:32:39.183458"	"2020-02-14 11:32:39.749425"	123	5.68402198333333
"S200214"	"Conflict_Resolution"	"RIGHT"	"RIGHT"	419.660700000009	1433.3333362	n/a	n/a	n/a	n/a	"False"	n/a	n/a	"2020-02-14 11:32:41.202204"	"2020-02-14 11:32:41.829884"	124	5.68402198333333
"S200214"	"Conflict_Resolution"	"RIGHT"	"RIGHT"	397.903499999984	533.3333344	n/a	n/a	n/a	n/a	"False"	n/a	n/a	"2020-02-14 11:32:42.383735"	"2020-02-14 11:32:42.990587"	125	5.68402198333333
"S200214"	"Conflict_Resolution"	"LEFT"	"LEFT"	402.311499999996	1050.0000021	n/a	n/a	n/a	n/a	"False"	n/a	n/a	"2020-02-14 11:32:44.058784"	"2020-02-14 11:32:44.669093"	126	5.68402198333333
"S200214"	"Conflict_Resolution"	"LEFT"	"LEFT"	605.051300000014	783.3333349	n/a	n/a	n/a	n/a	"True"	n/a	n/a	"2020-02-14 11:32:45.472652"	"2020-02-14 11:32:46.285227"	127	5.68402198333333
"S200214"	"Conflict_Resolution"	"LEFT"	"LEFT"	473.627800000031	1300.0000026	n/a	n/a	n/a	n/a	"True"	n/a	n/a	"2020-02-14 11:32:47.603960"	"2020-02-14 11:32:48.285145"	128	5.68402198333333
"S200214"	"Conflict_Resolution"	"LEFT"	"LEFT"	479.052199999956	533.3333344	n/a	n/a	n/a	n/a	"True"	n/a	n/a	"2020-02-14 11:32:48.838024"	"2020-02-14 11:32:49.526487"	129	5.68402198333333
"S200214"	"Conflict_Resolution"	"LEFT"	"LEFT"	333.857899999998	1150.0000023	n/a	n/a	n/a	n/a	"False"	n/a	n/a	"2020-02-14 11:32:50.703480"	"2020-02-14 11:32:51.246016"	130	5.68402198333333
"S200214"	"Conflict_Resolution"	"LEFT"	"LEFT"	500.276100000065	966.6666686	n/a	n/a	n/a	n/a	"True"	n/a	n/a	"2020-02-14 11:32:52.233378"	"2020-02-14 11:32:52.941494"	131	5.68402198333333
"S200214"	"Conflict_Resolution"	"LEFT"	"LEFT"	354.142300000035	1400.0000028	n/a	n/a	n/a	n/a	"False"	n/a	n/a	"2020-02-14 11:32:54.363308"	"2020-02-14 11:32:54.926289"	132	5.68402198333333
"S200214"	"Conflict_Resolution"	"RIGHT"	"RIGHT"	563.942300000008	550.0000011	n/a	n/a	n/a	n/a	"True"	n/a	n/a	"2020-02-14 11:32:55.497419"	"2020-02-14 11:32:56.270538"	133	5.68402198333333
"S200214"	"Conflict_Resolution"	"LEFT"	"LEFT"	358.461200000079	1116.6666689	n/a	n/a	n/a	n/a	"False"	n/a	n/a	"2020-02-14 11:32:57.407473"	"2020-02-14 11:32:57.974306"	134	5.68402198333333
"S200214"	"Conflict_Resolution"	"RIGHT"	"RIGHT"	407.692999999995	1316.6666693	n/a	n/a	n/a	n/a	"False"	n/a	n/a	"2020-02-14 11:32:59.309345"	"2020-02-14 11:32:59.925878"	135	5.68402198333333
"S200214"	"Conflict_Resolution"	"LEFT"	"LEFT"	547.358599999939	1400.0000028	n/a	n/a	n/a	n/a	"True"	n/a	n/a	"2020-02-14 11:33:01.346162"	"2020-02-14 11:33:02.101649"	136	5.68402198333333
"S200214"	"Conflict_Resolution"	"RIGHT"	"RIGHT"	366.593800000032	550.0000011	n/a	n/a	n/a	n/a	"False"	n/a	n/a	"2020-02-14 11:33:02.671331"	"2020-02-14 11:33:03.245937"	137	5.68402198333333
"S200214"	"Conflict_Resolution"	"LEFT"	"LEFT"	337.521599999945	666.666668	n/a	n/a	n/a	n/a	"False"	n/a	n/a	"2020-02-14 11:33:03.932090"	"2020-02-14 11:33:04.478106"	138	5.68402198333333
"S200214"	"Conflict_Resolution"	"RIGHT"	"RIGHT"	475.174100000004	800.0000016	n/a	n/a	n/a	n/a	"True"	n/a	n/a	"2020-02-14 11:33:05.298177"	"2020-02-14 11:33:05.981369"	139	5.68402198333333
"S200214"	"Conflict_Resolution"	"LEFT"	"LEFT"	370.262099999991	1250.0000025	n/a	n/a	n/a	n/a	"False"	n/a	n/a	"2020-02-14 11:33:07.251300"	"2020-02-14 11:33:07.829742"	140	5.68402198333333
"S200214"	"Conflict_Resolution"	"RIGHT"	"RIGHT"	362.099199999989	1050.0000021	n/a	n/a	n/a	n/a	"False"	n/a	n/a	"2020-02-14 11:33:08.899854"	"2020-02-14 11:33:09.470345"	141	5.68402198333333
"S200214"	"Conflict_Resolution"	"RIGHT"	"RIGHT"	618.428300000005	1416.6666695	n/a	n/a	n/a	n/a	"True"	n/a	n/a	"2020-02-14 11:33:10.907548"	"2020-02-14 11:33:11.734178"	142	5.68402198333333
"S200214"	"Conflict_Resolution"	"RIGHT"	"RIGHT"	435.353699999951	1416.6666695	n/a	n/a	n/a	n/a	"False"	n/a	n/a	"2020-02-14 11:33:13.170627"	"2020-02-14 11:33:13.814725"	143	5.68402198333333
"S200214"	"Conflict_Resolution"	"LEFT"	"LEFT"	466.846500000088	1016.6666687	n/a	n/a	n/a	n/a	"False"	n/a	n/a	"2020-02-14 11:33:14.850453"	"2020-02-14 11:33:15.524990"	144	5.68402198333333
"S200214"	"Conflict_Resolution"	"LEFT"	"LEFT"	576.788599999986	1316.6666693	n/a	n/a	n/a	n/a	"True"	n/a	n/a	"2020-02-14 11:33:16.860531"	"2020-02-14 11:33:17.646632"	145	5.68402198333333
"S200214"	"Conflict_Resolution"	"RIGHT"	"RIGHT"	561.092600000052	1033.3333354	n/a	n/a	n/a	n/a	"True"	n/a	n/a	"2020-02-14 11:33:18.700905"	"2020-02-14 11:33:19.470130"	146	5.68402198333333
"S200214"	"Conflict_Resolution"	"RIGHT"	"RIGHT"	419.755399999985	833.333335	n/a	n/a	n/a	n/a	"False"	n/a	n/a	"2020-02-14 11:33:20.321899"	"2020-02-14 11:33:20.949758"	147	5.68402198333333
"S200214"	"Conflict_Resolution"	"LEFT"	"LEFT"	536.706099999947	1266.6666692	n/a	n/a	n/a	n/a	"True"	n/a	n/a	"2020-02-14 11:33:22.236965"	"2020-02-14 11:33:22.983318"	148	5.68402198333333
"S200214"	"Conflict_Resolution"	"RIGHT"	"RIGHT"	575.764199999981	700.0000014	n/a	n/a	n/a	n/a	"True"	n/a	n/a	"2020-02-14 11:33:23.701490"	"2020-02-14 11:33:24.486498"	149	5.68402198333333
"S200214"	"Conflict_Resolution"	"LEFT"	"LEFT"	497.883600000023	1050.0000021	n/a	n/a	n/a	n/a	"True"	n/a	n/a	"2020-02-14 11:33:25.555748"	"2020-02-14 11:33:26.260904"	150	5.68402198333333
"S200214"	"Conflict_Resolution"	"RIGHT"	"RIGHT"	367.232899999976	950.0000019	n/a	n/a	n/a	n/a	"False"	n/a	n/a	"2020-02-14 11:33:27.230823"	"2020-02-14 11:33:27.806333"	151	5.68402198333333
"S200214"	"Conflict_Resolution"	"RIGHT"	"RIGHT"	351.756899999941	900.0000018	n/a	n/a	n/a	n/a	"False"	n/a	n/a	"2020-02-14 11:33:28.725903"	"2020-02-14 11:33:29.288491"	152	5.68402198333333
"S200214"	"Conflict_Resolution"	"LEFT"	"LEFT"	430.258800000047	683.3333347	n/a	n/a	n/a	n/a	"False"	n/a	n/a	"2020-02-14 11:33:29.991614"	"2020-02-14 11:33:30.629232"	153	5.68402198333333
"S200214"	"Conflict_Resolution"	"RIGHT"	"RIGHT"	533.626400000003	583.3333345	n/a	n/a	n/a	n/a	"True"	n/a	n/a	"2020-02-14 11:33:31.232162"	"2020-02-14 11:33:31.973359"	154	5.68402198333333
"S200214"	"Conflict_Resolution"	"RIGHT"	"RIGHT"	478.853100000038	950.0000019	n/a	n/a	n/a	n/a	"True"	n/a	n/a	"2020-02-14 11:33:32.942484"	"2020-02-14 11:33:33.629904"	155	5.68402198333333
"S200214"	"Conflict_Resolution"	"LEFT"	"LEFT"	380.100799999923	583.3333345	n/a	n/a	n/a	n/a	"False"	n/a	n/a	"2020-02-14 11:33:34.233277"	"2020-02-14 11:33:34.821188"	156	5.68402198333333
"S200214"	"Conflict_Resolution"	"LEFT"	"LEFT"	479.493599999955	1366.6666694	n/a	n/a	n/a	n/a	"True"	n/a	n/a	"2020-02-14 11:33:36.206048"	"2020-02-14 11:33:36.894568"	157	5.68402198333333
"S200214"	"Conflict_Resolution"	"LEFT"	"LEFT"	391.686299999947	1500.000003	n/a	n/a	n/a	n/a	"False"	n/a	n/a	"2020-02-14 11:33:38.413525"	"2020-02-14 11:33:39.014318"	158	5.68402198333333
"S200214"	"Conflict_Resolution"	"RIGHT"	"RIGHT"	409.17689999992	1466.6666696	n/a	n/a	n/a	n/a	"False"	n/a	n/a	"2020-02-14 11:33:40.500109"	"2020-02-14 11:33:41.117374"	159	5.68402198333333
"S200214"	"Conflict_Resolution"	"RIGHT"	"LEFT"	438.512599999967	750.0000015	n/a	n/a	n/a	n/a	"True"	n/a	n/a	"2020-02-14 11:33:41.887314"	"2020-02-14 11:33:42.533377"	160	5.68402198333333
"S200214"	"Processing_Speed"	"RIGHT"	"DOWN"	903.409799999991	666.666668	n/a	n/a	n/a	n/a	n/a	n/a	n/a	"2020-02-14 11:18:05.710966"	"2020-02-14 11:18:06.834130"	1	1.88346636666667
"S200214"	"Processing_Speed"	"RIGHT"	"DOWN"	344.432300000008	1266.6666692	n/a	n/a	n/a	n/a	n/a	n/a	n/a	"2020-02-14 11:18:08.109405"	"2020-02-14 11:18:08.662832"	2	1.88346636666667
"S200214"	"Processing_Speed"	"RIGHT"	"DOWN"	274.360999999999	1116.6666689	n/a	n/a	n/a	n/a	n/a	n/a	n/a	"2020-02-14 11:18:09.787941"	"2020-02-14 11:18:10.273641"	3	1.88346636666667
"S200214"	"Processing_Speed"	"LEFT"	"DOWN"	281.592199999992	633.3333346	n/a	n/a	n/a	n/a	n/a	n/a	n/a	"2020-02-14 11:18:10.916950"	"2020-02-14 11:18:11.405758"	4	1.88346636666667
"S200214"	"Processing_Speed"	"RIGHT"	"DOWN"	277.809599999998	1433.3333362	n/a	n/a	n/a	n/a	n/a	n/a	n/a	"2020-02-14 11:18:12.848384"	"2020-02-14 11:18:13.334220"	5	1.88346636666667
"S200214"	"Processing_Speed"	"LEFT"	"DOWN"	254.290600000004	1016.6666687	n/a	n/a	n/a	n/a	n/a	n/a	n/a	"2020-02-14 11:18:14.360182"	"2020-02-14 11:18:14.823129"	6	1.88346636666667
"S200214"	"Processing_Speed"	"LEFT"	"DOWN"	281.599700000001	1500.000003	n/a	n/a	n/a	n/a	n/a	n/a	n/a	"2020-02-14 11:18:16.332135"	"2020-02-14 11:18:16.822045"	7	1.88346636666667
"S200214"	"Processing_Speed"	"RIGHT"	"DOWN"	295.528199999993	600.0000012	n/a	n/a	n/a	n/a	n/a	n/a	n/a	"2020-02-14 11:18:17.430441"	"2020-02-14 11:18:17.935732"	8	1.88346636666667
"S200214"	"Processing_Speed"	"LEFT"	"DOWN"	261.712700000004	600.0000012	n/a	n/a	n/a	n/a	n/a	n/a	n/a	"2020-02-14 11:18:18.544140"	"2020-02-14 11:18:19.015405"	9	1.88346636666667
"S200214"	"Processing_Speed"	"RIGHT"	"DOWN"	231.994600000007	950.0000019	n/a	n/a	n/a	n/a	n/a	n/a	n/a	"2020-02-14 11:18:19.974376"	"2020-02-14 11:18:20.414767"	10	1.88346636666667
"S200214"	"Processing_Speed"	"LEFT"	"DOWN"	269.462000000004	1433.3333362	n/a	n/a	n/a	n/a	n/a	n/a	n/a	"2020-02-14 11:18:21.856455"	"2020-02-14 11:18:22.334458"	11	1.88346636666667
"S200214"	"Processing_Speed"	"RIGHT"	"DOWN"	229.415299999999	1016.6666687	n/a	n/a	n/a	n/a	n/a	n/a	n/a	"2020-02-14 11:18:23.360890"	"2020-02-14 11:18:23.799261"	12	1.88346636666667
"S200214"	"Processing_Speed"	"RIGHT"	"DOWN"	368.608399999999	733.3333348	n/a	n/a	n/a	n/a	n/a	n/a	n/a	"2020-02-14 11:18:24.541763"	"2020-02-14 11:18:25.117860"	13	1.88346636666667
"S200214"	"Processing_Speed"	"LEFT"	"DOWN"	241.474400000001	1300.0000026	n/a	n/a	n/a	n/a	n/a	n/a	n/a	"2020-02-14 11:18:26.428485"	"2020-02-14 11:18:26.879370"	14	1.88346636666667
"S200214"	"Processing_Speed"	"LEFT"	"DOWN"	287.526900000003	566.6666678	n/a	n/a	n/a	n/a	n/a	n/a	n/a	"2020-02-14 11:18:27.454660"	"2020-02-14 11:18:27.950662"	15	1.88346636666667
"S200214"	"Processing_Speed"	"RIGHT"	"DOWN"	241.449399999993	916.6666685	n/a	n/a	n/a	n/a	n/a	n/a	n/a	"2020-02-14 11:18:28.876503"	"2020-02-14 11:18:29.325967"	16	1.88346636666667
"S200214"	"Processing_Speed"	"RIGHT"	"DOWN"	275.529800000001	700.0000014	n/a	n/a	n/a	n/a	n/a	n/a	n/a	"2020-02-14 11:18:30.035083"	"2020-02-14 11:18:30.519577"	17	1.88346636666667
"S200214"	"Processing_Speed"	"LEFT"	"DOWN"	266.261700000001	1466.6666696	n/a	n/a	n/a	n/a	n/a	n/a	n/a	"2020-02-14 11:18:31.995840"	"2020-02-14 11:18:32.470333"	18	1.88346636666667
"S200214"	"Processing_Speed"	"LEFT"	"DOWN"	323.885300000001	1266.6666692	n/a	n/a	n/a	n/a	n/a	n/a	n/a	"2020-02-14 11:18:33.746010"	"2020-02-14 11:18:34.278050"	19	1.88346636666667
"S200214"	"Processing_Speed"	"LEFT"	"DOWN"	329.720500000008	533.3333344	n/a	n/a	n/a	n/a	n/a	n/a	n/a	"2020-02-14 11:18:34.820187"	"2020-02-14 11:18:35.359507"	20	1.88346636666667
"S200214"	"Processing_Speed"	"RIGHT"	"DOWN"	275.559299999998	1050.0000021	n/a	n/a	n/a	n/a	n/a	n/a	n/a	"2020-02-14 11:18:36.418331"	"2020-02-14 11:18:36.902792"	21	1.88346636666667
"S200214"	"Processing_Speed"	"RIGHT"	"DOWN"	294.774400000009	1400.0000028	n/a	n/a	n/a	n/a	n/a	n/a	n/a	"2020-02-14 11:18:38.311033"	"2020-02-14 11:18:38.813586"	22	1.88346636666667
"S200214"	"Processing_Speed"	"LEFT"	"DOWN"	264.240599999994	1366.6666694	n/a	n/a	n/a	n/a	n/a	n/a	n/a	"2020-02-14 11:18:40.189809"	"2020-02-14 11:18:40.662829"	23	1.88346636666667
"S200214"	"Processing_Speed"	"LEFT"	"DOWN"	364.728900000003	850.0000017	n/a	n/a	n/a	n/a	n/a	n/a	n/a	"2020-02-14 11:18:41.521594"	"2020-02-14 11:18:42.095267"	24	1.88346636666667
"S200214"	"Processing_Speed"	"LEFT"	"DOWN"	304.289100000005	1150.0000023	n/a	n/a	n/a	n/a	n/a	n/a	n/a	"2020-02-14 11:18:43.253788"	"2020-02-14 11:18:43.765918"	25	1.88346636666667
"S200214"	"Processing_Speed"	"RIGHT"	"DOWN"	256.954400000012	1333.333336	n/a	n/a	n/a	n/a	n/a	n/a	n/a	"2020-02-14 11:18:45.108613"	"2020-02-14 11:18:45.574973"	26	1.88346636666667
"S200214"	"Processing_Speed"	"RIGHT"	"DOWN"	358.443100000002	1183.3333357	n/a	n/a	n/a	n/a	n/a	n/a	n/a	"2020-02-14 11:18:46.767995"	"2020-02-14 11:18:47.334218"	27	1.88346636666667
"S200214"	"Processing_Speed"	"LEFT"	"DOWN"	262.301999999991	1216.6666691	n/a	n/a	n/a	n/a	n/a	n/a	n/a	"2020-02-14 11:18:48.560069"	"2020-02-14 11:18:49.030407"	28	1.88346636666667
"S200214"	"Processing_Speed"	"RIGHT"	"DOWN"	223.812300000006	1366.6666694	n/a	n/a	n/a	n/a	n/a	n/a	n/a	"2020-02-14 11:18:50.406694"	"2020-02-14 11:18:50.838730"	29	1.88346636666667
"S200214"	"Processing_Speed"	"RIGHT"	"DOWN"	295.194800000004	783.3333349	n/a	n/a	n/a	n/a	n/a	n/a	n/a	"2020-02-14 11:18:51.631338"	"2020-02-14 11:18:52.133356"	30	1.88346636666667
"S200214"	"Processing_Speed"	"RIGHT"	"DOWN"	308.122099999991	500.000001	n/a	n/a	n/a	n/a	n/a	n/a	n/a	"2020-02-14 11:18:52.642007"	"2020-02-14 11:18:53.158670"	31	1.88346636666667
"S200214"	"Processing_Speed"	"LEFT"	"DOWN"	286.303500000002	783.3333349	n/a	n/a	n/a	n/a	n/a	n/a	n/a	"2020-02-14 11:18:53.951570"	"2020-02-14 11:18:54.446156"	32	1.88346636666667
"S200214"	"Processing_Speed"	"LEFT"	"DOWN"	269.667800000008	983.3333353	n/a	n/a	n/a	n/a	n/a	n/a	n/a	"2020-02-14 11:18:55.440571"	"2020-02-14 11:18:55.918076"	33	1.88346636666667
"S200214"	"Processing_Speed"	"LEFT"	"DOWN"	231.705799999986	950.0000019	n/a	n/a	n/a	n/a	n/a	n/a	n/a	"2020-02-14 11:18:56.878573"	"2020-02-14 11:18:57.318700"	34	1.88346636666667
"S200214"	"Processing_Speed"	"RIGHT"	"DOWN"	264.679400000006	1500.000003	n/a	n/a	n/a	n/a	n/a	n/a	n/a	"2020-02-14 11:18:58.829778"	"2020-02-14 11:18:59.303383"	35	1.88346636666667
"S200214"	"Processing_Speed"	"RIGHT"	"DOWN"	310.373599999991	566.6666678	n/a	n/a	n/a	n/a	n/a	n/a	n/a	"2020-02-14 11:18:59.879389"	"2020-02-14 11:19:00.398931"	36	1.88346636666667
"S200214"	"Processing_Speed"	"LEFT"	"DOWN"	280.643400000002	1333.333336	n/a	n/a	n/a	n/a	n/a	n/a	n/a	"2020-02-14 11:19:01.741910"	"2020-02-14 11:19:02.230309"	37	1.88346636666667
"S200214"	"Processing_Speed"	"LEFT"	"DOWN"	246.991299999991	1400.0000028	n/a	n/a	n/a	n/a	n/a	n/a	n/a	"2020-02-14 11:19:03.639451"	"2020-02-14 11:19:04.093891"	38	1.88346636666667
"S200214"	"Processing_Speed"	"RIGHT"	"DOWN"	230.767200000003	816.6666683	n/a	n/a	n/a	n/a	n/a	n/a	n/a	"2020-02-14 11:19:04.919707"	"2020-02-14 11:19:05.357939"	39	1.88346636666667
"S200214"	"Processing_Speed"	"LEFT"	"DOWN"	356.314099999992	1050.0000021	n/a	n/a	n/a	n/a	n/a	n/a	n/a	"2020-02-14 11:19:06.418120"	"2020-02-14 11:19:06.981913"	40	1.88346636666667
"S200214"	"Processing_Speed"	"RIGHT"	"DOWN"	222.431	633.3333346	n/a	n/a	n/a	n/a	n/a	n/a	n/a	"2020-02-14 11:19:07.624228"	"2020-02-14 11:19:08.054400"	41	1.88346636666667
"S200214"	"Processing_Speed"	"RIGHT"	"DOWN"	223.054300000001	983.3333353	n/a	n/a	n/a	n/a	n/a	n/a	n/a	"2020-02-14 11:19:09.047516"	"2020-02-14 11:19:09.478355"	42	1.88346636666667
"S200214"	"Processing_Speed"	"RIGHT"	"DOWN"	245.4161	850.0000017	n/a	n/a	n/a	n/a	n/a	n/a	n/a	"2020-02-14 11:19:10.336543"	"2020-02-14 11:19:10.790367"	43	1.88346636666667
"S200214"	"Processing_Speed"	"LEFT"	"DOWN"	259.312499999993	666.666668	n/a	n/a	n/a	n/a	n/a	n/a	n/a	"2020-02-14 11:19:11.467086"	"2020-02-14 11:19:11.934827"	44	1.88346636666667
"S200214"	"Processing_Speed"	"LEFT"	"DOWN"	265.562299999999	1116.6666689	n/a	n/a	n/a	n/a	n/a	n/a	n/a	"2020-02-14 11:19:13.060861"	"2020-02-14 11:19:13.534924"	45	1.88346636666667
"S200214"	"Processing_Speed"	"RIGHT"	"DOWN"	226.621399999999	1300.0000026	n/a	n/a	n/a	n/a	n/a	n/a	n/a	"2020-02-14 11:19:14.843345"	"2020-02-14 11:19:15.277770"	46	1.88346636666667
"S200214"	"Processing_Speed"	"RIGHT"	"DOWN"	252.234199999975	1466.6666696	n/a	n/a	n/a	n/a	n/a	n/a	n/a	"2020-02-14 11:19:16.754111"	"2020-02-14 11:19:17.215688"	47	1.88346636666667
"S200214"	"Processing_Speed"	"LEFT"	"DOWN"	247.63249999998	883.3333351	n/a	n/a	n/a	n/a	n/a	n/a	n/a	"2020-02-14 11:19:18.110921"	"2020-02-14 11:19:18.566361"	48	1.88346636666667
"S200214"	"Processing_Speed"	"LEFT"	"DOWN"	298.7258	1083.3333355	n/a	n/a	n/a	n/a	n/a	n/a	n/a	"2020-02-14 11:19:19.658929"	"2020-02-14 11:19:20.165556"	49	1.88346636666667
"S200214"	"Processing_Speed"	"LEFT"	"DOWN"	333.580899999987	816.6666683	n/a	n/a	n/a	n/a	n/a	n/a	n/a	"2020-02-14 11:19:20.992353"	"2020-02-14 11:19:21.534284"	50	1.88346636666667
"S200214"	"Processing_Speed"	"LEFT"	"DOWN"	290.393899999998	916.6666685	n/a	n/a	n/a	n/a	n/a	n/a	n/a	"2020-02-14 11:19:22.459967"	"2020-02-14 11:19:22.959640"	51	1.88346636666667
"S200214"	"Processing_Speed"	"LEFT"	"DOWN"	305.153399999995	500.000001	n/a	n/a	n/a	n/a	n/a	n/a	n/a	"2020-02-14 11:19:23.468755"	"2020-02-14 11:19:23.982349"	52	1.88346636666667
"S200214"	"Processing_Speed"	"RIGHT"	"DOWN"	235.613399999977	883.3333351	n/a	n/a	n/a	n/a	n/a	n/a	n/a	"2020-02-14 11:19:24.874210"	"2020-02-14 11:19:25.318186"	53	1.88346636666667
"S200214"	"Processing_Speed"	"RIGHT"	"DOWN"	273.026000000016	533.3333344	n/a	n/a	n/a	n/a	n/a	n/a	n/a	"2020-02-14 11:19:25.860762"	"2020-02-14 11:19:26.342213"	54	1.88346636666667
"S200214"	"Processing_Speed"	"LEFT"	"DOWN"	295.737099999997	1183.3333357	n/a	n/a	n/a	n/a	n/a	n/a	n/a	"2020-02-14 11:19:27.534514"	"2020-02-14 11:19:28.038509"	55	1.88346636666667
"S200214"	"Processing_Speed"	"RIGHT"	"DOWN"	253.470700000008	1216.6666691	n/a	n/a	n/a	n/a	n/a	n/a	n/a	"2020-02-14 11:19:29.264816"	"2020-02-14 11:19:29.726197"	56	1.88346636666667
"S200214"	"Processing_Speed"	"RIGHT"	"DOWN"	226.913800000005	1083.3333355	n/a	n/a	n/a	n/a	n/a	n/a	n/a	"2020-02-14 11:19:30.818945"	"2020-02-14 11:19:31.254491"	57	1.88346636666667
"S200214"	"Processing_Speed"	"LEFT"	"DOWN"	257.439599999998	700.0000014	n/a	n/a	n/a	n/a	n/a	n/a	n/a	"2020-02-14 11:19:31.964552"	"2020-02-14 11:19:32.431350"	58	1.88346636666667
"S200214"	"Processing_Speed"	"LEFT"	"DOWN"	319.804500000004	733.3333348	n/a	n/a	n/a	n/a	n/a	n/a	n/a	"2020-02-14 11:19:33.173934"	"2020-02-14 11:19:33.702751"	59	1.88346636666667
"S200214"	"Processing_Speed"	"RIGHT"	"DOWN"	255.729000000002	1150.0000023	n/a	n/a	n/a	n/a	n/a	n/a	n/a	"2020-02-14 11:19:34.862698"	"2020-02-14 11:19:35.326453"	60	1.88346636666667
"S200214"	"Response_Inhibition"	"LEFT"	"LEFT"	516.069200000004	1133.3333356	n/a	n/a	n/a	n/a	n/a	n/a	n/a	"2020-02-14 11:22:52.338318"	"2020-02-14 11:22:53.062505"	1	5.67961201666667
"S200214"	"Response_Inhibition"	"RIGHT"	"RIGHT"	426.957899999991	1283.3333359	n/a	n/a	n/a	n/a	n/a	n/a	n/a	"2020-02-14 11:22:54.355023"	"2020-02-14 11:22:54.991170"	2	5.67961201666667
"S200214"	"Response_Inhibition"	"LEFT"	"LEFT"	317.967799999963	1200.0000024	n/a	n/a	n/a	n/a	n/a	n/a	n/a	"2020-02-14 11:22:56.199635"	"2020-02-14 11:22:56.726567"	3	5.67961201666667
"S200214"	"Response_Inhibition"	"RIGHT"	"RIGHT"	296.339333699984	1050.0000021	n/a	n/a	n/a	n/a	n/a	n/a	n/a	"2020-02-14 11:22:57.786211"	"2020-02-14 11:22:58.294512"	4	5.67961201666667
"S200214"	"Response_Inhibition"	"LEFT"	"LEFT"	333.373800000004	1416.6666695	n/a	n/a	n/a	n/a	n/a	n/a	n/a	"2020-02-14 11:22:59.720734"	"2020-02-14 11:23:00.262730"	5	5.67961201666667
"S200214"	"Response_Inhibition"	"LEFT"	"LEFT"	383.094900000003	583.3333345	n/a	n/a	n/a	n/a	n/a	n/a	n/a	"2020-02-14 11:23:00.854664"	"2020-02-14 11:23:01.445214"	6	5.67961201666667
"S200214"	"Response_Inhibition"	"RIGHT"	"RIGHT"	391.59079999996	1200.0000024	n/a	n/a	n/a	n/a	n/a	n/a	n/a	"2020-02-14 11:23:02.653996"	"2020-02-14 11:23:03.253944"	7	5.67961201666667
"S200214"	"Response_Inhibition"	"LEFT"	"LEFT"	336.544899999978	1150.0000023	n/a	n/a	n/a	n/a	n/a	n/a	n/a	"2020-02-14 11:23:04.413562"	"2020-02-14 11:23:04.958183"	8	5.67961201666667
"S200214"	"Response_Inhibition"	"RIGHT"	"RIGHT"	319.792199999995	583.3333345	n/a	n/a	n/a	n/a	n/a	n/a	n/a	"2020-02-14 11:23:05.550134"	"2020-02-14 11:23:06.078760"	9	5.67961201666667
"S200214"	"Response_Inhibition"	"LEFT"	"LEFT"	458.186999999953	1083.3333355	n/a	n/a	n/a	n/a	n/a	n/a	n/a	"2020-02-14 11:23:07.171816"	"2020-02-14 11:23:07.838119"	10	5.67961201666667
"S200214"	"Response_Inhibition"	"LEFT"	"LEFT"	458.613800000023	700.0000014	n/a	n/a	n/a	n/a	n/a	n/a	n/a	"2020-02-14 11:23:08.547689"	"2020-02-14 11:23:09.214395"	11	5.67961201666667
"S200214"	"Response_Inhibition"	"RIGHT"	"RIGHT"	300.044300000025	850.0000017	n/a	n/a	n/a	n/a	n/a	n/a	n/a	"2020-02-14 11:23:10.073662"	"2020-02-14 11:23:10.583199"	12	5.67961201666667
"S200214"	"Response_Inhibition"	"RIGHT"	"RIGHT"	554.879500000027	1466.6666696	n/a	n/a	n/a	n/a	n/a	n/a	n/a	"2020-02-14 11:23:12.059019"	"2020-02-14 11:23:12.821909"	13	5.67961201666667
"S200214"	"Response_Inhibition"	"LEFT"	"LEFT"	326.464900000019	816.6666683	n/a	n/a	n/a	n/a	n/a	n/a	n/a	"2020-02-14 11:23:13.647230"	"2020-02-14 11:23:14.182234"	14	5.67961201666667
"S200214"	"Response_Inhibition"	"RIGHT"	"RIGHT"	389.784700000007	1433.3333362	n/a	n/a	n/a	n/a	n/a	n/a	n/a	"2020-02-14 11:23:15.623899"	"2020-02-14 11:23:16.222971"	15	5.67961201666667
"S200214"	"Response_Inhibition"	"LEFT"	"LEFT"	315.493099999969	850.0000017	n/a	n/a	n/a	n/a	n/a	n/a	n/a	"2020-02-14 11:23:17.082088"	"2020-02-14 11:23:17.606328"	16	5.67961201666667
"S200214"	"Response_Inhibition"	"LEFT"	"LEFT"	475.536099999999	666.666668	n/a	n/a	n/a	n/a	n/a	n/a	n/a	"2020-02-14 11:23:18.282273"	"2020-02-14 11:23:18.966148"	17	5.67961201666667
"S200214"	"Response_Inhibition"	"LEFT"	"LEFT"	395.754299999965	1266.6666692	n/a	n/a	n/a	n/a	n/a	n/a	n/a	"2020-02-14 11:23:20.242289"	"2020-02-14 11:23:20.846222"	18	5.67961201666667
"S200214"	"Response_Inhibition"	"RIGHT"	"RIGHT"	389.846200300045	1316.6666693	n/a	n/a	n/a	n/a	n/a	n/a	n/a	"2020-02-14 11:23:22.172955"	"2020-02-14 11:23:22.774677"	19	5.67961201666667
"S200214"	"Response_Inhibition"	"RIGHT"	"Time_Max_Exceeded"	1500.05086679998	683.3333347	n/a	n/a	n/a	n/a	n/a	n/a	n/a	"2020-02-14 11:23:23.467398"	"2020-02-14 11:23:24.970508"	20	5.67961201666667
"S200214"	"Response_Inhibition"	"RIGHT"	"RIGHT"	368.504900400016	950.0000019	n/a	n/a	n/a	n/a	n/a	n/a	n/a	"2020-02-14 11:23:25.929617"	"2020-02-14 11:23:26.510041"	21	5.67961201666667
"S200214"	"Response_Inhibition"	"LEFT"	"LEFT"	326.88730000001	1216.6666691	n/a	n/a	n/a	n/a	n/a	n/a	n/a	"2020-02-14 11:23:27.734757"	"2020-02-14 11:23:28.270108"	22	5.67961201666667
"S200214"	"Response_Inhibition"	"LEFT"	"Time_Max_Exceeded"	1500.0723	600.0000012	n/a	n/a	n/a	n/a	n/a	n/a	n/a	"2020-02-14 11:23:28.879493"	"2020-02-14 11:23:30.380361"	23	5.67961201666667
"S200214"	"Response_Inhibition"	"LEFT"	"LEFT"	474.887600000045	950.0000019	n/a	n/a	n/a	n/a	n/a	n/a	n/a	"2020-02-14 11:23:31.338998"	"2020-02-14 11:23:32.022431"	24	5.67961201666667
"S200214"	"Response_Inhibition"	"LEFT"	"LEFT"	305.345199999977	533.3333344	n/a	n/a	n/a	n/a	n/a	n/a	n/a	"2020-02-14 11:23:32.564535"	"2020-02-14 11:23:33.077948"	25	5.67961201666667
"S200214"	"Response_Inhibition"	"LEFT"	"Time_Max_Exceeded"	1500.0534001	1100.0000022	n/a	n/a	n/a	n/a	n/a	n/a	n/a	"2020-02-14 11:23:34.187486"	"2020-02-14 11:23:35.691017"	26	5.67961201666667
"S200214"	"Response_Inhibition"	"LEFT"	"Time_Max_Exceeded"	1500.05306669997	1166.666669	n/a	n/a	n/a	n/a	n/a	n/a	n/a	"2020-02-14 11:23:36.866037"	"2020-02-14 11:23:38.369806"	27	5.67961201666667
"S200214"	"Response_Inhibition"	"LEFT"	"LEFT"	402.855599999953	966.6666686	n/a	n/a	n/a	n/a	n/a	n/a	n/a	"2020-02-14 11:23:39.346792"	"2020-02-14 11:23:39.957902"	28	5.67961201666667
"S200214"	"Response_Inhibition"	"RIGHT"	"RIGHT"	388.539700000024	1250.0000025	n/a	n/a	n/a	n/a	n/a	n/a	n/a	"2020-02-14 11:23:41.217555"	"2020-02-14 11:23:41.813989"	29	5.67961201666667
"S200214"	"Response_Inhibition"	"LEFT"	"LEFT"	320.696199999986	1316.6666693	n/a	n/a	n/a	n/a	n/a	n/a	n/a	"2020-02-14 11:23:43.140950"	"2020-02-14 11:23:43.670341"	30	5.67961201666667
"S200214"	"Response_Inhibition"	"RIGHT"	"RIGHT"	345.818199999997	733.3333348	n/a	n/a	n/a	n/a	n/a	n/a	n/a	"2020-02-14 11:23:44.412392"	"2020-02-14 11:23:44.965943"	31	5.67961201666667
"S200214"	"Response_Inhibition"	"RIGHT"	"RIGHT"	361.520333900014	866.6666684	n/a	n/a	n/a	n/a	n/a	n/a	n/a	"2020-02-14 11:23:45.841669"	"2020-02-14 11:23:46.414140"	32	5.67961201666667
"S200214"	"Response_Inhibition"	"LEFT"	"LEFT"	322.33720000005	1100.0000022	n/a	n/a	n/a	n/a	n/a	n/a	n/a	"2020-02-14 11:23:47.523527"	"2020-02-14 11:23:48.054037"	33	5.67961201666667
"S200214"	"Response_Inhibition"	"LEFT"	"Time_Max_Exceeded"	1500.0541336	533.3333344	n/a	n/a	n/a	n/a	n/a	n/a	n/a	"2020-02-14 11:23:48.596561"	"2020-02-14 11:23:50.100095"	34	5.67961201666667
"S200214"	"Response_Inhibition"	"LEFT"	"LEFT"	465.485000000001	550.0000011	n/a	n/a	n/a	n/a	n/a	n/a	n/a	"2020-02-14 11:23:50.660112"	"2020-02-14 11:23:51.333460"	35	5.67961201666667
"S200214"	"Response_Inhibition"	"RIGHT"	"Time_Max_Exceeded"	1500.0463336	650.0000013	n/a	n/a	n/a	n/a	n/a	n/a	n/a	"2020-02-14 11:23:51.992710"	"2020-02-14 11:23:53.495897"	36	5.67961201666667
"S200214"	"Response_Inhibition"	"RIGHT"	"RIGHT"	660.499000000016	1000.000002	n/a	n/a	n/a	n/a	n/a	n/a	n/a	"2020-02-14 11:23:54.505504"	"2020-02-14 11:23:55.374661"	37	5.67961201666667
"S200214"	"Response_Inhibition"	"LEFT"	"LEFT"	330.243499999995	1300.0000026	n/a	n/a	n/a	n/a	n/a	n/a	n/a	"2020-02-14 11:23:56.683202"	"2020-02-14 11:23:57.222614"	38	5.67961201666667
"S200214"	"Response_Inhibition"	"LEFT"	"LEFT"	424.748800000032	733.3333348	n/a	n/a	n/a	n/a	n/a	n/a	n/a	"2020-02-14 11:23:57.965291"	"2020-02-14 11:23:58.598517"	39	5.67961201666667
"S200214"	"Response_Inhibition"	"LEFT"	"Time_Max_Exceeded"	1500.04803340001	633.3333346	n/a	n/a	n/a	n/a	n/a	n/a	n/a	"2020-02-14 11:23:59.241797"	"2020-02-14 11:24:00.744873"	40	5.67961201666667
"S200214"	"Response_Inhibition"	"RIGHT"	"RIGHT"	392.53819999999	666.666668	n/a	n/a	n/a	n/a	n/a	n/a	n/a	"2020-02-14 11:24:01.421169"	"2020-02-14 11:24:02.021349"	41	5.67961201666667
"S200214"	"Response_Inhibition"	"RIGHT"	"RIGHT"	452.423099999976	1266.6666692	n/a	n/a	n/a	n/a	n/a	n/a	n/a	"2020-02-14 11:24:03.297227"	"2020-02-14 11:24:03.958154"	42	5.67961201666667
"S200214"	"Response_Inhibition"	"LEFT"	"Time_Max_Exceeded"	1500.05280010004	950.0000019	n/a	n/a	n/a	n/a	n/a	n/a	n/a	"2020-02-14 11:24:04.917658"	"2020-02-14 11:24:06.421373"	43	5.67961201666667
"S200214"	"Response_Inhibition"	"LEFT"	"LEFT"	505.436000000032	1350.0000027	n/a	n/a	n/a	n/a	n/a	n/a	n/a	"2020-02-14 11:24:07.780514"	"2020-02-14 11:24:08.493601"	44	5.67961201666667
"S200214"	"Response_Inhibition"	"RIGHT"	"RIGHT"	328.860199999951	533.3333344	n/a	n/a	n/a	n/a	n/a	n/a	n/a	"2020-02-14 11:24:09.036655"	"2020-02-14 11:24:09.573250"	45	5.67961201666667
"S200214"	"Response_Inhibition"	"RIGHT"	"RIGHT"	642.788399999972	533.3333344	n/a	n/a	n/a	n/a	n/a	n/a	n/a	"2020-02-14 11:24:10.114895"	"2020-02-14 11:24:10.966214"	46	5.67961201666667
"S200214"	"Response_Inhibition"	"RIGHT"	"RIGHT"	382.52030000001	1400.0000028	n/a	n/a	n/a	n/a	n/a	n/a	n/a	"2020-02-14 11:24:12.374983"	"2020-02-14 11:24:12.966667"	47	5.67961201666667
"S200214"	"Response_Inhibition"	"RIGHT"	"RIGHT"	338.447799999983	1300.0000026	n/a	n/a	n/a	n/a	n/a	n/a	n/a	"2020-02-14 11:24:14.275815"	"2020-02-14 11:24:14.822308"	48	5.67961201666667
"S200214"	"Response_Inhibition"	"LEFT"	"Time_Max_Exceeded"	1500.05583349999	1400.0000028	n/a	n/a	n/a	n/a	n/a	n/a	n/a	"2020-02-14 11:24:16.231571"	"2020-02-14 11:24:17.734713"	49	5.67961201666667
"S200214"	"Response_Inhibition"	"RIGHT"	"RIGHT"	326.029133799944	516.6666677	n/a	n/a	n/a	n/a	n/a	n/a	n/a	"2020-02-14 11:24:18.260904"	"2020-02-14 11:24:18.797605"	50	5.67961201666667
"S200214"	"Response_Inhibition"	"LEFT"	"LEFT"	453.765299999986	850.0000017	n/a	n/a	n/a	n/a	n/a	n/a	n/a	"2020-02-14 11:24:19.656408"	"2020-02-14 11:24:20.317951"	51	5.67961201666667
"S200214"	"Response_Inhibition"	"LEFT"	"LEFT"	454.112733900015	916.6666685	n/a	n/a	n/a	n/a	n/a	n/a	n/a	"2020-02-14 11:24:21.244908"	"2020-02-14 11:24:21.910381"	52	5.67961201666667
"S200214"	"Response_Inhibition"	"RIGHT"	"RIGHT"	345.551599999965	1333.333336	n/a	n/a	n/a	n/a	n/a	n/a	n/a	"2020-02-14 11:24:23.252341"	"2020-02-14 11:24:23.807079"	53	5.67961201666667
"S200214"	"Response_Inhibition"	"RIGHT"	"RIGHT"	458.54193380003	1000.000002	n/a	n/a	n/a	n/a	n/a	n/a	n/a	"2020-02-14 11:24:24.815882"	"2020-02-14 11:24:25.485402"	54	5.67961201666667
"S200214"	"Response_Inhibition"	"RIGHT"	"RIGHT"	784.346599999992	966.6666686	n/a	n/a	n/a	n/a	n/a	n/a	n/a	"2020-02-14 11:24:26.461186"	"2020-02-14 11:24:27.454468"	55	5.67961201666667
"S200214"	"Response_Inhibition"	"RIGHT"	"Time_Max_Exceeded"	1500.05620019999	833.333335	n/a	n/a	n/a	n/a	n/a	n/a	n/a	"2020-02-14 11:24:28.297005"	"2020-02-14 11:24:29.800657"	56	5.67961201666667
"S200214"	"Response_Inhibition"	"LEFT"	"LEFT"	483.012499999973	1416.6666695	n/a	n/a	n/a	n/a	n/a	n/a	n/a	"2020-02-14 11:24:31.226897"	"2020-02-14 11:24:31.918661"	57	5.67961201666667
"S200214"	"Response_Inhibition"	"RIGHT"	"RIGHT"	661.284899999998	1233.3333358	n/a	n/a	n/a	n/a	n/a	n/a	n/a	"2020-02-14 11:24:33.160877"	"2020-02-14 11:24:34.028961"	58	5.67961201666667
"S200214"	"Response_Inhibition"	"RIGHT"	"RIGHT"	659.205299999996	900.0000018	n/a	n/a	n/a	n/a	n/a	n/a	n/a	"2020-02-14 11:24:34.939020"	"2020-02-14 11:24:35.804925"	59	5.67961201666667
"S200214"	"Response_Inhibition"	"LEFT"	"Time_Max_Exceeded"	1500.05430049999	866.6666684	n/a	n/a	n/a	n/a	n/a	n/a	n/a	"2020-02-14 11:24:36.681627"	"2020-02-14 11:24:38.184987"	60	5.67961201666667
"S200214"	"Response_Inhibition"	"RIGHT"	"RIGHT"	582.807700000046	1100.0000022	n/a	n/a	n/a	n/a	n/a	n/a	n/a	"2020-02-14 11:24:39.295305"	"2020-02-14 11:24:40.086488"	61	5.67961201666667
"S200214"	"Response_Inhibition"	"RIGHT"	"Time_Max_Exceeded"	1500.05340019999	1066.6666688	n/a	n/a	n/a	n/a	n/a	n/a	n/a	"2020-02-14 11:24:41.162289"	"2020-02-14 11:24:42.666223"	62	5.67961201666667
"S200214"	"Response_Inhibition"	"RIGHT"	"RIGHT"	510.328800000025	1100.0000022	n/a	n/a	n/a	n/a	n/a	n/a	n/a	"2020-02-14 11:24:43.775280"	"2020-02-14 11:24:44.494383"	63	5.67961201666667
"S200214"	"Response_Inhibition"	"LEFT"	"LEFT"	656.906600000013	1316.6666693	n/a	n/a	n/a	n/a	n/a	n/a	n/a	"2020-02-14 11:24:45.821373"	"2020-02-14 11:24:46.685571"	64	5.67961201666667
"S200214"	"Response_Inhibition"	"LEFT"	"Time_Max_Exceeded"	1500.07570060001	1450.0000029	n/a	n/a	n/a	n/a	n/a	n/a	n/a	"2020-02-14 11:24:48.146250"	"2020-02-14 11:24:49.650371"	65	5.67961201666667
"S200214"	"Response_Inhibition"	"RIGHT"	"Time_Max_Exceeded"	1500.045767	733.3333348	n/a	n/a	n/a	n/a	n/a	n/a	n/a	"2020-02-14 11:24:50.393558"	"2020-02-14 11:24:51.896624"	66	5.67961201666667
"S200214"	"Response_Inhibition"	"RIGHT"	"RIGHT"	631.727000000012	683.3333347	n/a	n/a	n/a	n/a	n/a	n/a	n/a	"2020-02-14 11:24:52.590447"	"2020-02-14 11:24:53.430641"	67	5.67961201666667
"S200214"	"Response_Inhibition"	"RIGHT"	"RIGHT"	837.170800000024	633.3333346	n/a	n/a	n/a	n/a	n/a	n/a	n/a	"2020-02-14 11:24:54.072541"	"2020-02-14 11:24:55.117704"	68	5.67961201666667
"S200214"	"Response_Inhibition"	"LEFT"	"LEFT"	517.004799999995	633.3333346	n/a	n/a	n/a	n/a	n/a	n/a	n/a	"2020-02-14 11:24:55.760635"	"2020-02-14 11:24:56.485195"	69	5.67961201666667
"S200214"	"Response_Inhibition"	"LEFT"	"Time_Max_Exceeded"	1500.04943359996	1366.6666694	n/a	n/a	n/a	n/a	n/a	n/a	n/a	"2020-02-14 11:24:57.860980"	"2020-02-14 11:24:59.365000"	70	5.67961201666667
"S200214"	"Response_Inhibition"	"LEFT"	"LEFT"	684.059100000013	1050.0000021	n/a	n/a	n/a	n/a	n/a	n/a	n/a	"2020-02-14 11:25:00.425708"	"2020-02-14 11:25:01.317402"	71	5.67961201666667
"S200214"	"Response_Inhibition"	"RIGHT"	"Time_Max_Exceeded"	1500.05316719999	900.0000018	n/a	n/a	n/a	n/a	n/a	n/a	n/a	"2020-02-14 11:25:02.226452"	"2020-02-14 11:25:03.730469"	72	5.67961201666667
"S200214"	"Response_Inhibition"	"LEFT"	"LEFT"	487.660000000005	1233.3333358	n/a	n/a	n/a	n/a	n/a	n/a	n/a	"2020-02-14 11:25:04.974707"	"2020-02-14 11:25:05.669848"	73	5.67961201666667
"S200214"	"Response_Inhibition"	"RIGHT"	"Time_Max_Exceeded"	1500.05790019998	600.0000012	n/a	n/a	n/a	n/a	n/a	n/a	n/a	"2020-02-14 11:25:06.279774"	"2020-02-14 11:25:07.783063"	74	5.67961201666667
"S200214"	"Response_Inhibition"	"RIGHT"	"RIGHT"	369.357999999977	1500.000003	n/a	n/a	n/a	n/a	n/a	n/a	n/a	"2020-02-14 11:25:09.292727"	"2020-02-14 11:25:09.869814"	75	5.67961201666667
"S200214"	"Response_Inhibition"	"RIGHT"	"RIGHT"	624.41339999998	750.0000015	n/a	n/a	n/a	n/a	n/a	n/a	n/a	"2020-02-14 11:25:10.629751"	"2020-02-14 11:25:11.461120"	76	5.67961201666667
"S200214"	"Response_Inhibition"	"LEFT"	"Time_Max_Exceeded"	1500.06060030001	1216.6666691	n/a	n/a	n/a	n/a	n/a	n/a	n/a	"2020-02-14 11:25:12.687088"	"2020-02-14 11:25:14.191041"	77	5.67961201666667
"S200214"	"Response_Inhibition"	"RIGHT"	"Time_Max_Exceeded"	1500.05243379999	1483.3333363	n/a	n/a	n/a	n/a	n/a	n/a	n/a	"2020-02-14 11:25:15.684189"	"2020-02-14 11:25:17.187594"	78	5.67961201666667
"S200214"	"Response_Inhibition"	"RIGHT"	"RIGHT"	509.765799999968	1050.0000021	n/a	n/a	n/a	n/a	n/a	n/a	n/a	"2020-02-14 11:25:18.248564"	"2020-02-14 11:25:18.964970"	79	5.67961201666667
"S200214"	"Response_Inhibition"	"RIGHT"	"RIGHT"	738.008199999967	950.0000019	n/a	n/a	n/a	n/a	n/a	n/a	n/a	"2020-02-14 11:25:19.923601"	"2020-02-14 11:25:20.870026"	80	5.67961201666667
"S200214"	"Response_Inhibition"	"RIGHT"	"Time_Max_Exceeded"	1500.04703370004	916.6666685	n/a	n/a	n/a	n/a	n/a	n/a	n/a	"2020-02-14 11:25:21.795562"	"2020-02-14 11:25:23.298093"	81	5.67961201666667
"S200214"	"Response_Inhibition"	"LEFT"	"LEFT"	462.643299999968	1466.6666696	n/a	n/a	n/a	n/a	n/a	n/a	n/a	"2020-02-14 11:25:24.775389"	"2020-02-14 11:25:25.444911"	82	5.67961201666667
"S200214"	"Response_Inhibition"	"RIGHT"	"Time_Max_Exceeded"	1500.0549672	633.3333346	n/a	n/a	n/a	n/a	n/a	n/a	n/a	"2020-02-14 11:25:26.087694"	"2020-02-14 11:25:27.590924"	83	5.67961201666667
"S200214"	"Response_Inhibition"	"LEFT"	"Time_Max_Exceeded"	1500.04983339996	1050.0000021	n/a	n/a	n/a	n/a	n/a	n/a	n/a	"2020-02-14 11:25:28.650759"	"2020-02-14 11:25:30.153418"	84	5.67961201666667
"S200214"	"Response_Inhibition"	"RIGHT"	"Time_Max_Exceeded"	1500.05000060003	1350.0000027	n/a	n/a	n/a	n/a	n/a	n/a	n/a	"2020-02-14 11:25:31.513208"	"2020-02-14 11:25:33.017087"	85	5.67961201666667
"S200214"	"Response_Inhibition"	"LEFT"	"LEFT"	608.627600000091	1250.0000025	n/a	n/a	n/a	n/a	n/a	n/a	n/a	"2020-02-14 11:25:34.277198"	"2020-02-14 11:25:35.094393"	86	5.67961201666667
"S200214"	"Response_Inhibition"	"LEFT"	"LEFT"	914.488399999982	1066.6666688	n/a	n/a	n/a	n/a	n/a	n/a	n/a	"2020-02-14 11:25:36.171397"	"2020-02-14 11:25:37.293986"	87	5.67961201666667
"S200214"	"Response_Inhibition"	"LEFT"	"LEFT"	755.531200000064	883.3333351	n/a	n/a	n/a	n/a	n/a	n/a	n/a	"2020-02-14 11:25:38.186759"	"2020-02-14 11:25:39.150362"	88	5.67961201666667
"S200214"	"Response_Inhibition"	"RIGHT"	"RIGHT"	682.022400000051	1116.6666689	n/a	n/a	n/a	n/a	n/a	n/a	n/a	"2020-02-14 11:25:40.276143"	"2020-02-14 11:25:41.165156"	89	5.67961201666667
"S200214"	"Response_Inhibition"	"RIGHT"	"RIGHT"	590.333500000042	1416.6666695	n/a	n/a	n/a	n/a	n/a	n/a	n/a	"2020-02-14 11:25:42.591249"	"2020-02-14 11:25:43.389982"	90	5.67961201666667
"S200214"	"Response_Inhibition"	"RIGHT"	"RIGHT"	783.540600000038	550.0000011	n/a	n/a	n/a	n/a	n/a	n/a	n/a	"2020-02-14 11:25:43.949989"	"2020-02-14 11:25:44.942433"	91	5.67961201666667
"S200214"	"Response_Inhibition"	"RIGHT"	"RIGHT"	648.265900000069	716.6666681	n/a	n/a	n/a	n/a	n/a	n/a	n/a	"2020-02-14 11:25:45.669956"	"2020-02-14 11:25:46.526349"	92	5.67961201666667
"S200214"	"Response_Inhibition"	"RIGHT"	"RIGHT"	659.60270000005	1450.0000029	n/a	n/a	n/a	n/a	n/a	n/a	n/a	"2020-02-14 11:25:47.986621"	"2020-02-14 11:25:48.853344"	93	5.67961201666667
"S200214"	"Response_Inhibition"	"RIGHT"	"RIGHT"	688.817599999993	766.6666682	n/a	n/a	n/a	n/a	n/a	n/a	n/a	"2020-02-14 11:25:49.628975"	"2020-02-14 11:25:50.526105"	94	5.67961201666667
"S200214"	"Response_Inhibition"	"RIGHT"	"Time_Max_Exceeded"	1500.05816699995	1266.6666692	n/a	n/a	n/a	n/a	n/a	n/a	n/a	"2020-02-14 11:25:51.801225"	"2020-02-14 11:25:53.304610"	95	5.67961201666667
"S200214"	"Response_Inhibition"	"RIGHT"	"Time_Max_Exceeded"	1500.07746709996	1366.6666694	n/a	n/a	n/a	n/a	n/a	n/a	n/a	"2020-02-14 11:25:54.681565"	"2020-02-14 11:25:56.184938"	96	5.67961201666667
"S200214"	"Response_Inhibition"	"LEFT"	"LEFT"	588.677699999948	1383.3333361	n/a	n/a	n/a	n/a	n/a	n/a	n/a	"2020-02-14 11:25:57.577383"	"2020-02-14 11:25:58.374521"	97	5.67961201666667
"S200214"	"Response_Inhibition"	"LEFT"	"LEFT"	422.562000000084	566.6666678	n/a	n/a	n/a	n/a	n/a	n/a	n/a	"2020-02-14 11:25:58.951529"	"2020-02-14 11:25:59.582231"	98	5.67961201666667
"S200214"	"Response_Inhibition"	"RIGHT"	"RIGHT"	763.248599999997	700.0000014	n/a	n/a	n/a	n/a	n/a	n/a	n/a	"2020-02-14 11:26:00.290220"	"2020-02-14 11:26:01.261164"	99	5.67961201666667
"S200214"	"Response_Inhibition"	"RIGHT"	"RIGHT"	651.193499999977	500.000001	n/a	n/a	n/a	n/a	n/a	n/a	n/a	"2020-02-14 11:26:01.771055"	"2020-02-14 11:26:02.630460"	100	5.67961201666667
"S200214"	"Response_Inhibition"	"RIGHT"	"RIGHT"	773.252299999967	1016.6666687	n/a	n/a	n/a	n/a	n/a	n/a	n/a	"2020-02-14 11:26:03.656254"	"2020-02-14 11:26:04.637458"	101	5.67961201666667
"S200214"	"Response_Inhibition"	"LEFT"	"LEFT"	612.344699999994	650.0000013	n/a	n/a	n/a	n/a	n/a	n/a	n/a	"2020-02-14 11:26:05.297826"	"2020-02-14 11:26:06.117205"	102	5.67961201666667
"S200214"	"Response_Inhibition"	"LEFT"	"LEFT"	416.708699999958	716.6666681	n/a	n/a	n/a	n/a	n/a	n/a	n/a	"2020-02-14 11:26:06.844935"	"2020-02-14 11:26:07.469429"	103	5.67961201666667
"S200214"	"Response_Inhibition"	"LEFT"	"Time_Max_Exceeded"	1500.05586670003	583.3333345	n/a	n/a	n/a	n/a	n/a	n/a	n/a	"2020-02-14 11:26:08.062811"	"2020-02-14 11:26:09.566192"	104	5.67961201666667
"S200214"	"Response_Inhibition"	"LEFT"	"LEFT"	649.556500000017	900.0000018	n/a	n/a	n/a	n/a	n/a	n/a	n/a	"2020-02-14 11:26:10.476360"	"2020-02-14 11:26:11.334970"	105	5.67961201666667
"S200214"	"Response_Inhibition"	"LEFT"	"Time_Max_Exceeded"	1500.05650030005	833.333335	n/a	n/a	n/a	n/a	n/a	n/a	n/a	"2020-02-14 11:26:12.177717"	"2020-02-14 11:26:13.680691"	106	5.67961201666667
"S200214"	"Response_Inhibition"	"LEFT"	"LEFT"	591.827099999932	900.0000018	n/a	n/a	n/a	n/a	n/a	n/a	n/a	"2020-02-14 11:26:14.590119"	"2020-02-14 11:26:15.390231"	107	5.67961201666667
"S200214"	"Response_Inhibition"	"RIGHT"	"RIGHT"	607.508400000029	1183.3333357	n/a	n/a	n/a	n/a	n/a	n/a	n/a	"2020-02-14 11:26:16.582051"	"2020-02-14 11:26:17.399824"	108	5.67961201666667
"S200214"	"Response_Inhibition"	"RIGHT"	"Time_Max_Exceeded"	1500.06736680011	783.3333349	n/a	n/a	n/a	n/a	n/a	n/a	n/a	"2020-02-14 11:26:18.191314"	"2020-02-14 11:26:19.695759"	109	5.67961201666667
"S200214"	"Response_Inhibition"	"LEFT"	"Time_Max_Exceeded"	1500.05716690002	1033.3333354	n/a	n/a	n/a	n/a	n/a	n/a	n/a	"2020-02-14 11:26:20.739692"	"2020-02-14 11:26:22.243215"	110	5.67961201666667
"S200214"	"Response_Inhibition"	"RIGHT"	"RIGHT"	485.117700000046	1083.3333355	n/a	n/a	n/a	n/a	n/a	n/a	n/a	"2020-02-14 11:26:23.336462"	"2020-02-14 11:26:24.030068"	111	5.67961201666667
"S200214"	"Response_Inhibition"	"RIGHT"	"RIGHT"	518.775499999947	983.3333353	n/a	n/a	n/a	n/a	n/a	n/a	n/a	"2020-02-14 11:26:25.022912"	"2020-02-14 11:26:25.749370"	112	5.67961201666667
"S200214"	"Response_Inhibition"	"LEFT"	"LEFT"	559.082500000045	800.0000016	n/a	n/a	n/a	n/a	n/a	n/a	n/a	"2020-02-14 11:26:26.558421"	"2020-02-14 11:26:27.326492"	113	5.67961201666667
"S200214"	"Response_Inhibition"	"LEFT"	"LEFT"	544.977099999983	516.6666677	n/a	n/a	n/a	n/a	n/a	n/a	n/a	"2020-02-14 11:26:27.853178"	"2020-02-14 11:26:28.606010"	114	5.67961201666667
"S200214"	"Response_Inhibition"	"LEFT"	"LEFT"	579.659900000024	500.000001	n/a	n/a	n/a	n/a	n/a	n/a	n/a	"2020-02-14 11:26:29.114653"	"2020-02-14 11:26:29.902402"	115	5.67961201666667
"S200214"	"Response_Inhibition"	"RIGHT"	"RIGHT"	478.207699999984	616.6666679	n/a	n/a	n/a	n/a	n/a	n/a	n/a	"2020-02-14 11:26:30.528067"	"2020-02-14 11:26:31.214734"	116	5.67961201666667
"S200214"	"Response_Inhibition"	"RIGHT"	"Time_Max_Exceeded"	1500.05370049997	1166.666669	n/a	n/a	n/a	n/a	n/a	n/a	n/a	"2020-02-14 11:26:32.390687"	"2020-02-14 11:26:33.894691"	117	5.67961201666667
"S200214"	"Response_Inhibition"	"RIGHT"	"RIGHT"	567.266000000018	933.3333352	n/a	n/a	n/a	n/a	n/a	n/a	n/a	"2020-02-14 11:26:34.838855"	"2020-02-14 11:26:35.615349"	118	5.67961201666667
"S200214"	"Response_Inhibition"	"RIGHT"	"RIGHT"	414.314099999956	583.3333345	n/a	n/a	n/a	n/a	n/a	n/a	n/a	"2020-02-14 11:26:36.207365"	"2020-02-14 11:26:36.830025"	119	5.67961201666667
"S200214"	"Response_Inhibition"	"LEFT"	"Time_Max_Exceeded"	1500.04613339998	1333.333336	n/a	n/a	n/a	n/a	n/a	n/a	n/a	"2020-02-14 11:26:38.171531"	"2020-02-14 11:26:39.675091"	120	5.67961201666667
"S200214"	"Response_Inhibition"	"RIGHT"	"RIGHT"	482.825699999921	1150.0000023	n/a	n/a	n/a	n/a	n/a	n/a	n/a	"2020-02-14 11:26:40.834717"	"2020-02-14 11:26:41.526144"	121	5.67961201666667
"S200214"	"Response_Inhibition"	"LEFT"	"LEFT"	486.77269999996	983.3333353	n/a	n/a	n/a	n/a	n/a	n/a	n/a	"2020-02-14 11:26:42.519025"	"2020-02-14 11:26:43.214517"	122	5.67961201666667
"S200214"	"Response_Inhibition"	"LEFT"	"LEFT"	517.627000000061	1016.6666687	n/a	n/a	n/a	n/a	n/a	n/a	n/a	"2020-02-14 11:26:44.240415"	"2020-02-14 11:26:44.966740"	123	5.67961201666667
"S200214"	"Response_Inhibition"	"LEFT"	"LEFT"	598.040099999935	1183.3333357	n/a	n/a	n/a	n/a	n/a	n/a	n/a	"2020-02-14 11:26:46.160149"	"2020-02-14 11:26:46.965006"	124	5.67961201666667
"S200214"	"Response_Inhibition"	"RIGHT"	"RIGHT"	545.506400000022	1316.6666693	n/a	n/a	n/a	n/a	n/a	n/a	n/a	"2020-02-14 11:26:48.292047"	"2020-02-14 11:26:49.046356"	125	5.67961201666667
"S200214"	"Response_Inhibition"	"RIGHT"	"RIGHT"	446.477000000073	1383.3333361	n/a	n/a	n/a	n/a	n/a	n/a	n/a	"2020-02-14 11:26:50.439146"	"2020-02-14 11:26:51.094453"	126	5.67961201666667
"S200214"	"Response_Inhibition"	"LEFT"	"LEFT"	430.171099999939	1366.6666694	n/a	n/a	n/a	n/a	n/a	n/a	n/a	"2020-02-14 11:26:52.471380"	"2020-02-14 11:26:53.109144"	127	5.67961201666667
"S200214"	"Response_Inhibition"	"RIGHT"	"RIGHT"	380.965133699954	566.6666678	n/a	n/a	n/a	n/a	n/a	n/a	n/a	"2020-02-14 11:26:53.685605"	"2020-02-14 11:26:54.277125"	128	5.67961201666667
"S200214"	"Response_Inhibition"	"RIGHT"	"Time_Max_Exceeded"	1500.05396679994	1216.6666691	n/a	n/a	n/a	n/a	n/a	n/a	n/a	"2020-02-14 11:26:55.503654"	"2020-02-14 11:26:57.006106"	129	5.67961201666667
"S200214"	"Response_Inhibition"	"RIGHT"	"Time_Max_Exceeded"	1500.04710010001	1466.6666696	n/a	n/a	n/a	n/a	n/a	n/a	n/a	"2020-02-14 11:26:58.483050"	"2020-02-14 11:26:59.986807"	130	5.67961201666667
"S200214"	"Response_Inhibition"	"LEFT"	"LEFT"	461.629399999993	1500.000003	n/a	n/a	n/a	n/a	n/a	n/a	n/a	"2020-02-14 11:27:01.496557"	"2020-02-14 11:27:02.166631"	131	5.67961201666667
"S200214"	"Response_Inhibition"	"LEFT"	"LEFT"	670.200999999906	616.6666679	n/a	n/a	n/a	n/a	n/a	n/a	n/a	"2020-02-14 11:27:02.791469"	"2020-02-14 11:27:03.670495"	132	5.67961201666667
"S200214"	"Response_Inhibition"	"LEFT"	"Time_Max_Exceeded"	1500.05186690002	1283.3333359	n/a	n/a	n/a	n/a	n/a	n/a	n/a	"2020-02-14 11:27:04.963651"	"2020-02-14 11:27:06.467502"	133	5.67961201666667
"S200214"	"Response_Inhibition"	"LEFT"	"Time_Max_Exceeded"	1500.05746690003	783.3333349	n/a	n/a	n/a	n/a	n/a	n/a	n/a	"2020-02-14 11:27:07.260621"	"2020-02-14 11:27:08.764313"	134	5.67961201666667
"S200214"	"Response_Inhibition"	"RIGHT"	"RIGHT"	535.822800000005	816.6666683	n/a	n/a	n/a	n/a	n/a	n/a	n/a	"2020-02-14 11:27:09.590269"	"2020-02-14 11:27:10.334057"	135	5.67961201666667
"S200214"	"Response_Inhibition"	"LEFT"	"Time_Max_Exceeded"	1500.06510000003	1000.000002	n/a	n/a	n/a	n/a	n/a	n/a	n/a	"2020-02-14 11:27:11.342847"	"2020-02-14 11:27:12.842874"	136	5.67961201666667
"S200214"	"Response_Inhibition"	"RIGHT"	"RIGHT"	505.898699999989	783.3333349	n/a	n/a	n/a	n/a	n/a	n/a	n/a	"2020-02-14 11:27:13.635793"	"2020-02-14 11:27:14.350226"	137	5.67961201666667
"S200214"	"Response_Inhibition"	"LEFT"	"Time_Max_Exceeded"	1500.05423349997	683.3333347	n/a	n/a	n/a	n/a	n/a	n/a	n/a	"2020-02-14 11:27:15.042031"	"2020-02-14 11:27:16.545319"	138	5.67961201666667
"S200214"	"Response_Inhibition"	"RIGHT"	"RIGHT"	388.299899999993	1150.0000023	n/a	n/a	n/a	n/a	n/a	n/a	n/a	"2020-02-14 11:27:17.705455"	"2020-02-14 11:27:18.302700"	139	5.67961201666667
"S200214"	"Response_Inhibition"	"RIGHT"	"RIGHT"	508.055799999966	850.0000017	n/a	n/a	n/a	n/a	n/a	n/a	n/a	"2020-02-14 11:27:19.162019"	"2020-02-14 11:27:19.877515"	140	5.67961201666667
"S200214"	"Response_Inhibition"	"LEFT"	"Time_Max_Exceeded"	1500.05236719999	766.6666682	n/a	n/a	n/a	n/a	n/a	n/a	n/a	"2020-02-14 11:27:20.654440"	"2020-02-14 11:27:22.157522"	141	5.67961201666667
"S200214"	"Response_Inhibition"	"LEFT"	"LEFT"	467.352500000061	683.3333347	n/a	n/a	n/a	n/a	n/a	n/a	n/a	"2020-02-14 11:27:22.850669"	"2020-02-14 11:27:23.524947"	142	5.67961201666667
"S200214"	"Response_Inhibition"	"RIGHT"	"RIGHT"	456.291299999975	1366.6666694	n/a	n/a	n/a	n/a	n/a	n/a	n/a	"2020-02-14 11:27:24.901794"	"2020-02-14 11:27:25.566845"	143	5.67961201666667
"S200214"	"Response_Inhibition"	"LEFT"	"Time_Max_Exceeded"	1500.08316669998	1266.6666692	n/a	n/a	n/a	n/a	n/a	n/a	n/a	"2020-02-14 11:27:26.843305"	"2020-02-14 11:27:28.346138"	144	5.67961201666667
"S200214"	"Response_Inhibition"	"LEFT"	"LEFT"	561.501399999997	783.3333349	n/a	n/a	n/a	n/a	n/a	n/a	n/a	"2020-02-14 11:27:29.140660"	"2020-02-14 11:27:29.910382"	145	5.67961201666667
"S200214"	"Response_Inhibition"	"LEFT"	"Time_Max_Exceeded"	1500.04550040001	1116.6666689	n/a	n/a	n/a	n/a	n/a	n/a	n/a	"2020-02-14 11:27:31.035561"	"2020-02-14 11:27:32.539372"	146	5.67961201666667
"S200214"	"Response_Inhibition"	"LEFT"	"LEFT"	504.550133899979	733.3333348	n/a	n/a	n/a	n/a	n/a	n/a	n/a	"2020-02-14 11:27:33.281770"	"2020-02-14 11:27:33.996992"	147	5.67961201666667
"S200214"	"Response_Inhibition"	"RIGHT"	"RIGHT"	456.141000000002	800.0000016	n/a	n/a	n/a	n/a	n/a	n/a	n/a	"2020-02-14 11:27:34.805297"	"2020-02-14 11:27:35.469836"	148	5.67961201666667
"S200214"	"Response_Inhibition"	"RIGHT"	"Time_Max_Exceeded"	1500.05556699993	1133.3333356	n/a	n/a	n/a	n/a	n/a	n/a	n/a	"2020-02-14 11:27:36.612821"	"2020-02-14 11:27:38.115571"	149	5.67961201666667
"S200214"	"Response_Inhibition"	"LEFT"	"Time_Max_Exceeded"	1500.07290039992	1483.3333363	n/a	n/a	n/a	n/a	n/a	n/a	n/a	"2020-02-14 11:27:39.609170"	"2020-02-14 11:27:41.113689"	150	5.67961201666667
"S200214"	"Response_Inhibition"	"LEFT"	"LEFT"	553.693899999985	1000.000002	n/a	n/a	n/a	n/a	n/a	n/a	n/a	"2020-02-14 11:27:42.124382"	"2020-02-14 11:27:42.885572"	151	5.67961201666667
"S200214"	"Response_Inhibition"	"RIGHT"	"RIGHT"	434.437667099971	1216.6666691	n/a	n/a	n/a	n/a	n/a	n/a	n/a	"2020-02-14 11:27:44.111811"	"2020-02-14 11:27:44.757421"	152	5.67961201666667
"S200214"	"Response_Inhibition"	"RIGHT"	"RIGHT"	756.513799999993	1033.3333354	n/a	n/a	n/a	n/a	n/a	n/a	n/a	"2020-02-14 11:27:45.801332"	"2020-02-14 11:27:46.765354"	153	5.67961201666667
"S200214"	"Response_Inhibition"	"LEFT"	"LEFT"	1036.68240000002	1466.6666696	n/a	n/a	n/a	n/a	n/a	n/a	n/a	"2020-02-14 11:27:48.241114"	"2020-02-14 11:27:49.485156"	154	5.67961201666667
"S200214"	"Response_Inhibition"	"LEFT"	"LEFT"	525.854099999947	1433.3333362	n/a	n/a	n/a	n/a	n/a	n/a	n/a	"2020-02-14 11:27:50.928351"	"2020-02-14 11:27:51.662050"	155	5.67961201666667
"S200214"	"Response_Inhibition"	"LEFT"	"LEFT"	567.997800000057	1150.0000023	n/a	n/a	n/a	n/a	n/a	n/a	n/a	"2020-02-14 11:27:52.822026"	"2020-02-14 11:27:53.597729"	156	5.67961201666667
"S200214"	"Response_Inhibition"	"RIGHT"	"RIGHT"	642.661399999952	883.3333351	n/a	n/a	n/a	n/a	n/a	n/a	n/a	"2020-02-14 11:27:54.491118"	"2020-02-14 11:27:55.341898"	157	5.67961201666667
"S200214"	"Response_Inhibition"	"RIGHT"	"Time_Max_Exceeded"	1500.06020050001	1416.6666695	n/a	n/a	n/a	n/a	n/a	n/a	n/a	"2020-02-14 11:27:56.767151"	"2020-02-14 11:27:58.271016"	158	5.67961201666667
"S200214"	"Response_Inhibition"	"LEFT"	"LEFT"	487.294700000007	750.0000015	n/a	n/a	n/a	n/a	n/a	n/a	n/a	"2020-02-14 11:27:59.030059"	"2020-02-14 11:27:59.726101"	159	5.67961201666667
"S200214"	"Response_Inhibition"	"LEFT"	"LEFT"	521.70209999997	933.3333352	n/a	n/a	n/a	n/a	n/a	n/a	n/a	"2020-02-14 11:28:00.668317"	"2020-02-14 11:28:01.398268"	160	5.67961201666667
"S200214"	"Response_Selection"	"RIGHT"	"RIGHT"	397.301900000002	1033.3333354	n/a	n/a	n/a	n/a	n/a	n/a	n/a	"2020-02-14 11:20:20.032643"	"2020-02-14 11:20:20.638357"	1	2.72210506666667
"S200214"	"Response_Selection"	"RIGHT"	"RIGHT"	319.558900000004	750.0000015	n/a	n/a	n/a	n/a	n/a	n/a	n/a	"2020-02-14 11:20:21.397920"	"2020-02-14 11:20:21.925837"	2	2.72210506666667
"S200214"	"Response_Selection"	"LEFT"	"LEFT"	245.331999999991	833.333335	n/a	n/a	n/a	n/a	n/a	n/a	n/a	"2020-02-14 11:20:22.769101"	"2020-02-14 11:20:23.222523"	3	2.72210506666667
"S200214"	"Response_Selection"	"RIGHT"	"RIGHT"	237.711200000007	800.0000016	n/a	n/a	n/a	n/a	n/a	n/a	n/a	"2020-02-14 11:20:24.032564"	"2020-02-14 11:20:24.479398"	4	2.72210506666667
"S200214"	"Response_Selection"	"LEFT"	"LEFT"	274.001300000009	1500.000003	n/a	n/a	n/a	n/a	n/a	n/a	n/a	"2020-02-14 11:20:25.988202"	"2020-02-14 11:20:26.469644"	5	2.72210506666667
"S200214"	"Response_Selection"	"RIGHT"	"RIGHT"	243.4686	1066.6666688	n/a	n/a	n/a	n/a	n/a	n/a	n/a	"2020-02-14 11:20:27.546875"	"2020-02-14 11:20:27.998001"	6	2.72210506666667
"S200214"	"Response_Selection"	"RIGHT"	"RIGHT"	355.333400000006	500.000001	n/a	n/a	n/a	n/a	n/a	n/a	n/a	"2020-02-14 11:20:28.506648"	"2020-02-14 11:20:29.068952"	7	2.72210506666667
"S200214"	"Response_Selection"	"LEFT"	"LEFT"	255.551699999984	583.3333345	n/a	n/a	n/a	n/a	n/a	n/a	n/a	"2020-02-14 11:20:29.662429"	"2020-02-14 11:20:30.126823"	8	2.72210506666667
"S200214"	"Response_Selection"	"RIGHT"	"RIGHT"	283.858199999997	1466.6666696	n/a	n/a	n/a	n/a	n/a	n/a	n/a	"2020-02-14 11:20:31.602529"	"2020-02-14 11:20:32.093277"	9	2.72210506666667
"S200214"	"Response_Selection"	"LEFT"	"LEFT"	270.987099999985	1200.0000024	n/a	n/a	n/a	n/a	n/a	n/a	n/a	"2020-02-14 11:20:33.303529"	"2020-02-14 11:20:33.781929"	10	2.72210506666667
"S200214"	"Response_Selection"	"LEFT"	"LEFT"	326.248499999991	1216.6666691	n/a	n/a	n/a	n/a	n/a	n/a	n/a	"2020-02-14 11:20:35.007822"	"2020-02-14 11:20:35.542320"	11	2.72210506666667
"S200214"	"Response_Selection"	"RIGHT"	"RIGHT"	277.307399999984	1016.6666687	n/a	n/a	n/a	n/a	n/a	n/a	n/a	"2020-02-14 11:20:36.568563"	"2020-02-14 11:20:37.054360"	12	2.72210506666667
"S200214"	"Response_Selection"	"LEFT"	"LEFT"	266.746600000005	683.3333347	n/a	n/a	n/a	n/a	n/a	n/a	n/a	"2020-02-14 11:20:37.747026"	"2020-02-14 11:20:38.222152"	13	2.72210506666667
"S200214"	"Response_Selection"	"LEFT"	"LEFT"	332.359300000007	1250.0000025	n/a	n/a	n/a	n/a	n/a	n/a	n/a	"2020-02-14 11:20:39.481777"	"2020-02-14 11:20:40.023130"	14	2.72210506666667
"S200214"	"Response_Selection"	"RIGHT"	"RIGHT"	272.880700000002	733.3333348	n/a	n/a	n/a	n/a	n/a	n/a	n/a	"2020-02-14 11:20:40.765325"	"2020-02-14 11:20:41.245896"	15	2.72210506666667
"S200214"	"Response_Selection"	"RIGHT"	"RIGHT"	305.421999999993	1350.0000027	n/a	n/a	n/a	n/a	n/a	n/a	n/a	"2020-02-14 11:20:42.604310"	"2020-02-14 11:20:43.116937"	16	2.72210506666667
"S200214"	"Response_Selection"	"RIGHT"	"RIGHT"	324.878200000001	1083.3333355	n/a	n/a	n/a	n/a	n/a	n/a	n/a	"2020-02-14 11:20:44.209555"	"2020-02-14 11:20:44.743559"	17	2.72210506666667
"S200214"	"Response_Selection"	"RIGHT"	"RIGHT"	273.141899999985	1300.0000026	n/a	n/a	n/a	n/a	n/a	n/a	n/a	"2020-02-14 11:20:46.052511"	"2020-02-14 11:20:46.532835"	18	2.72210506666667
"S200214"	"Response_Selection"	"LEFT"	"LEFT"	366.062499999998	633.3333346	n/a	n/a	n/a	n/a	n/a	n/a	n/a	"2020-02-14 11:20:47.176116"	"2020-02-14 11:20:47.748843"	19	2.72210506666667
"S200214"	"Response_Selection"	"RIGHT"	"RIGHT"	289.167800000001	783.3333349	n/a	n/a	n/a	n/a	n/a	n/a	n/a	"2020-02-14 11:20:48.540759"	"2020-02-14 11:20:49.038840"	20	2.72210506666667
"S200214"	"Response_Selection"	"RIGHT"	"RIGHT"	363.513600000005	883.3333351	n/a	n/a	n/a	n/a	n/a	n/a	n/a	"2020-02-14 11:20:49.930168"	"2020-02-14 11:20:50.503237"	21	2.72210506666667
"S200214"	"Response_Selection"	"LEFT"	"LEFT"	272.55390000002	733.3333348	n/a	n/a	n/a	n/a	n/a	n/a	n/a	"2020-02-14 11:20:51.245282"	"2020-02-14 11:20:51.725369"	22	2.72210506666667
"S200214"	"Response_Selection"	"LEFT"	"LEFT"	295.637199999987	783.3333349	n/a	n/a	n/a	n/a	n/a	n/a	n/a	"2020-02-14 11:20:52.518772"	"2020-02-14 11:20:53.022516"	23	2.72210506666667
"S200214"	"Response_Selection"	"RIGHT"	"RIGHT"	275.850200000008	1450.0000029	n/a	n/a	n/a	n/a	n/a	n/a	n/a	"2020-02-14 11:20:54.481742"	"2020-02-14 11:20:54.966600"	24	2.72210506666667
"S200214"	"Response_Selection"	"RIGHT"	"RIGHT"	246.593799999999	1116.6666689	n/a	n/a	n/a	n/a	n/a	n/a	n/a	"2020-02-14 11:20:56.095229"	"2020-02-14 11:20:56.549963"	25	2.72210506666667
"S200214"	"Response_Selection"	"RIGHT"	"RIGHT"	247.713400000009	983.3333353	n/a	n/a	n/a	n/a	n/a	n/a	n/a	"2020-02-14 11:20:57.542700"	"2020-02-14 11:20:57.998380"	26	2.72210506666667
"S200214"	"Response_Selection"	"LEFT"	"LEFT"	272.411399999982	750.0000015	n/a	n/a	n/a	n/a	n/a	n/a	n/a	"2020-02-14 11:20:58.757884"	"2020-02-14 11:20:59.238499"	27	2.72210506666667
"S200214"	"Response_Selection"	"RIGHT"	"RIGHT"	281.772099999984	700.0000014	n/a	n/a	n/a	n/a	n/a	n/a	n/a	"2020-02-14 11:20:59.947849"	"2020-02-14 11:21:00.437876"	28	2.72210506666667
"S200214"	"Response_Selection"	"RIGHT"	"RIGHT"	352.121699999998	583.3333345	n/a	n/a	n/a	n/a	n/a	n/a	n/a	"2020-02-14 11:21:01.030319"	"2020-02-14 11:21:01.590801"	29	2.72210506666667
"S200214"	"Response_Selection"	"LEFT"	"LEFT"	344.658100000004	550.0000011	n/a	n/a	n/a	n/a	n/a	n/a	n/a	"2020-02-14 11:21:02.149268"	"2020-02-14 11:21:02.702394"	30	2.72210506666667
"S200214"	"Response_Selection"	"RIGHT"	"RIGHT"	301.54239999996	1400.0000028	n/a	n/a	n/a	n/a	n/a	n/a	n/a	"2020-02-14 11:21:04.112264"	"2020-02-14 11:21:04.622739"	31	2.72210506666667
"S200214"	"Response_Selection"	"RIGHT"	"RIGHT"	258.829900000023	1500.000003	n/a	n/a	n/a	n/a	n/a	n/a	n/a	"2020-02-14 11:21:06.131568"	"2020-02-14 11:21:06.597354"	32	2.72210506666667
"S200214"	"Response_Selection"	"LEFT"	"LEFT"	308.290199999988	866.6666684	n/a	n/a	n/a	n/a	n/a	n/a	n/a	"2020-02-14 11:21:07.473543"	"2020-02-14 11:21:07.989395"	33	2.72210506666667
"S200214"	"Response_Selection"	"LEFT"	"LEFT"	371.862099999987	500.000001	n/a	n/a	n/a	n/a	n/a	n/a	n/a	"2020-02-14 11:21:08.498086"	"2020-02-14 11:21:09.078650"	34	2.72210506666667
"S200214"	"Response_Selection"	"LEFT"	"LEFT"	314.033199999983	700.0000014	n/a	n/a	n/a	n/a	n/a	n/a	n/a	"2020-02-14 11:21:09.787710"	"2020-02-14 11:21:10.309860"	35	2.72210506666667
"S200214"	"Response_Selection"	"LEFT"	"LEFT"	329.098799999997	933.3333352	n/a	n/a	n/a	n/a	n/a	n/a	n/a	"2020-02-14 11:21:11.252834"	"2020-02-14 11:21:11.790420"	36	2.72210506666667
"S200214"	"Response_Selection"	"RIGHT"	"RIGHT"	320.610299999998	1133.3333356	n/a	n/a	n/a	n/a	n/a	n/a	n/a	"2020-02-14 11:21:12.933404"	"2020-02-14 11:21:13.463134"	37	2.72210506666667
"S200214"	"Response_Selection"	"LEFT"	"LEFT"	341.284999999971	800.0000016	n/a	n/a	n/a	n/a	n/a	n/a	n/a	"2020-02-14 11:21:14.272962"	"2020-02-14 11:21:14.823498"	38	2.72210506666667
"S200214"	"Response_Selection"	"LEFT"	"LEFT"	295.152599999994	1166.666669	n/a	n/a	n/a	n/a	n/a	n/a	n/a	"2020-02-14 11:21:15.998938"	"2020-02-14 11:21:16.502710"	39	2.72210506666667
"S200214"	"Response_Selection"	"LEFT"	"LEFT"	305.985399999997	1300.0000026	n/a	n/a	n/a	n/a	n/a	n/a	n/a	"2020-02-14 11:21:17.812184"	"2020-02-14 11:21:18.327157"	40	2.72210506666667
"S200214"	"Response_Selection"	"LEFT"	"LEFT"	320.866299999977	916.6666685	n/a	n/a	n/a	n/a	n/a	n/a	n/a	"2020-02-14 11:21:19.253713"	"2020-02-14 11:21:19.782107"	41	2.72210506666667
"S200214"	"Response_Selection"	"RIGHT"	"RIGHT"	457.152500000007	533.3333344	n/a	n/a	n/a	n/a	n/a	n/a	n/a	"2020-02-14 11:21:20.325360"	"2020-02-14 11:21:20.990177"	42	2.72210506666667
"S200214"	"Response_Selection"	"RIGHT"	"RIGHT"	297.902999999963	1316.6666693	n/a	n/a	n/a	n/a	n/a	n/a	n/a	"2020-02-14 11:21:22.316024"	"2020-02-14 11:21:22.822306"	43	2.72210506666667
"S200214"	"Response_Selection"	"LEFT"	"LEFT"	333.169599999962	650.0000013	n/a	n/a	n/a	n/a	n/a	n/a	n/a	"2020-02-14 11:21:23.480956"	"2020-02-14 11:21:24.022421"	44	2.72210506666667
"S200214"	"Response_Selection"	"RIGHT"	"RIGHT"	301.097900000002	1250.0000025	n/a	n/a	n/a	n/a	n/a	n/a	n/a	"2020-02-14 11:21:25.280645"	"2020-02-14 11:21:25.790125"	45	2.72210506666667
"S200214"	"Response_Selection"	"RIGHT"	"RIGHT"	367.174200000022	600.0000012	n/a	n/a	n/a	n/a	n/a	n/a	n/a	"2020-02-14 11:21:26.399014"	"2020-02-14 11:21:26.975469"	46	2.72210506666667
"S200214"	"Response_Selection"	"LEFT"	"LEFT"	288.80479999998	1316.6666693	n/a	n/a	n/a	n/a	n/a	n/a	n/a	"2020-02-14 11:21:28.301059"	"2020-02-14 11:21:28.799069"	47	2.72210506666667
"S200214"	"Response_Selection"	"RIGHT"	"RIGHT"	345.059499999991	933.3333352	n/a	n/a	n/a	n/a	n/a	n/a	n/a	"2020-02-14 11:21:29.740707"	"2020-02-14 11:21:30.294830"	48	2.72210506666667
"S200214"	"Response_Selection"	"RIGHT"	"RIGHT"	367.491700000016	550.0000011	n/a	n/a	n/a	n/a	n/a	n/a	n/a	"2020-02-14 11:21:30.853976"	"2020-02-14 11:21:31.430619"	49	2.72210506666667
"S200214"	"Response_Selection"	"LEFT"	"LEFT"	246.656900000005	983.3333353	n/a	n/a	n/a	n/a	n/a	n/a	n/a	"2020-02-14 11:21:32.423471"	"2020-02-14 11:21:32.878767"	50	2.72210506666667
"S200214"	"Response_Selection"	"RIGHT"	"RIGHT"	268.034	833.333335	n/a	n/a	n/a	n/a	n/a	n/a	n/a	"2020-02-14 11:21:33.722042"	"2020-02-14 11:21:34.198673"	51	2.72210506666667
"S200214"	"Response_Selection"	"LEFT"	"LEFT"	299.117599999988	1266.6666692	n/a	n/a	n/a	n/a	n/a	n/a	n/a	"2020-02-14 11:21:35.474688"	"2020-02-14 11:21:35.982373"	52	2.72210506666667
"S200214"	"Response_Selection"	"RIGHT"	"RIGHT"	275.028200000008	866.6666684	n/a	n/a	n/a	n/a	n/a	n/a	n/a	"2020-02-14 11:21:36.859307"	"2020-02-14 11:21:37.342484"	53	2.72210506666667
"S200214"	"Response_Selection"	"LEFT"	"LEFT"	260.462599999983	1066.6666688	n/a	n/a	n/a	n/a	n/a	n/a	n/a	"2020-02-14 11:21:38.417629"	"2020-02-14 11:21:38.887684"	54	2.72210506666667
"S200214"	"Response_Selection"	"RIGHT"	"RIGHT"	277.023899999961	1416.6666695	n/a	n/a	n/a	n/a	n/a	n/a	n/a	"2020-02-14 11:21:40.312609"	"2020-02-14 11:21:40.797865"	55	2.72210506666667
"S200214"	"Response_Selection"	"LEFT"	"LEFT"	311.986999999988	1366.6666694	n/a	n/a	n/a	n/a	n/a	n/a	n/a	"2020-02-14 11:21:42.173680"	"2020-02-14 11:21:42.692940"	56	2.72210506666667
"S200214"	"Response_Selection"	"RIGHT"	"RIGHT"	284.346999999968	683.3333347	n/a	n/a	n/a	n/a	n/a	n/a	n/a	"2020-02-14 11:21:43.385582"	"2020-02-14 11:21:43.878436"	57	2.72210506666667
"S200214"	"Response_Selection"	"LEFT"	"LEFT"	375.925499999994	1350.0000027	n/a	n/a	n/a	n/a	n/a	n/a	n/a	"2020-02-14 11:21:45.237797"	"2020-02-14 11:21:45.820967"	58	2.72210506666667
"S200214"	"Response_Selection"	"LEFT"	"LEFT"	308.296600000006	1450.0000029	n/a	n/a	n/a	n/a	n/a	n/a	n/a	"2020-02-14 11:21:47.281466"	"2020-02-14 11:21:47.797958"	59	2.72210506666667
"S200214"	"Response_Selection"	"LEFT"	"LEFT"	298.230399999966	1116.6666689	n/a	n/a	n/a	n/a	n/a	n/a	n/a	"2020-02-14 11:21:48.924097"	"2020-02-14 11:21:49.429952"	60	2.72210506666667
"S200214"	"Response_Selection"	"LEFT"	"LEFT"	283.79659999996	1083.3333355	n/a	n/a	n/a	n/a	n/a	n/a	n/a	"2020-02-14 11:21:50.522119"	"2020-02-14 11:21:51.014804"	61	2.72210506666667
"S200214"	"Response_Selection"	"RIGHT"	"RIGHT"	321.6453	650.0000013	n/a	n/a	n/a	n/a	n/a	n/a	n/a	"2020-02-14 11:21:51.676043"	"2020-02-14 11:21:52.205175"	62	2.72210506666667
"S200214"	"Response_Selection"	"LEFT"	"LEFT"	276.106299999981	883.3333351	n/a	n/a	n/a	n/a	n/a	n/a	n/a	"2020-02-14 11:21:53.097817"	"2020-02-14 11:21:53.583355"	63	2.72210506666667
"S200214"	"Response_Selection"	"RIGHT"	"RIGHT"	265.557599999966	1266.6666692	n/a	n/a	n/a	n/a	n/a	n/a	n/a	"2020-02-14 11:21:54.860911"	"2020-02-14 11:21:55.333854"	64	2.72210506666667
"S200214"	"Response_Selection"	"RIGHT"	"RIGHT"	364.547800000025	633.3333346	n/a	n/a	n/a	n/a	n/a	n/a	n/a	"2020-02-14 11:21:55.977114"	"2020-02-14 11:21:56.550255"	65	2.72210506666667
"S200214"	"Response_Selection"	"LEFT"	"LEFT"	286.384899999973	600.0000012	n/a	n/a	n/a	n/a	n/a	n/a	n/a	"2020-02-14 11:21:57.159597"	"2020-02-14 11:21:57.655330"	66	2.72210506666667
"S200214"	"Response_Selection"	"LEFT"	"LEFT"	245.454699999982	1016.6666687	n/a	n/a	n/a	n/a	n/a	n/a	n/a	"2020-02-14 11:21:58.680205"	"2020-02-14 11:21:59.135381"	67	2.72210506666667
"S200214"	"Response_Selection"	"LEFT"	"LEFT"	315.067499999998	1466.6666696	n/a	n/a	n/a	n/a	n/a	n/a	n/a	"2020-02-14 11:22:00.610510"	"2020-02-14 11:22:01.135144"	68	2.72210506666667
"S200214"	"Response_Selection"	"LEFT"	"LEFT"	280.24929999998	1133.3333356	n/a	n/a	n/a	n/a	n/a	n/a	n/a	"2020-02-14 11:22:02.278098"	"2020-02-14 11:22:02.767696"	69	2.72210506666667
"S200214"	"Response_Selection"	"LEFT"	"LEFT"	299.502399999994	1400.0000028	n/a	n/a	n/a	n/a	n/a	n/a	n/a	"2020-02-14 11:22:04.178764"	"2020-02-14 11:22:04.686775"	70	2.72210506666667
"S200214"	"Response_Selection"	"RIGHT"	"RIGHT"	309.808300000043	1200.0000024	n/a	n/a	n/a	n/a	n/a	n/a	n/a	"2020-02-14 11:22:05.895758"	"2020-02-14 11:22:06.414319"	71	2.72210506666667
"S200214"	"Response_Selection"	"RIGHT"	"RIGHT"	286.432100000013	1216.6666691	n/a	n/a	n/a	n/a	n/a	n/a	n/a	"2020-02-14 11:22:07.639656"	"2020-02-14 11:22:08.134331"	72	2.72210506666667
"S200214"	"Response_Selection"	"LEFT"	"LEFT"	247.24150000003	966.6666686	n/a	n/a	n/a	n/a	n/a	n/a	n/a	"2020-02-14 11:22:09.110826"	"2020-02-14 11:22:09.566151"	73	2.72210506666667
"S200214"	"Response_Selection"	"RIGHT"	"RIGHT"	327.465500000017	1166.666669	n/a	n/a	n/a	n/a	n/a	n/a	n/a	"2020-02-14 11:22:10.742090"	"2020-02-14 11:22:11.278088"	74	2.72210506666667
"S200214"	"Response_Selection"	"LEFT"	"LEFT"	278.647799999987	1416.6666695	n/a	n/a	n/a	n/a	n/a	n/a	n/a	"2020-02-14 11:22:12.703798"	"2020-02-14 11:22:13.190979"	75	2.72210506666667
"S200214"	"Response_Selection"	"LEFT"	"LEFT"	336.554199999966	533.3333344	n/a	n/a	n/a	n/a	n/a	n/a	n/a	"2020-02-14 11:22:13.733154"	"2020-02-14 11:22:14.277987"	76	2.72210506666667
"S200214"	"Response_Selection"	"RIGHT"	"RIGHT"	296.351799999968	1366.6666694	n/a	n/a	n/a	n/a	n/a	n/a	n/a	"2020-02-14 11:22:15.653640"	"2020-02-14 11:22:16.158719"	77	2.72210506666667
"S200214"	"Response_Selection"	"RIGHT"	"RIGHT"	273.004299999968	916.6666685	n/a	n/a	n/a	n/a	n/a	n/a	n/a	"2020-02-14 11:22:17.084460"	"2020-02-14 11:22:17.565516"	78	2.72210506666667
"S200214"	"Response_Selection"	"RIGHT"	"RIGHT"	256.546500000013	966.6666686	n/a	n/a	n/a	n/a	n/a	n/a	n/a	"2020-02-14 11:22:18.541428"	"2020-02-14 11:22:19.006642"	79	2.72210506666667
"S200214"	"Response_Selection"	"LEFT"	"LEFT"	292.946699999959	1033.3333354	n/a	n/a	n/a	n/a	n/a	n/a	n/a	"2020-02-14 11:22:20.049432"	"2020-02-14 11:22:20.550808"	80	2.72210506666667
