"Participant"	"Task"	"Stimulus_Side"	"Response"	"RT"	"ITI"	"Previous_Response"	"Previous_RT"	"Stop_Signal"	"Stop_Signal_RT"	"Conflict"	"Cue_Response"	"Cue_Response_RT"	"Trial_Onset"	"Trial_End"	"Trial_Order"	"Duration"
"S200205"	"Conflict_Resolution"	"RIGHT"	"RIGHT"	969.224899999972	1033.3333354	n/a	n/a	n/a	n/a	"True"	n/a	n/a	"2020-02-05 11:21:13.282692"	"2020-02-05 11:21:14.458828"	1	6.31112093333333
"S200205"	"Conflict_Resolution"	"LEFT"	"LEFT"	663.319199999933	900.0000018	n/a	n/a	n/a	n/a	"True"	n/a	n/a	"2020-02-05 11:21:15.380516"	"2020-02-05 11:21:16.250776"	2	6.31112093333333
"S200205"	"Conflict_Resolution"	"RIGHT"	"RIGHT"	575.645399999985	1333.333336	n/a	n/a	n/a	n/a	"True"	n/a	n/a	"2020-02-05 11:21:17.604063"	"2020-02-05 11:21:18.387079"	3	6.31112093333333
"S200205"	"Conflict_Resolution"	"LEFT"	"LEFT"	612.338199999954	1366.6666694	n/a	n/a	n/a	n/a	"True"	n/a	n/a	"2020-02-05 11:21:19.775410"	"2020-02-05 11:21:20.596237"	4	6.31112093333333
"S200205"	"Conflict_Resolution"	"RIGHT"	"RIGHT"	478.728399999909	500.000001	n/a	n/a	n/a	n/a	"False"	n/a	n/a	"2020-02-05 11:21:21.116392"	"2020-02-05 11:21:21.803557"	5	6.31112093333333
"S200205"	"Conflict_Resolution"	"LEFT"	"LEFT"	550.454899999977	733.3333348	n/a	n/a	n/a	n/a	"True"	n/a	n/a	"2020-02-05 11:21:22.557148"	"2020-02-05 11:21:23.315625"	6	6.31112093333333
"S200205"	"Conflict_Resolution"	"RIGHT"	"RIGHT"	378.461399999992	1416.6666695	n/a	n/a	n/a	n/a	"False"	n/a	n/a	"2020-02-05 11:21:24.752843"	"2020-02-05 11:21:25.341599"	7	6.31112093333333
"S200205"	"Conflict_Resolution"	"LEFT"	"LEFT"	413.868400000069	1316.6666693	n/a	n/a	n/a	n/a	"False"	n/a	n/a	"2020-02-05 11:21:26.677696"	"2020-02-05 11:21:27.299779"	8	6.31112093333333
"S200205"	"Conflict_Resolution"	"LEFT"	"LEFT"	449.485499999923	1266.6666692	n/a	n/a	n/a	n/a	"False"	n/a	n/a	"2020-02-05 11:21:28.585885"	"2020-02-05 11:21:29.243612"	9	6.31112093333333
"S200205"	"Conflict_Resolution"	"RIGHT"	"RIGHT"	369.513400000073	1233.3333358	n/a	n/a	n/a	n/a	"False"	n/a	n/a	"2020-02-05 11:21:30.497797"	"2020-02-05 11:21:31.076261"	10	6.31112093333333
"S200205"	"Conflict_Resolution"	"LEFT"	"LEFT"	380.094199999917	566.6666678	n/a	n/a	n/a	n/a	"False"	n/a	n/a	"2020-02-05 11:21:31.663687"	"2020-02-05 11:21:32.252212"	11	6.31112093333333
"S200205"	"Conflict_Resolution"	"RIGHT"	"RIGHT"	439.994699999943	1283.3333359	n/a	n/a	n/a	n/a	"True"	n/a	n/a	"2020-02-05 11:21:33.555109"	"2020-02-05 11:21:34.203414"	12	6.31112093333333
"S200205"	"Conflict_Resolution"	"LEFT"	"LEFT"	495.797799999991	516.6666677	n/a	n/a	n/a	n/a	"True"	n/a	n/a	"2020-02-05 11:21:34.739994"	"2020-02-05 11:21:35.444242"	13	6.31112093333333
"S200205"	"Conflict_Resolution"	"LEFT"	"RIGHT"	386.542700000064	816.6666683	n/a	n/a	n/a	n/a	"True"	n/a	n/a	"2020-02-05 11:21:36.280319"	"2020-02-05 11:21:36.875008"	14	6.31112093333333
"S200205"	"Conflict_Resolution"	"LEFT"	"LEFT"	362.614899999926	1050.0000021	n/a	n/a	n/a	n/a	"False"	n/a	n/a	"2020-02-05 11:21:37.944652"	"2020-02-05 11:21:38.514983"	15	6.31112093333333
"S200205"	"Conflict_Resolution"	"LEFT"	"LEFT"	442.987300000027	1466.6666696	n/a	n/a	n/a	n/a	"True"	n/a	n/a	"2020-02-05 11:21:40.000180"	"2020-02-05 11:21:40.650703"	16	6.31112093333333
"S200205"	"Conflict_Resolution"	"LEFT"	"LEFT"	343.585199999893	916.6666685	n/a	n/a	n/a	n/a	"False"	n/a	n/a	"2020-02-05 11:21:41.587403"	"2020-02-05 11:21:42.139920"	17	6.31112093333333
"S200205"	"Conflict_Resolution"	"RIGHT"	"RIGHT"	564.958300000058	583.3333345	n/a	n/a	n/a	n/a	"False"	n/a	n/a	"2020-02-05 11:21:42.742652"	"2020-02-05 11:21:43.516354"	18	6.31112093333333
"S200205"	"Conflict_Resolution"	"LEFT"	"LEFT"	575.210699999957	1316.6666693	n/a	n/a	n/a	n/a	"True"	n/a	n/a	"2020-02-05 11:21:44.851857"	"2020-02-05 11:21:45.636386"	19	6.31112093333333
"S200205"	"Conflict_Resolution"	"RIGHT"	"RIGHT"	618.839399999956	1000.000002	n/a	n/a	n/a	n/a	"True"	n/a	n/a	"2020-02-05 11:21:46.656846"	"2020-02-05 11:21:47.482779"	20	6.31112093333333
"S200205"	"Conflict_Resolution"	"RIGHT"	"RIGHT"	618.227499999989	633.3333346	n/a	n/a	n/a	n/a	"True"	n/a	n/a	"2020-02-05 11:21:48.137117"	"2020-02-05 11:21:48.964289"	21	6.31112093333333
"S200205"	"Conflict_Resolution"	"RIGHT"	"RIGHT"	439.488099999949	1100.0000022	n/a	n/a	n/a	n/a	"False"	n/a	n/a	"2020-02-05 11:21:50.084326"	"2020-02-05 11:21:50.731448"	22	6.31112093333333
"S200205"	"Conflict_Resolution"	"LEFT"	"LEFT"	430.142899999964	1350.0000027	n/a	n/a	n/a	n/a	"False"	n/a	n/a	"2020-02-05 11:21:52.101674"	"2020-02-05 11:21:52.739064"	23	6.31112093333333
"S200205"	"Conflict_Resolution"	"LEFT"	"LEFT"	539.835100000005	1200.0000024	n/a	n/a	n/a	n/a	"True"	n/a	n/a	"2020-02-05 11:21:53.959845"	"2020-02-05 11:21:54.708454"	24	6.31112093333333
"S200205"	"Conflict_Resolution"	"LEFT"	"LEFT"	483.152000000018	583.3333345	n/a	n/a	n/a	n/a	"True"	n/a	n/a	"2020-02-05 11:21:55.312154"	"2020-02-05 11:21:56.003259"	25	6.31112093333333
"S200205"	"Conflict_Resolution"	"RIGHT"	"LEFT"	488.367100000005	683.3333347	n/a	n/a	n/a	n/a	"True"	n/a	n/a	"2020-02-05 11:21:56.707380"	"2020-02-05 11:21:57.403684"	26	6.31112093333333
"S200205"	"Conflict_Resolution"	"RIGHT"	"RIGHT"	590.068199999905	750.0000015	n/a	n/a	n/a	n/a	"True"	n/a	n/a	"2020-02-05 11:21:58.173670"	"2020-02-05 11:21:58.970849"	27	6.31112093333333
"S200205"	"Conflict_Resolution"	"RIGHT"	"RIGHT"	578.289499999983	1233.3333358	n/a	n/a	n/a	n/a	"True"	n/a	n/a	"2020-02-05 11:22:00.224766"	"2020-02-05 11:22:01.011681"	28	6.31112093333333
"S200205"	"Conflict_Resolution"	"LEFT"	"LEFT"	487.13209999994	1300.0000026	n/a	n/a	n/a	n/a	"True"	n/a	n/a	"2020-02-05 11:22:02.332233"	"2020-02-05 11:22:03.028128"	29	6.31112093333333
"S200205"	"Conflict_Resolution"	"RIGHT"	"RIGHT"	357.879999999909	1333.333336	n/a	n/a	n/a	n/a	"False"	n/a	n/a	"2020-02-05 11:22:04.381917"	"2020-02-05 11:22:04.948391"	30	6.31112093333333
"S200205"	"Conflict_Resolution"	"RIGHT"	"RIGHT"	536.116200000038	1466.6666696	n/a	n/a	n/a	n/a	"True"	n/a	n/a	"2020-02-05 11:22:06.435446"	"2020-02-05 11:22:07.178881"	31	6.31112093333333
"S200205"	"Conflict_Resolution"	"RIGHT"	"RIGHT"	483.420099999989	633.3333346	n/a	n/a	n/a	n/a	"False"	n/a	n/a	"2020-02-05 11:22:07.832001"	"2020-02-05 11:22:08.524516"	32	6.31112093333333
"S200205"	"Conflict_Resolution"	"RIGHT"	"RIGHT"	426.922999999988	1000.000002	n/a	n/a	n/a	n/a	"False"	n/a	n/a	"2020-02-05 11:22:09.545058"	"2020-02-05 11:22:10.180159"	33	6.31112093333333
"S200205"	"Conflict_Resolution"	"RIGHT"	"RIGHT"	447.760000000017	1483.3333363	n/a	n/a	n/a	n/a	"False"	n/a	n/a	"2020-02-05 11:22:11.683918"	"2020-02-05 11:22:12.339821"	34	6.31112093333333
"S200205"	"Conflict_Resolution"	"RIGHT"	"LEFT"	404.112899999973	800.0000016	n/a	n/a	n/a	n/a	"True"	n/a	n/a	"2020-02-05 11:22:13.159755"	"2020-02-05 11:22:13.771774"	35	6.31112093333333
"S200205"	"Conflict_Resolution"	"LEFT"	"LEFT"	587.127299999906	1400.0000028	n/a	n/a	n/a	n/a	"False"	n/a	n/a	"2020-02-05 11:22:15.192390"	"2020-02-05 11:22:15.988014"	36	6.31112093333333
"S200205"	"Conflict_Resolution"	"LEFT"	"LEFT"	635.923600000069	1216.6666691	n/a	n/a	n/a	n/a	"True"	n/a	n/a	"2020-02-05 11:22:17.224080"	"2020-02-05 11:22:18.067886"	37	6.31112093333333
"S200205"	"Conflict_Resolution"	"LEFT"	"LEFT"	593.649599999935	1450.0000029	n/a	n/a	n/a	n/a	"True"	n/a	n/a	"2020-02-05 11:22:19.537982"	"2020-02-05 11:22:20.338730"	38	6.31112093333333
"S200205"	"Conflict_Resolution"	"RIGHT"	"RIGHT"	499.644800000056	800.0000016	n/a	n/a	n/a	n/a	"False"	n/a	n/a	"2020-02-05 11:22:21.159282"	"2020-02-05 11:22:21.867459"	39	6.31112093333333
"S200205"	"Conflict_Resolution"	"LEFT"	"LEFT"	528.398599999946	866.6666684	n/a	n/a	n/a	n/a	"True"	n/a	n/a	"2020-02-05 11:22:22.754569"	"2020-02-05 11:22:23.491664"	40	6.31112093333333
"S200205"	"Conflict_Resolution"	"RIGHT"	"RIGHT"	622.38119999995	1133.3333356	n/a	n/a	n/a	n/a	"True"	n/a	n/a	"2020-02-05 11:22:24.645303"	"2020-02-05 11:22:25.474818"	41	6.31112093333333
"S200205"	"Conflict_Resolution"	"LEFT"	"LEFT"	598.809500000016	533.3333344	n/a	n/a	n/a	n/a	"True"	n/a	n/a	"2020-02-05 11:22:26.028897"	"2020-02-05 11:22:26.835541"	42	6.31112093333333
"S200205"	"Conflict_Resolution"	"RIGHT"	"RIGHT"	532.754699999941	933.3333352	n/a	n/a	n/a	n/a	"True"	n/a	n/a	"2020-02-05 11:22:27.790897"	"2020-02-05 11:22:28.531539"	43	6.31112093333333
"S200205"	"Conflict_Resolution"	"LEFT"	"LEFT"	482.338400000003	1466.6666696	n/a	n/a	n/a	n/a	"False"	n/a	n/a	"2020-02-05 11:22:30.016922"	"2020-02-05 11:22:30.707580"	44	6.31112093333333
"S200205"	"Conflict_Resolution"	"RIGHT"	"RIGHT"	723.072399999978	1433.3333362	n/a	n/a	n/a	n/a	"True"	n/a	n/a	"2020-02-05 11:22:32.160375"	"2020-02-05 11:22:33.091721"	45	6.31112093333333
"S200205"	"Conflict_Resolution"	"RIGHT"	"RIGHT"	395.04629999999	1033.3333354	n/a	n/a	n/a	n/a	"False"	n/a	n/a	"2020-02-05 11:22:34.144935"	"2020-02-05 11:22:34.746866"	46	6.31112093333333
"S200205"	"Conflict_Resolution"	"RIGHT"	"RIGHT"	421.925800000054	1366.6666694	n/a	n/a	n/a	n/a	"False"	n/a	n/a	"2020-02-05 11:22:36.132984"	"2020-02-05 11:22:36.765288"	47	6.31112093333333
"S200205"	"Conflict_Resolution"	"RIGHT"	"RIGHT"	453.98119999993	683.3333347	n/a	n/a	n/a	n/a	"False"	n/a	n/a	"2020-02-05 11:22:37.469376"	"2020-02-05 11:22:38.131765"	48	6.31112093333333
"S200205"	"Conflict_Resolution"	"LEFT"	"LEFT"	433.798999999908	1250.0000025	n/a	n/a	n/a	n/a	"False"	n/a	n/a	"2020-02-05 11:22:39.402265"	"2020-02-05 11:22:40.045156"	49	6.31112093333333
"S200205"	"Conflict_Resolution"	"LEFT"	"LEFT"	539.528599999926	1166.666669	n/a	n/a	n/a	n/a	"True"	n/a	n/a	"2020-02-05 11:22:41.232123"	"2020-02-05 11:22:41.979335"	50	6.31112093333333
"S200205"	"Conflict_Resolution"	"RIGHT"	"RIGHT"	562.138800000071	833.333335	n/a	n/a	n/a	n/a	"True"	n/a	n/a	"2020-02-05 11:22:42.833596"	"2020-02-05 11:22:43.604144"	51	6.31112093333333
"S200205"	"Conflict_Resolution"	"RIGHT"	"RIGHT"	388.800700000047	783.3333349	n/a	n/a	n/a	n/a	"False"	n/a	n/a	"2020-02-05 11:22:44.406610"	"2020-02-05 11:22:45.003947"	52	6.31112093333333
"S200205"	"Conflict_Resolution"	"LEFT"	"LEFT"	500.112700000045	1000.000002	n/a	n/a	n/a	n/a	"True"	n/a	n/a	"2020-02-05 11:22:46.023248"	"2020-02-05 11:22:46.732372"	53	6.31112093333333
"S200205"	"Conflict_Resolution"	"RIGHT"	"RIGHT"	501.499999999965	983.3333353	n/a	n/a	n/a	n/a	"False"	n/a	n/a	"2020-02-05 11:22:47.733702"	"2020-02-05 11:22:48.442708"	54	6.31112093333333
"S200205"	"Conflict_Resolution"	"LEFT"	"LEFT"	542.577999999935	566.6666678	n/a	n/a	n/a	n/a	"True"	n/a	n/a	"2020-02-05 11:22:49.028619"	"2020-02-05 11:22:49.780925"	55	6.31112093333333
"S200205"	"Conflict_Resolution"	"LEFT"	"LEFT"	544.958299999962	1250.0000025	n/a	n/a	n/a	n/a	"True"	n/a	n/a	"2020-02-05 11:22:51.050759"	"2020-02-05 11:22:51.804617"	56	6.31112093333333
"S200205"	"Conflict_Resolution"	"LEFT"	"LEFT"	382.712800000036	1300.0000026	n/a	n/a	n/a	n/a	"False"	n/a	n/a	"2020-02-05 11:22:53.124311"	"2020-02-05 11:22:53.714647"	57	6.31112093333333
"S200205"	"Conflict_Resolution"	"RIGHT"	"RIGHT"	470.061699999974	1383.3333361	n/a	n/a	n/a	n/a	"False"	n/a	n/a	"2020-02-05 11:22:55.117709"	"2020-02-05 11:22:55.794652"	58	6.31112093333333
"S200205"	"Conflict_Resolution"	"RIGHT"	"RIGHT"	459.230700000035	1433.3333362	n/a	n/a	n/a	n/a	"False"	n/a	n/a	"2020-02-05 11:22:57.248692"	"2020-02-05 11:22:57.915019"	59	6.31112093333333
"S200205"	"Conflict_Resolution"	"RIGHT"	"RIGHT"	409.770800000047	1266.6666692	n/a	n/a	n/a	n/a	"False"	n/a	n/a	"2020-02-05 11:22:59.202097"	"2020-02-05 11:22:59.818688"	60	6.31112093333333
"S200205"	"Conflict_Resolution"	"LEFT"	"LEFT"	383.476299999984	1150.0000023	n/a	n/a	n/a	n/a	"False"	n/a	n/a	"2020-02-05 11:23:00.988331"	"2020-02-05 11:23:01.578799"	61	6.31112093333333
"S200205"	"Conflict_Resolution"	"RIGHT"	"RIGHT"	466.181500000062	1050.0000021	n/a	n/a	n/a	n/a	"False"	n/a	n/a	"2020-02-05 11:23:02.649598"	"2020-02-05 11:23:03.322829"	62	6.31112093333333
"S200205"	"Conflict_Resolution"	"LEFT"	"LEFT"	379.376900000011	850.0000017	n/a	n/a	n/a	n/a	"False"	n/a	n/a	"2020-02-05 11:23:04.192277"	"2020-02-05 11:23:04.780211"	63	6.31112093333333
"S200205"	"Conflict_Resolution"	"LEFT"	"LEFT"	629.47029999998	1400.0000028	n/a	n/a	n/a	n/a	"True"	n/a	n/a	"2020-02-05 11:23:06.198452"	"2020-02-05 11:23:07.035763"	64	6.31112093333333
"S200205"	"Conflict_Resolution"	"RIGHT"	"RIGHT"	423.532900000055	1316.6666693	n/a	n/a	n/a	n/a	"False"	n/a	n/a	"2020-02-05 11:23:08.372280"	"2020-02-05 11:23:09.003985"	65	6.31112093333333
"S200205"	"Conflict_Resolution"	"LEFT"	"LEFT"	729.92499999998	633.3333346	n/a	n/a	n/a	n/a	"True"	n/a	n/a	"2020-02-05 11:23:09.657860"	"2020-02-05 11:23:10.595875"	66	6.31112093333333
"S200205"	"Conflict_Resolution"	"LEFT"	"LEFT"	435.420300000033	1000.000002	n/a	n/a	n/a	n/a	"False"	n/a	n/a	"2020-02-05 11:23:11.616146"	"2020-02-05 11:23:12.260418"	67	6.31112093333333
"S200205"	"Conflict_Resolution"	"RIGHT"	"RIGHT"	409.360800000059	850.0000017	n/a	n/a	n/a	n/a	"False"	n/a	n/a	"2020-02-05 11:23:13.130133"	"2020-02-05 11:23:13.748233"	68	6.31112093333333
"S200205"	"Conflict_Resolution"	"RIGHT"	"LEFT"	532.905200000073	783.3333349	n/a	n/a	n/a	n/a	"True"	n/a	n/a	"2020-02-05 11:23:14.550661"	"2020-02-05 11:23:15.291324"	69	6.31112093333333
"S200205"	"Conflict_Resolution"	"LEFT"	"LEFT"	483.661500000039	616.6666679	n/a	n/a	n/a	n/a	"False"	n/a	n/a	"2020-02-05 11:23:15.928262"	"2020-02-05 11:23:16.618953"	70	6.31112093333333
"S200205"	"Conflict_Resolution"	"LEFT"	"LEFT"	440.063100000089	1450.0000029	n/a	n/a	n/a	n/a	"False"	n/a	n/a	"2020-02-05 11:23:18.091653"	"2020-02-05 11:23:18.741010"	71	6.31112093333333
"S200205"	"Conflict_Resolution"	"RIGHT"	"RIGHT"	429.540399999951	933.3333352	n/a	n/a	n/a	n/a	"False"	n/a	n/a	"2020-02-05 11:23:19.694400"	"2020-02-05 11:23:20.333724"	72	6.31112093333333
"S200205"	"Conflict_Resolution"	"LEFT"	"LEFT"	493.286600000033	716.6666681	n/a	n/a	n/a	n/a	"True"	n/a	n/a	"2020-02-05 11:23:21.070307"	"2020-02-05 11:23:21.772073"	73	6.31112093333333
"S200205"	"Conflict_Resolution"	"LEFT"	"LEFT"	658.856399999991	1016.6666687	n/a	n/a	n/a	n/a	"True"	n/a	n/a	"2020-02-05 11:23:22.809000"	"2020-02-05 11:23:23.675558"	74	6.31112093333333
"S200205"	"Conflict_Resolution"	"RIGHT"	"RIGHT"	456.040199999961	700.0000014	n/a	n/a	n/a	n/a	"False"	n/a	n/a	"2020-02-05 11:23:24.396154"	"2020-02-05 11:23:25.061370"	75	6.31112093333333
"S200205"	"Conflict_Resolution"	"LEFT"	"LEFT"	572.927499999992	1150.0000023	n/a	n/a	n/a	n/a	"True"	n/a	n/a	"2020-02-05 11:23:26.230898"	"2020-02-05 11:23:27.011611"	76	6.31112093333333
"S200205"	"Conflict_Resolution"	"LEFT"	"LEFT"	435.974499999929	1200.0000024	n/a	n/a	n/a	n/a	"False"	n/a	n/a	"2020-02-05 11:23:28.231668"	"2020-02-05 11:23:28.875035"	77	6.31112093333333
"S200205"	"Conflict_Resolution"	"RIGHT"	"RIGHT"	567.557099999931	1100.0000022	n/a	n/a	n/a	n/a	"True"	n/a	n/a	"2020-02-05 11:23:29.995744"	"2020-02-05 11:23:30.770713"	78	6.31112093333333
"S200205"	"Conflict_Resolution"	"RIGHT"	"RIGHT"	517.820599999936	600.0000012	n/a	n/a	n/a	n/a	"True"	n/a	n/a	"2020-02-05 11:23:31.390136"	"2020-02-05 11:23:32.114986"	79	6.31112093333333
"S200205"	"Conflict_Resolution"	"RIGHT"	"RIGHT"	529.942000000005	1050.0000021	n/a	n/a	n/a	n/a	"True"	n/a	n/a	"2020-02-05 11:23:33.185616"	"2020-02-05 11:23:33.922941"	80	6.31112093333333
"S200205"	"Conflict_Resolution"	"LEFT"	"LEFT"	522.5461	850.0000017	n/a	n/a	n/a	n/a	"True"	n/a	n/a	"2020-02-05 11:23:34.793017"	"2020-02-05 11:23:35.522697"	81	6.31112093333333
"S200205"	"Conflict_Resolution"	"RIGHT"	"RIGHT"	683.654400000023	850.0000017	n/a	n/a	n/a	n/a	"True"	n/a	n/a	"2020-02-05 11:23:36.392081"	"2020-02-05 11:23:37.285772"	82	6.31112093333333
"S200205"	"Conflict_Resolution"	"LEFT"	"LEFT"	428.416999999968	716.6666681	n/a	n/a	n/a	n/a	"False"	n/a	n/a	"2020-02-05 11:23:38.023050"	"2020-02-05 11:23:38.660113"	83	6.31112093333333
"S200205"	"Conflict_Resolution"	"RIGHT"	"RIGHT"	573.68919999999	1150.0000023	n/a	n/a	n/a	n/a	"True"	n/a	n/a	"2020-02-05 11:23:39.829570"	"2020-02-05 11:23:40.612015"	84	6.31112093333333
"S200205"	"Conflict_Resolution"	"LEFT"	"LEFT"	519.110899999987	1066.6666688	n/a	n/a	n/a	n/a	"False"	n/a	n/a	"2020-02-05 11:23:41.700173"	"2020-02-05 11:23:42.426839"	85	6.31112093333333
"S200205"	"Conflict_Resolution"	"RIGHT"	"RIGHT"	538.398500000085	883.3333351	n/a	n/a	n/a	n/a	"True"	n/a	n/a	"2020-02-05 11:23:43.329485"	"2020-02-05 11:23:44.076115"	86	6.31112093333333
"S200205"	"Conflict_Resolution"	"RIGHT"	"RIGHT"	461.933600000066	950.0000019	n/a	n/a	n/a	n/a	"False"	n/a	n/a	"2020-02-05 11:23:45.045729"	"2020-02-05 11:23:45.717535"	87	6.31112093333333
"S200205"	"Conflict_Resolution"	"LEFT"	"LEFT"	455.367200000182	666.666668	n/a	n/a	n/a	n/a	"False"	n/a	n/a	"2020-02-05 11:23:46.404007"	"2020-02-05 11:23:47.070266"	88	6.31112093333333
"S200205"	"Conflict_Resolution"	"RIGHT"	"RIGHT"	653.730499999938	700.0000014	n/a	n/a	n/a	n/a	"True"	n/a	n/a	"2020-02-05 11:23:47.789758"	"2020-02-05 11:23:48.652498"	89	6.31112093333333
"S200205"	"Conflict_Resolution"	"LEFT"	"LEFT"	513.214899999866	900.0000018	n/a	n/a	n/a	n/a	"False"	n/a	n/a	"2020-02-05 11:23:49.570400"	"2020-02-05 11:23:50.292187"	90	6.31112093333333
"S200205"	"Conflict_Resolution"	"LEFT"	"LEFT"	445.637799999986	733.3333348	n/a	n/a	n/a	n/a	"False"	n/a	n/a	"2020-02-05 11:23:51.045756"	"2020-02-05 11:23:51.699851"	91	6.31112093333333
"S200205"	"Conflict_Resolution"	"LEFT"	"LEFT"	494.159900000113	966.6666686	n/a	n/a	n/a	n/a	"False"	n/a	n/a	"2020-02-05 11:23:52.685245"	"2020-02-05 11:23:53.388649"	92	6.31112093333333
"S200205"	"Conflict_Resolution"	"RIGHT"	"RIGHT"	547.814600000038	1383.3333361	n/a	n/a	n/a	n/a	"True"	n/a	n/a	"2020-02-05 11:23:54.791969"	"2020-02-05 11:23:55.547465"	93	6.31112093333333
"S200205"	"Conflict_Resolution"	"RIGHT"	"RIGHT"	401.39279999994	900.0000018	n/a	n/a	n/a	n/a	"False"	n/a	n/a	"2020-02-05 11:23:56.466474"	"2020-02-05 11:23:57.075989"	94	6.31112093333333
"S200205"	"Conflict_Resolution"	"RIGHT"	"RIGHT"	373.209999999972	750.0000015	n/a	n/a	n/a	n/a	"False"	n/a	n/a	"2020-02-05 11:23:57.846194"	"2020-02-05 11:23:58.426664"	95	6.31112093333333
"S200205"	"Conflict_Resolution"	"RIGHT"	"RIGHT"	400.026299999809	1150.0000023	n/a	n/a	n/a	n/a	"False"	n/a	n/a	"2020-02-05 11:23:59.595140"	"2020-02-05 11:24:00.205567"	96	6.31112093333333
"S200205"	"Conflict_Resolution"	"RIGHT"	"RIGHT"	575.65610000006	1483.3333363	n/a	n/a	n/a	n/a	"True"	n/a	n/a	"2020-02-05 11:24:01.707496"	"2020-02-05 11:24:02.492526"	97	6.31112093333333
"S200205"	"Conflict_Resolution"	"RIGHT"	"RIGHT"	476.949399999967	550.0000011	n/a	n/a	n/a	n/a	"True"	n/a	n/a	"2020-02-05 11:24:03.063013"	"2020-02-05 11:24:03.748200"	98	6.31112093333333
"S200205"	"Conflict_Resolution"	"LEFT"	"LEFT"	699.639100000013	783.3333349	n/a	n/a	n/a	n/a	"True"	n/a	n/a	"2020-02-05 11:24:04.551600"	"2020-02-05 11:24:05.460194"	99	6.31112093333333
"S200205"	"Conflict_Resolution"	"LEFT"	"LEFT"	484.858800000211	1366.6666694	n/a	n/a	n/a	n/a	"False"	n/a	n/a	"2020-02-05 11:24:06.847027"	"2020-02-05 11:24:07.542586"	100	6.31112093333333
"S200205"	"Conflict_Resolution"	"RIGHT"	"RIGHT"	464.244300000018	833.333335	n/a	n/a	n/a	n/a	"False"	n/a	n/a	"2020-02-05 11:24:08.395315"	"2020-02-05 11:24:09.068513"	101	6.31112093333333
"S200205"	"Conflict_Resolution"	"RIGHT"	"RIGHT"	392.374399999881	883.3333351	n/a	n/a	n/a	n/a	"False"	n/a	n/a	"2020-02-05 11:24:09.971178"	"2020-02-05 11:24:10.571064"	102	6.31112093333333
"S200205"	"Conflict_Resolution"	"LEFT"	"LEFT"	479.42490000014	1116.6666689	n/a	n/a	n/a	n/a	"False"	n/a	n/a	"2020-02-05 11:24:11.708573"	"2020-02-05 11:24:12.394727"	103	6.31112093333333
"S200205"	"Conflict_Resolution"	"LEFT"	"LEFT"	578.833100000111	1266.6666692	n/a	n/a	n/a	n/a	"True"	n/a	n/a	"2020-02-05 11:24:13.680836"	"2020-02-05 11:24:14.467512"	104	6.31112093333333
"S200205"	"Conflict_Resolution"	"LEFT"	"LEFT"	520.406200000025	1500.000003	n/a	n/a	n/a	n/a	"False"	n/a	n/a	"2020-02-05 11:24:15.987616"	"2020-02-05 11:24:16.716126"	105	6.31112093333333
"S200205"	"Conflict_Resolution"	"RIGHT"	"RIGHT"	461.700099999916	550.0000011	n/a	n/a	n/a	n/a	"False"	n/a	n/a	"2020-02-05 11:24:17.286152"	"2020-02-05 11:24:17.955146"	106	6.31112093333333
"S200205"	"Conflict_Resolution"	"RIGHT"	"RIGHT"	426.065300000118	1283.3333359	n/a	n/a	n/a	n/a	"False"	n/a	n/a	"2020-02-05 11:24:19.257787"	"2020-02-05 11:24:19.890679"	107	6.31112093333333
"S200205"	"Conflict_Resolution"	"RIGHT"	"RIGHT"	389.172399999779	600.0000012	n/a	n/a	n/a	n/a	"False"	n/a	n/a	"2020-02-05 11:24:20.511027"	"2020-02-05 11:24:21.108354"	108	6.31112093333333
"S200205"	"Conflict_Resolution"	"RIGHT"	"RIGHT"	660.604899999953	950.0000019	n/a	n/a	n/a	n/a	"True"	n/a	n/a	"2020-02-05 11:24:22.078766"	"2020-02-05 11:24:22.946735"	109	6.31112093333333
"S200205"	"Conflict_Resolution"	"RIGHT"	"RIGHT"	585.218200000099	500.000001	n/a	n/a	n/a	n/a	"True"	n/a	n/a	"2020-02-05 11:24:23.466109"	"2020-02-05 11:24:24.259988"	110	6.31112093333333
"S200205"	"Conflict_Resolution"	"RIGHT"	"RIGHT"	428.060799999912	1183.3333357	n/a	n/a	n/a	n/a	"False"	n/a	n/a	"2020-02-05 11:24:25.463103"	"2020-02-05 11:24:26.100141"	111	6.31112093333333
"S200205"	"Conflict_Resolution"	"RIGHT"	"RIGHT"	470.372999999881	1183.3333357	n/a	n/a	n/a	n/a	"True"	n/a	n/a	"2020-02-05 11:24:27.301566"	"2020-02-05 11:24:27.981645"	112	6.31112093333333
"S200205"	"Conflict_Resolution"	"LEFT"	"LEFT"	447.440500000084	683.3333347	n/a	n/a	n/a	n/a	"False"	n/a	n/a	"2020-02-05 11:24:28.683813"	"2020-02-05 11:24:29.338926"	113	6.31112093333333
"S200205"	"Conflict_Resolution"	"LEFT"	"LEFT"	663.324199999806	1100.0000022	n/a	n/a	n/a	n/a	"True"	n/a	n/a	"2020-02-05 11:24:30.460451"	"2020-02-05 11:24:31.332215"	114	6.31112093333333
"S200205"	"Conflict_Resolution"	"LEFT"	"LEFT"	548.223900000039	950.0000019	n/a	n/a	n/a	n/a	"True"	n/a	n/a	"2020-02-05 11:24:32.303619"	"2020-02-05 11:24:33.060026"	115	6.31112093333333
"S200205"	"Conflict_Resolution"	"LEFT"	"LEFT"	522.795500000029	1066.6666688	n/a	n/a	n/a	n/a	"True"	n/a	n/a	"2020-02-05 11:24:34.144236"	"2020-02-05 11:24:34.875680"	116	6.31112093333333
"S200205"	"Conflict_Resolution"	"LEFT"	"LEFT"	429.789999999912	1116.6666689	n/a	n/a	n/a	n/a	"True"	n/a	n/a	"2020-02-05 11:24:36.014216"	"2020-02-05 11:24:36.651213"	117	6.31112093333333
"S200205"	"Conflict_Resolution"	"LEFT"	"LEFT"	357.057200000099	1166.666669	n/a	n/a	n/a	n/a	"False"	n/a	n/a	"2020-02-05 11:24:37.838707"	"2020-02-05 11:24:38.402734"	118	6.31112093333333
"S200205"	"Conflict_Resolution"	"LEFT"	"LEFT"	502.809800000023	766.6666682	n/a	n/a	n/a	n/a	"True"	n/a	n/a	"2020-02-05 11:24:39.188785"	"2020-02-05 11:24:39.899883"	119	6.31112093333333
"S200205"	"Conflict_Resolution"	"LEFT"	"LEFT"	361.633600000005	866.6666684	n/a	n/a	n/a	n/a	"False"	n/a	n/a	"2020-02-05 11:24:40.786019"	"2020-02-05 11:24:41.356201"	120	6.31112093333333
"S200205"	"Conflict_Resolution"	"LEFT"	"LEFT"	338.428600000043	1416.6666695	n/a	n/a	n/a	n/a	"False"	n/a	n/a	"2020-02-05 11:24:42.793410"	"2020-02-05 11:24:43.339980"	121	6.31112093333333
"S200205"	"Conflict_Resolution"	"RIGHT"	"RIGHT"	574.802500000033	1316.6666693	n/a	n/a	n/a	n/a	"True"	n/a	n/a	"2020-02-05 11:24:44.676947"	"2020-02-05 11:24:45.459864"	122	6.31112093333333
"S200205"	"Conflict_Resolution"	"RIGHT"	"RIGHT"	370.725099999845	1216.6666691	n/a	n/a	n/a	n/a	"False"	n/a	n/a	"2020-02-05 11:24:46.696366"	"2020-02-05 11:24:47.276334"	123	6.31112093333333
"S200205"	"Conflict_Resolution"	"RIGHT"	"RIGHT"	461.966500000017	1366.6666694	n/a	n/a	n/a	n/a	"True"	n/a	n/a	"2020-02-05 11:24:48.661190"	"2020-02-05 11:24:49.330906"	124	6.31112093333333
"S200205"	"Conflict_Resolution"	"RIGHT"	"RIGHT"	345.263400000022	1466.6666696	n/a	n/a	n/a	n/a	"False"	n/a	n/a	"2020-02-05 11:24:50.818073"	"2020-02-05 11:24:51.372790"	125	6.31112093333333
"S200205"	"Conflict_Resolution"	"RIGHT"	"RIGHT"	507.455799999889	1216.6666691	n/a	n/a	n/a	n/a	"True"	n/a	n/a	"2020-02-05 11:24:52.608499"	"2020-02-05 11:24:53.324589"	126	6.31112093333333
"S200205"	"Conflict_Resolution"	"RIGHT"	"RIGHT"	509.982199999968	733.3333348	n/a	n/a	n/a	n/a	"True"	n/a	n/a	"2020-02-05 11:24:54.077710"	"2020-02-05 11:24:54.795139"	127	6.31112093333333
"S200205"	"Conflict_Resolution"	"RIGHT"	"RIGHT"	525.569899999937	583.3333345	n/a	n/a	n/a	n/a	"True"	n/a	n/a	"2020-02-05 11:24:55.398494"	"2020-02-05 11:24:56.132445"	128	6.31112093333333
"S200205"	"Conflict_Resolution"	"LEFT"	"RIGHT"	474.233900000172	1050.0000021	n/a	n/a	n/a	n/a	"True"	n/a	n/a	"2020-02-05 11:24:57.201629"	"2020-02-05 11:24:57.883868"	129	6.31112093333333
"S200205"	"Conflict_Resolution"	"RIGHT"	"RIGHT"	641.636900000094	1416.6666695	n/a	n/a	n/a	n/a	"True"	n/a	n/a	"2020-02-05 11:24:59.322292"	"2020-02-05 11:25:00.171812"	130	6.31112093333333
"S200205"	"Conflict_Resolution"	"RIGHT"	"RIGHT"	414.070699999911	733.3333348	n/a	n/a	n/a	n/a	"False"	n/a	n/a	"2020-02-05 11:25:00.926008"	"2020-02-05 11:25:01.548354"	131	6.31112093333333
"S200205"	"Conflict_Resolution"	"LEFT"	"LEFT"	676.911799999971	1350.0000027	n/a	n/a	n/a	n/a	"True"	n/a	n/a	"2020-02-05 11:25:02.918958"	"2020-02-05 11:25:03.804780"	132	6.31112093333333
"S200205"	"Conflict_Resolution"	"RIGHT"	"RIGHT"	774.454000000105	533.3333344	n/a	n/a	n/a	n/a	"True"	n/a	n/a	"2020-02-05 11:25:04.357527"	"2020-02-05 11:25:05.339828"	133	6.31112093333333
"S200205"	"Conflict_Resolution"	"LEFT"	"LEFT"	619.592400000101	1416.6666695	n/a	n/a	n/a	n/a	"True"	n/a	n/a	"2020-02-05 11:25:06.776261"	"2020-02-05 11:25:07.604215"	134	6.31112093333333
"S200205"	"Conflict_Resolution"	"LEFT"	"LEFT"	498.689500000182	633.3333346	n/a	n/a	n/a	n/a	"False"	n/a	n/a	"2020-02-05 11:25:08.257320"	"2020-02-05 11:25:08.964610"	135	6.31112093333333
"S200205"	"Conflict_Resolution"	"LEFT"	"LEFT"	452.597999999853	783.3333349	n/a	n/a	n/a	n/a	"False"	n/a	n/a	"2020-02-05 11:25:09.767384"	"2020-02-05 11:25:10.428270"	136	6.31112093333333
"S200205"	"Conflict_Resolution"	"LEFT"	"LEFT"	620.967399999927	966.6666686	n/a	n/a	n/a	n/a	"True"	n/a	n/a	"2020-02-05 11:25:11.414706"	"2020-02-05 11:25:12.245546"	137	6.31112093333333
"S200205"	"Conflict_Resolution"	"LEFT"	"LEFT"	435.183000000052	1100.0000022	n/a	n/a	n/a	n/a	"False"	n/a	n/a	"2020-02-05 11:25:13.368712"	"2020-02-05 11:25:14.018034"	138	6.31112093333333
"S200205"	"Conflict_Resolution"	"RIGHT"	"RIGHT"	361.887600000045	1133.3333356	n/a	n/a	n/a	n/a	"False"	n/a	n/a	"2020-02-05 11:25:15.169528"	"2020-02-05 11:25:15.740544"	139	6.31112093333333
"S200205"	"Conflict_Resolution"	"RIGHT"	"RIGHT"	543.963399999939	1083.3333355	n/a	n/a	n/a	n/a	"True"	n/a	n/a	"2020-02-05 11:25:16.843628"	"2020-02-05 11:25:17.595769"	140	6.31112093333333
"S200205"	"Conflict_Resolution"	"RIGHT"	"RIGHT"	448.853399999962	1266.6666692	n/a	n/a	n/a	n/a	"True"	n/a	n/a	"2020-02-05 11:25:18.883074"	"2020-02-05 11:25:19.540211"	141	6.31112093333333
"S200205"	"Conflict_Resolution"	"LEFT"	"LEFT"	458.347000000003	816.6666683	n/a	n/a	n/a	n/a	"False"	n/a	n/a	"2020-02-05 11:25:20.377053"	"2020-02-05 11:25:21.045615"	142	6.31112093333333
"S200205"	"Conflict_Resolution"	"RIGHT"	"RIGHT"	397.539999999935	533.3333344	n/a	n/a	n/a	n/a	"False"	n/a	n/a	"2020-02-05 11:25:21.598122"	"2020-02-05 11:25:22.204159"	143	6.31112093333333
"S200205"	"Conflict_Resolution"	"LEFT"	"LEFT"	575.175299999955	1500.000003	n/a	n/a	n/a	n/a	"True"	n/a	n/a	"2020-02-05 11:25:23.724285"	"2020-02-05 11:25:24.508165"	144	6.31112093333333
"S200205"	"Conflict_Resolution"	"LEFT"	"LEFT"	440.530500000023	516.6666677	n/a	n/a	n/a	n/a	"False"	n/a	n/a	"2020-02-05 11:25:25.043513"	"2020-02-05 11:25:25.690779"	145	6.31112093333333
"S200205"	"Conflict_Resolution"	"LEFT"	"LEFT"	682.471300000088	683.3333347	n/a	n/a	n/a	n/a	"True"	n/a	n/a	"2020-02-05 11:25:26.392957"	"2020-02-05 11:25:27.283084"	146	6.31112093333333
"S200205"	"Conflict_Resolution"	"LEFT"	"LEFT"	590.101700000105	950.0000019	n/a	n/a	n/a	n/a	"False"	n/a	n/a	"2020-02-05 11:25:28.253943"	"2020-02-05 11:25:29.051900"	147	6.31112093333333
"S200205"	"Conflict_Resolution"	"LEFT"	"LEFT"	349.543199999971	766.6666682	n/a	n/a	n/a	n/a	"False"	n/a	n/a	"2020-02-05 11:25:29.837840"	"2020-02-05 11:25:30.395732"	148	6.31112093333333
"S200205"	"Conflict_Resolution"	"LEFT"	"LEFT"	346.731900000123	1016.6666687	n/a	n/a	n/a	n/a	"False"	n/a	n/a	"2020-02-05 11:25:31.432674"	"2020-02-05 11:25:31.986672"	149	6.31112093333333
"S200205"	"Conflict_Resolution"	"LEFT"	"LEFT"	375.359099999969	533.3333344	n/a	n/a	n/a	n/a	"False"	n/a	n/a	"2020-02-05 11:25:32.540154"	"2020-02-05 11:25:33.124119"	150	6.31112093333333
"S200205"	"Conflict_Resolution"	"RIGHT"	"RIGHT"	416.627300000073	1083.3333355	n/a	n/a	n/a	n/a	"False"	n/a	n/a	"2020-02-05 11:25:34.227255"	"2020-02-05 11:25:34.851974"	151	6.31112093333333
"S200205"	"Conflict_Resolution"	"LEFT"	"RIGHT"	364.898900000071	583.3333345	n/a	n/a	n/a	n/a	"False"	n/a	n/a	"2020-02-05 11:25:35.455005"	"2020-02-05 11:25:36.028547"	152	6.31112093333333
"S200205"	"Conflict_Resolution"	"RIGHT"	"RIGHT"	514.728999999988	650.0000013	n/a	n/a	n/a	n/a	"False"	n/a	n/a	"2020-02-05 11:25:36.697716"	"2020-02-05 11:25:37.420427"	153	6.31112093333333
"S200205"	"Conflict_Resolution"	"RIGHT"	"RIGHT"	912.771300000031	983.3333353	n/a	n/a	n/a	n/a	"True"	n/a	n/a	"2020-02-05 11:25:38.426497"	"2020-02-05 11:25:39.547856"	154	6.31112093333333
"S200205"	"Conflict_Resolution"	"RIGHT"	"RIGHT"	530.755499999941	650.0000013	n/a	n/a	n/a	n/a	"True"	n/a	n/a	"2020-02-05 11:25:40.216973"	"2020-02-05 11:25:40.955005"	155	6.31112093333333
"S200205"	"Conflict_Resolution"	"RIGHT"	"RIGHT"	480.412100000194	900.0000018	n/a	n/a	n/a	n/a	"True"	n/a	n/a	"2020-02-05 11:25:41.875576"	"2020-02-05 11:25:42.564490"	156	6.31112093333333
"S200205"	"Conflict_Resolution"	"LEFT"	"RIGHT"	472.037600000021	666.666668	n/a	n/a	n/a	n/a	"True"	n/a	n/a	"2020-02-05 11:25:43.251386"	"2020-02-05 11:25:43.931654"	157	6.31112093333333
"S200205"	"Conflict_Resolution"	"LEFT"	"LEFT"	515.974399999777	1216.6666691	n/a	n/a	n/a	n/a	"False"	n/a	n/a	"2020-02-05 11:25:45.167448"	"2020-02-05 11:25:45.890920"	158	6.31112093333333
"S200205"	"Conflict_Resolution"	"LEFT"	"LEFT"	712.703400000009	916.6666685	n/a	n/a	n/a	n/a	"True"	n/a	n/a	"2020-02-05 11:25:46.827376"	"2020-02-05 11:25:47.748108"	159	6.31112093333333
"S200205"	"Conflict_Resolution"	"LEFT"	"LEFT"	563.249999999925	616.6666679	n/a	n/a	n/a	n/a	"True"	n/a	n/a	"2020-02-05 11:25:48.384568"	"2020-02-05 11:25:49.156311"	160	6.31112093333333
"S200205"	"Processing_Speed"	"RIGHT"	"DOWN"	1314.03879999999	566.6666678	n/a	n/a	n/a	n/a	n/a	n/a	n/a	"2020-02-05 11:09:03.768076"	"2020-02-05 11:09:05.301446"	1	2.19176163333333
"S200205"	"Processing_Speed"	"RIGHT"	"DOWN"	390.910300000002	1116.6666689	n/a	n/a	n/a	n/a	n/a	n/a	n/a	"2020-02-05 11:09:06.428120"	"2020-02-05 11:09:07.026781"	2	2.19176163333333
"S200205"	"Processing_Speed"	"LEFT"	"DOWN"	367.365699999993	566.6666678	n/a	n/a	n/a	n/a	n/a	n/a	n/a	"2020-02-05 11:09:07.603269"	"2020-02-05 11:09:08.177934"	3	2.19176163333333
"S200205"	"Processing_Speed"	"RIGHT"	"DOWN"	292.554999999993	1050.0000021	n/a	n/a	n/a	n/a	n/a	n/a	n/a	"2020-02-05 11:09:09.237862"	"2020-02-05 11:09:09.739516"	4	2.19176163333333
"S200205"	"Processing_Speed"	"RIGHT"	"DOWN"	349.251600000002	633.3333346	n/a	n/a	n/a	n/a	n/a	n/a	n/a	"2020-02-05 11:09:10.381050"	"2020-02-05 11:09:10.938793"	5	2.19176163333333
"S200205"	"Processing_Speed"	"LEFT"	"DOWN"	287.552599999998	783.3333349	n/a	n/a	n/a	n/a	n/a	n/a	n/a	"2020-02-05 11:09:11.731796"	"2020-02-05 11:09:12.227663"	6	2.19176163333333
"S200205"	"Processing_Speed"	"RIGHT"	"DOWN"	352.574500000003	1333.333336	n/a	n/a	n/a	n/a	n/a	n/a	n/a	"2020-02-05 11:09:13.569921"	"2020-02-05 11:09:14.129832"	7	2.19176163333333
"S200205"	"Processing_Speed"	"LEFT"	"DOWN"	291.843299999982	1083.3333355	n/a	n/a	n/a	n/a	n/a	n/a	n/a	"2020-02-05 11:09:15.222615"	"2020-02-05 11:09:15.722409"	8	2.19176163333333
"S200205"	"Processing_Speed"	"RIGHT"	"DOWN"	308.646199999998	600.0000012	n/a	n/a	n/a	n/a	n/a	n/a	n/a	"2020-02-05 11:09:16.333951"	"2020-02-05 11:09:16.849877"	9	2.19176163333333
"S200205"	"Processing_Speed"	"RIGHT"	"DOWN"	285.741900000005	1433.3333362	n/a	n/a	n/a	n/a	n/a	n/a	n/a	"2020-02-05 11:09:18.292269"	"2020-02-05 11:09:18.785935"	10	2.19176163333333
"S200205"	"Processing_Speed"	"LEFT"	"DOWN"	283.103600000004	666.666668	n/a	n/a	n/a	n/a	n/a	n/a	n/a	"2020-02-05 11:09:19.463091"	"2020-02-05 11:09:19.954819"	11	2.19176163333333
"S200205"	"Processing_Speed"	"RIGHT"	"DOWN"	318.6058	1016.6666687	n/a	n/a	n/a	n/a	n/a	n/a	n/a	"2020-02-05 11:09:20.980201"	"2020-02-05 11:09:21.507376"	12	2.19176163333333
"S200205"	"Processing_Speed"	"LEFT"	"DOWN"	321.734900000024	1116.6666689	n/a	n/a	n/a	n/a	n/a	n/a	n/a	"2020-02-05 11:09:22.632858"	"2020-02-05 11:09:23.162640"	13	2.19176163333333
"S200205"	"Processing_Speed"	"LEFT"	"DOWN"	383.861800000005	1183.3333357	n/a	n/a	n/a	n/a	n/a	n/a	n/a	"2020-02-05 11:09:24.354493"	"2020-02-05 11:09:24.945654"	14	2.19176163333333
"S200205"	"Processing_Speed"	"RIGHT"	"DOWN"	261.677899999995	1216.6666691	n/a	n/a	n/a	n/a	n/a	n/a	n/a	"2020-02-05 11:09:26.173227"	"2020-02-05 11:09:26.642205"	15	2.19176163333333
"S200205"	"Processing_Speed"	"RIGHT"	"DOWN"	320.289599999995	983.3333353	n/a	n/a	n/a	n/a	n/a	n/a	n/a	"2020-02-05 11:09:27.634251"	"2020-02-05 11:09:28.164477"	16	2.19176163333333
"S200205"	"Processing_Speed"	"RIGHT"	"DOWN"	405.653299999983	500.000001	n/a	n/a	n/a	n/a	n/a	n/a	n/a	"2020-02-05 11:09:28.677207"	"2020-02-05 11:09:29.291251"	17	2.19176163333333
"S200205"	"Processing_Speed"	"LEFT"	"DOWN"	317.204099999998	1016.6666687	n/a	n/a	n/a	n/a	n/a	n/a	n/a	"2020-02-05 11:09:30.317028"	"2020-02-05 11:09:30.842029"	18	2.19176163333333
"S200205"	"Processing_Speed"	"RIGHT"	"DOWN"	272.715000000005	950.0000019	n/a	n/a	n/a	n/a	n/a	n/a	n/a	"2020-02-05 11:09:31.802101"	"2020-02-05 11:09:32.281887"	19	2.19176163333333
"S200205"	"Processing_Speed"	"LEFT"	"DOWN"	286.432399999995	1433.3333362	n/a	n/a	n/a	n/a	n/a	n/a	n/a	"2020-02-05 11:09:33.723998"	"2020-02-05 11:09:34.217818"	20	2.19176163333333
"S200205"	"Processing_Speed"	"RIGHT"	"DOWN"	299.809799999991	883.3333351	n/a	n/a	n/a	n/a	n/a	n/a	n/a	"2020-02-05 11:09:35.110505"	"2020-02-05 11:09:35.619341"	21	2.19176163333333
"S200205"	"Processing_Speed"	"RIGHT"	"DOWN"	431.692800000008	1366.6666694	n/a	n/a	n/a	n/a	n/a	n/a	n/a	"2020-02-05 11:09:36.994997"	"2020-02-05 11:09:37.636134"	22	2.19176163333333
"S200205"	"Processing_Speed"	"RIGHT"	"DOWN"	385.190800000004	916.6666685	n/a	n/a	n/a	n/a	n/a	n/a	n/a	"2020-02-05 11:09:38.561653"	"2020-02-05 11:09:39.156186"	23	2.19176163333333
"S200205"	"Processing_Speed"	"RIGHT"	"DOWN"	309.216800000002	816.6666683	n/a	n/a	n/a	n/a	n/a	n/a	n/a	"2020-02-05 11:09:39.981647"	"2020-02-05 11:09:40.499257"	24	2.19176163333333
"S200205"	"Processing_Speed"	"LEFT"	"DOWN"	331.662800000004	1466.6666696	n/a	n/a	n/a	n/a	n/a	n/a	n/a	"2020-02-05 11:09:41.974286"	"2020-02-05 11:09:42.515380"	25	2.19176163333333
"S200205"	"Processing_Speed"	"RIGHT"	"DOWN"	307.762500000024	1466.6666696	n/a	n/a	n/a	n/a	n/a	n/a	n/a	"2020-02-05 11:09:43.991134"	"2020-02-05 11:09:44.507301"	26	2.19176163333333
"S200205"	"Processing_Speed"	"RIGHT"	"DOWN"	325.945499999989	1400.0000028	n/a	n/a	n/a	n/a	n/a	n/a	n/a	"2020-02-05 11:09:45.916782"	"2020-02-05 11:09:46.450657"	27	2.19176163333333
"S200205"	"Processing_Speed"	"LEFT"	"DOWN"	292.298799999998	1400.0000028	n/a	n/a	n/a	n/a	n/a	n/a	n/a	"2020-02-05 11:09:47.862209"	"2020-02-05 11:09:48.365134"	28	2.19176163333333
"S200205"	"Processing_Speed"	"LEFT"	"DOWN"	325.731200000007	1150.0000023	n/a	n/a	n/a	n/a	n/a	n/a	n/a	"2020-02-05 11:09:49.525067"	"2020-02-05 11:09:50.060005"	29	2.19176163333333
"S200205"	"Processing_Speed"	"LEFT"	"DOWN"	360.82589999998	1500.000003	n/a	n/a	n/a	n/a	n/a	n/a	n/a	"2020-02-05 11:09:51.569986"	"2020-02-05 11:09:52.139213"	30	2.19176163333333
"S200205"	"Processing_Speed"	"RIGHT"	"DOWN"	306.792700000017	700.0000014	n/a	n/a	n/a	n/a	n/a	n/a	n/a	"2020-02-05 11:09:52.847828"	"2020-02-05 11:09:53.364110"	31	2.19176163333333
"S200205"	"Processing_Speed"	"LEFT"	"DOWN"	328.281099999998	950.0000019	n/a	n/a	n/a	n/a	n/a	n/a	n/a	"2020-02-05 11:09:54.323569"	"2020-02-05 11:09:54.859708"	32	2.19176163333333
"S200205"	"Processing_Speed"	"RIGHT"	"DOWN"	285.880200000008	783.3333349	n/a	n/a	n/a	n/a	n/a	n/a	n/a	"2020-02-05 11:09:55.652876"	"2020-02-05 11:09:56.146527"	33	2.19176163333333
"S200205"	"Processing_Speed"	"LEFT"	"DOWN"	298.381899999981	500.000001	n/a	n/a	n/a	n/a	n/a	n/a	n/a	"2020-02-05 11:09:56.656203"	"2020-02-05 11:09:57.163144"	34	2.19176163333333
"S200205"	"Processing_Speed"	"LEFT"	"DOWN"	379.845200000005	850.0000017	n/a	n/a	n/a	n/a	n/a	n/a	n/a	"2020-02-05 11:09:58.022792"	"2020-02-05 11:09:58.610928"	35	2.19176163333333
"S200205"	"Processing_Speed"	"LEFT"	"DOWN"	346.882399999998	700.0000014	n/a	n/a	n/a	n/a	n/a	n/a	n/a	"2020-02-05 11:09:59.319585"	"2020-02-05 11:09:59.874628"	36	2.19176163333333
"S200205"	"Processing_Speed"	"LEFT"	"DOWN"	407.85489999999	533.3333344	n/a	n/a	n/a	n/a	n/a	n/a	n/a	"2020-02-05 11:10:00.418240"	"2020-02-05 11:10:01.034943"	37	2.19176163333333
"S200205"	"Processing_Speed"	"LEFT"	"DOWN"	316.822200000018	1050.0000021	n/a	n/a	n/a	n/a	n/a	n/a	n/a	"2020-02-05 11:10:02.094179"	"2020-02-05 11:10:02.618775"	38	2.19176163333333
"S200205"	"Processing_Speed"	"RIGHT"	"DOWN"	312.023799999992	1183.3333357	n/a	n/a	n/a	n/a	n/a	n/a	n/a	"2020-02-05 11:10:03.810769"	"2020-02-05 11:10:04.331409"	39	2.19176163333333
"S200205"	"Processing_Speed"	"RIGHT"	"DOWN"	368.488999999983	733.3333348	n/a	n/a	n/a	n/a	n/a	n/a	n/a	"2020-02-05 11:10:05.073926"	"2020-02-05 11:10:05.650736"	40	2.19176163333333
"S200205"	"Processing_Speed"	"LEFT"	"DOWN"	242.254500000001	1266.6666692	n/a	n/a	n/a	n/a	n/a	n/a	n/a	"2020-02-05 11:10:06.927886"	"2020-02-05 11:10:07.377699"	41	2.19176163333333
"S200205"	"Processing_Speed"	"RIGHT"	"DOWN"	284.996599999999	666.666668	n/a	n/a	n/a	n/a	n/a	n/a	n/a	"2020-02-05 11:10:08.053893"	"2020-02-05 11:10:08.547511"	42	2.19176163333333
"S200205"	"Processing_Speed"	"LEFT"	"DOWN"	277.206800000016	1216.6666691	n/a	n/a	n/a	n/a	n/a	n/a	n/a	"2020-02-05 11:10:09.773289"	"2020-02-05 11:10:10.258522"	43	2.19176163333333
"S200205"	"Processing_Speed"	"LEFT"	"DOWN"	365.325299999995	816.6666683	n/a	n/a	n/a	n/a	n/a	n/a	n/a	"2020-02-05 11:10:11.085382"	"2020-02-05 11:10:11.659047"	44	2.19176163333333
"S200205"	"Processing_Speed"	"LEFT"	"DOWN"	299.5363	883.3333351	n/a	n/a	n/a	n/a	n/a	n/a	n/a	"2020-02-05 11:10:12.550738"	"2020-02-05 11:10:13.061509"	45	2.19176163333333
"S200205"	"Processing_Speed"	"LEFT"	"DOWN"	325.381499999992	1366.6666694	n/a	n/a	n/a	n/a	n/a	n/a	n/a	"2020-02-05 11:10:14.437496"	"2020-02-05 11:10:14.970089"	46	2.19176163333333
"S200205"	"Processing_Speed"	"RIGHT"	"DOWN"	292.950699999977	850.0000017	n/a	n/a	n/a	n/a	n/a	n/a	n/a	"2020-02-05 11:10:15.829396"	"2020-02-05 11:10:16.331099"	47	2.19176163333333
"S200205"	"Processing_Speed"	"RIGHT"	"DOWN"	316.564400000004	1266.6666692	n/a	n/a	n/a	n/a	n/a	n/a	n/a	"2020-02-05 11:10:17.605974"	"2020-02-05 11:10:18.130707"	48	2.19176163333333
"S200205"	"Processing_Speed"	"LEFT"	"DOWN"	247.981600000003	983.3333353	n/a	n/a	n/a	n/a	n/a	n/a	n/a	"2020-02-05 11:10:19.122346"	"2020-02-05 11:10:19.577968"	49	2.19176163333333
"S200205"	"Processing_Speed"	"LEFT"	"DOWN"	330.420500000002	916.6666685	n/a	n/a	n/a	n/a	n/a	n/a	n/a	"2020-02-05 11:10:20.503897"	"2020-02-05 11:10:21.042634"	50	2.19176163333333
"S200205"	"Processing_Speed"	"RIGHT"	"DOWN"	481.220199999996	1150.0000023	n/a	n/a	n/a	n/a	n/a	n/a	n/a	"2020-02-05 11:10:22.201019"	"2020-02-05 11:10:22.890487"	51	2.19176163333333
"S200205"	"Processing_Speed"	"LEFT"	"DOWN"	281.727099999983	1333.333336	n/a	n/a	n/a	n/a	n/a	n/a	n/a	"2020-02-05 11:10:24.233297"	"2020-02-05 11:10:24.722571"	52	2.19176163333333
"S200205"	"Processing_Speed"	"LEFT"	"DOWN"	307.300900000001	1300.0000026	n/a	n/a	n/a	n/a	n/a	n/a	n/a	"2020-02-05 11:10:26.031607"	"2020-02-05 11:10:26.547415"	53	2.19176163333333
"S200205"	"Processing_Speed"	"LEFT"	"DOWN"	331.264800000014	633.3333346	n/a	n/a	n/a	n/a	n/a	n/a	n/a	"2020-02-05 11:10:27.191203"	"2020-02-05 11:10:27.730724"	54	2.19176163333333
"S200205"	"Processing_Speed"	"RIGHT"	"DOWN"	299.258299999991	1083.3333355	n/a	n/a	n/a	n/a	n/a	n/a	n/a	"2020-02-05 11:10:28.823162"	"2020-02-05 11:10:29.331578"	55	2.19176163333333
"S200205"	"Processing_Speed"	"LEFT"	"DOWN"	470.32329999999	600.0000012	n/a	n/a	n/a	n/a	n/a	n/a	n/a	"2020-02-05 11:10:29.940000"	"2020-02-05 11:10:30.618910"	56	2.19176163333333
"S200205"	"Processing_Speed"	"RIGHT"	"DOWN"	351.203700000013	1300.0000026	n/a	n/a	n/a	n/a	n/a	n/a	n/a	"2020-02-05 11:10:31.931310"	"2020-02-05 11:10:32.490381"	57	2.19176163333333
"S200205"	"Processing_Speed"	"RIGHT"	"DOWN"	419.455599999992	1500.000003	n/a	n/a	n/a	n/a	n/a	n/a	n/a	"2020-02-05 11:10:33.998928"	"2020-02-05 11:10:34.626264"	58	2.19176163333333
"S200205"	"Processing_Speed"	"LEFT"	"DOWN"	457.069600000011	733.3333348	n/a	n/a	n/a	n/a	n/a	n/a	n/a	"2020-02-05 11:10:35.369941"	"2020-02-05 11:10:36.033941"	59	2.19176163333333
"S200205"	"Processing_Speed"	"RIGHT"	"DOWN"	298.0953	533.3333344	n/a	n/a	n/a	n/a	n/a	n/a	n/a	"2020-02-05 11:10:36.576565"	"2020-02-05 11:10:37.084348"	60	2.19176163333333
"S200205"	"Response_Inhibition"	"LEFT"	"LEFT"	449.156599999981	833.333335	n/a	n/a	n/a	n/a	n/a	n/a	n/a	"2020-02-05 11:14:16.130142"	"2020-02-05 11:14:16.788380"	1	5.9292803
"S200205"	"Response_Inhibition"	"LEFT"	"Time_Max_Exceeded"	1500.05180009998	1266.6666692	n/a	n/a	n/a	n/a	n/a	n/a	n/a	"2020-02-05 11:14:18.064920"	"2020-02-05 11:14:19.567997"	2	5.9292803
"S200205"	"Response_Inhibition"	"LEFT"	"LEFT"	405.185600499982	616.6666679	n/a	n/a	n/a	n/a	n/a	n/a	n/a	"2020-02-05 11:14:20.195311"	"2020-02-05 11:14:20.811802"	3	5.9292803
"S200205"	"Response_Inhibition"	"LEFT"	"LEFT"	654.803500000014	983.3333353	n/a	n/a	n/a	n/a	n/a	n/a	n/a	"2020-02-05 11:14:21.804168"	"2020-02-05 11:14:22.668443"	4	5.9292803
"S200205"	"Response_Inhibition"	"RIGHT"	"Time_Max_Exceeded"	1500.14186670004	1133.3333356	n/a	n/a	n/a	n/a	n/a	n/a	n/a	"2020-02-05 11:14:23.811300"	"2020-02-05 11:14:25.317107"	5	5.9292803
"S200205"	"Response_Inhibition"	"RIGHT"	"RIGHT"	555.671599999982	616.6666679	n/a	n/a	n/a	n/a	n/a	n/a	n/a	"2020-02-05 11:14:25.943036"	"2020-02-05 11:14:26.708601"	6	5.9292803
"S200205"	"Response_Inhibition"	"LEFT"	"Time_Max_Exceeded"	1500.05536670003	1216.6666691	n/a	n/a	n/a	n/a	n/a	n/a	n/a	"2020-02-05 11:14:27.933489"	"2020-02-05 11:14:29.437023"	7	5.9292803
"S200205"	"Response_Inhibition"	"RIGHT"	"Time_Max_Exceeded"	1500.0514668	1083.3333355	n/a	n/a	n/a	n/a	n/a	n/a	n/a	"2020-02-05 11:14:30.529908"	"2020-02-05 11:14:32.033743"	8	5.9292803
"S200205"	"Response_Inhibition"	"RIGHT"	"RIGHT"	500.197100000037	1066.6666688	n/a	n/a	n/a	n/a	n/a	n/a	n/a	"2020-02-05 11:14:33.110434"	"2020-02-05 11:14:33.818752"	9	5.9292803
"S200205"	"Response_Inhibition"	"RIGHT"	"Time_Max_Exceeded"	1500.04586689998	633.3333346	n/a	n/a	n/a	n/a	n/a	n/a	n/a	"2020-02-05 11:14:34.462371"	"2020-02-05 11:14:35.965659"	10	5.9292803
"S200205"	"Response_Inhibition"	"LEFT"	"LEFT"	628.250799999989	583.3333345	n/a	n/a	n/a	n/a	n/a	n/a	n/a	"2020-02-05 11:14:36.558321"	"2020-02-05 11:14:37.395139"	11	5.9292803
"S200205"	"Response_Inhibition"	"LEFT"	"LEFT"	841.816199999982	516.6666677	n/a	n/a	n/a	n/a	n/a	n/a	n/a	"2020-02-05 11:14:37.921316"	"2020-02-05 11:14:38.971572"	12	5.9292803
"S200205"	"Response_Inhibition"	"RIGHT"	"RIGHT"	456.582699999956	1150.0000023	n/a	n/a	n/a	n/a	n/a	n/a	n/a	"2020-02-05 11:14:40.131301"	"2020-02-05 11:14:40.796141"	13	5.9292803
"S200205"	"Response_Inhibition"	"RIGHT"	"RIGHT"	751.009899999985	1183.3333357	n/a	n/a	n/a	n/a	n/a	n/a	n/a	"2020-02-05 11:14:41.987927"	"2020-02-05 11:14:42.947290"	14	5.9292803
"S200205"	"Response_Inhibition"	"LEFT"	"Time_Max_Exceeded"	1500.05880049998	533.3333344	n/a	n/a	n/a	n/a	n/a	n/a	n/a	"2020-02-05 11:14:43.492528"	"2020-02-05 11:14:44.995724"	15	5.9292803
"S200205"	"Response_Inhibition"	"LEFT"	"Time_Max_Exceeded"	1500.05873339997	1116.6666689	n/a	n/a	n/a	n/a	n/a	n/a	n/a	"2020-02-05 11:14:46.122393"	"2020-02-05 11:14:47.626410"	16	5.9292803
"S200205"	"Response_Inhibition"	"RIGHT"	"RIGHT"	347.440000000006	683.3333347	n/a	n/a	n/a	n/a	n/a	n/a	n/a	"2020-02-05 11:14:48.319225"	"2020-02-05 11:14:48.874856"	17	5.9292803
"S200205"	"Response_Inhibition"	"RIGHT"	"RIGHT"	394.856800000014	1116.6666689	n/a	n/a	n/a	n/a	n/a	n/a	n/a	"2020-02-05 11:14:50.000420"	"2020-02-05 11:14:50.603140"	18	5.9292803
"S200205"	"Response_Inhibition"	"RIGHT"	"RIGHT"	434.537699999964	1100.0000022	n/a	n/a	n/a	n/a	n/a	n/a	n/a	"2020-02-05 11:14:51.712681"	"2020-02-05 11:14:52.356327"	19	5.9292803
"S200205"	"Response_Inhibition"	"RIGHT"	"RIGHT"	623.437700000011	550.0000011	n/a	n/a	n/a	n/a	n/a	n/a	n/a	"2020-02-05 11:14:52.915850"	"2020-02-05 11:14:53.747254"	20	5.9292803
"S200205"	"Response_Inhibition"	"LEFT"	"Time_Max_Exceeded"	1500.04796719996	750.0000015	n/a	n/a	n/a	n/a	n/a	n/a	n/a	"2020-02-05 11:14:54.506625"	"2020-02-05 11:14:56.009829"	21	5.9292803
"S200205"	"Response_Inhibition"	"LEFT"	"LEFT"	501.576	1216.6666691	n/a	n/a	n/a	n/a	n/a	n/a	n/a	"2020-02-05 11:14:57.236767"	"2020-02-05 11:14:57.946978"	22	5.9292803
"S200205"	"Response_Inhibition"	"LEFT"	"LEFT"	399.563833500017	900.0000018	n/a	n/a	n/a	n/a	n/a	n/a	n/a	"2020-02-05 11:14:58.855782"	"2020-02-05 11:14:59.466757"	23	5.9292803
"S200205"	"Response_Inhibition"	"LEFT"	"LEFT"	544.052900000054	766.6666682	n/a	n/a	n/a	n/a	n/a	n/a	n/a	"2020-02-05 11:15:00.242433"	"2020-02-05 11:15:00.994927"	24	5.9292803
"S200205"	"Response_Inhibition"	"RIGHT"	"RIGHT"	352.559999999983	750.0000015	n/a	n/a	n/a	n/a	n/a	n/a	n/a	"2020-02-05 11:15:01.754432"	"2020-02-05 11:15:02.314931"	25	5.9292803
"S200205"	"Response_Inhibition"	"LEFT"	"LEFT"	611.428799999999	683.3333347	n/a	n/a	n/a	n/a	n/a	n/a	n/a	"2020-02-05 11:15:03.007129"	"2020-02-05 11:15:03.826976"	26	5.9292803
"S200205"	"Response_Inhibition"	"RIGHT"	"RIGHT"	627.527399999963	1100.0000022	n/a	n/a	n/a	n/a	n/a	n/a	n/a	"2020-02-05 11:15:04.935118"	"2020-02-05 11:15:05.769923"	27	5.9292803
"S200205"	"Response_Inhibition"	"LEFT"	"LEFT"	570.545299999992	900.0000018	n/a	n/a	n/a	n/a	n/a	n/a	n/a	"2020-02-05 11:15:06.680509"	"2020-02-05 11:15:07.460463"	28	5.9292803
"S200205"	"Response_Inhibition"	"LEFT"	"Time_Max_Exceeded"	1500.05113369999	716.6666681	n/a	n/a	n/a	n/a	n/a	n/a	n/a	"2020-02-05 11:15:08.186534"	"2020-02-05 11:15:09.690229"	29	5.9292803
"S200205"	"Response_Inhibition"	"RIGHT"	"RIGHT"	372.956600000066	666.666668	n/a	n/a	n/a	n/a	n/a	n/a	n/a	"2020-02-05 11:15:10.365938"	"2020-02-05 11:15:10.948608"	30	5.9292803
"S200205"	"Response_Inhibition"	"LEFT"	"LEFT"	479.535499999997	1316.6666693	n/a	n/a	n/a	n/a	n/a	n/a	n/a	"2020-02-05 11:15:12.275607"	"2020-02-05 11:15:12.962803"	31	5.9292803
"S200205"	"Response_Inhibition"	"LEFT"	"LEFT"	485.768099999973	633.3333346	n/a	n/a	n/a	n/a	n/a	n/a	n/a	"2020-02-05 11:15:13.604634"	"2020-02-05 11:15:14.300140"	32	5.9292803
"S200205"	"Response_Inhibition"	"RIGHT"	"RIGHT"	486.444000000006	583.3333345	n/a	n/a	n/a	n/a	n/a	n/a	n/a	"2020-02-05 11:15:14.892556"	"2020-02-05 11:15:15.587557"	33	5.9292803
"S200205"	"Response_Inhibition"	"RIGHT"	"RIGHT"	424.497200000019	500.000001	n/a	n/a	n/a	n/a	n/a	n/a	n/a	"2020-02-05 11:15:16.098388"	"2020-02-05 11:15:16.730696"	34	5.9292803
"S200205"	"Response_Inhibition"	"RIGHT"	"Time_Max_Exceeded"	1500.05013359995	783.3333349	n/a	n/a	n/a	n/a	n/a	n/a	n/a	"2020-02-05 11:15:17.523184"	"2020-02-05 11:15:19.027242"	35	5.9292803
"S200205"	"Response_Inhibition"	"LEFT"	"LEFT"	448.716300000001	916.6666685	n/a	n/a	n/a	n/a	n/a	n/a	n/a	"2020-02-05 11:15:19.954553"	"2020-02-05 11:15:20.611395"	36	5.9292803
"S200205"	"Response_Inhibition"	"RIGHT"	"RIGHT"	331.527933899988	1200.0000024	n/a	n/a	n/a	n/a	n/a	n/a	n/a	"2020-02-05 11:15:21.819875"	"2020-02-05 11:15:22.361893"	37	5.9292803
"S200205"	"Response_Inhibition"	"RIGHT"	"RIGHT"	532.791999999972	1050.0000021	n/a	n/a	n/a	n/a	n/a	n/a	n/a	"2020-02-05 11:15:23.422442"	"2020-02-05 11:15:24.163901"	38	5.9292803
"S200205"	"Response_Inhibition"	"RIGHT"	"RIGHT"	513.611500000025	916.6666685	n/a	n/a	n/a	n/a	n/a	n/a	n/a	"2020-02-05 11:15:25.089331"	"2020-02-05 11:15:25.811504"	39	5.9292803
"S200205"	"Response_Inhibition"	"RIGHT"	"RIGHT"	552.674799999977	733.3333348	n/a	n/a	n/a	n/a	n/a	n/a	n/a	"2020-02-05 11:15:26.554456"	"2020-02-05 11:15:27.315398"	40	5.9292803
"S200205"	"Response_Inhibition"	"LEFT"	"LEFT"	521.321899999975	1500.000003	n/a	n/a	n/a	n/a	n/a	n/a	n/a	"2020-02-05 11:15:28.825998"	"2020-02-05 11:15:29.555525"	41	5.9292803
"S200205"	"Response_Inhibition"	"LEFT"	"LEFT"	577.754099999993	883.3333351	n/a	n/a	n/a	n/a	n/a	n/a	n/a	"2020-02-05 11:15:30.449183"	"2020-02-05 11:15:31.235060"	42	5.9292803
"S200205"	"Response_Inhibition"	"LEFT"	"LEFT"	458.943999999974	700.0000014	n/a	n/a	n/a	n/a	n/a	n/a	n/a	"2020-02-05 11:15:31.943786"	"2020-02-05 11:15:32.611028"	43	5.9292803
"S200205"	"Response_Inhibition"	"RIGHT"	"RIGHT"	453.848600000015	1033.3333354	n/a	n/a	n/a	n/a	n/a	n/a	n/a	"2020-02-05 11:15:33.652980"	"2020-02-05 11:15:34.315383"	44	5.9292803
"S200205"	"Response_Inhibition"	"RIGHT"	"RIGHT"	491.493400000081	1450.0000029	n/a	n/a	n/a	n/a	n/a	n/a	n/a	"2020-02-05 11:15:35.775365"	"2020-02-05 11:15:36.475496"	45	5.9292803
"S200205"	"Response_Inhibition"	"LEFT"	"Time_Max_Exceeded"	1500.04950009998	566.6666678	n/a	n/a	n/a	n/a	n/a	n/a	n/a	"2020-02-05 11:15:37.052115"	"2020-02-05 11:15:38.555792"	46	5.9292803
"S200205"	"Response_Inhibition"	"LEFT"	"LEFT"	434.297900000047	1100.0000022	n/a	n/a	n/a	n/a	n/a	n/a	n/a	"2020-02-05 11:15:39.664831"	"2020-02-05 11:15:40.306120"	47	5.9292803
"S200205"	"Response_Inhibition"	"LEFT"	"LEFT"	491.590900000006	650.0000013	n/a	n/a	n/a	n/a	n/a	n/a	n/a	"2020-02-05 11:15:40.967671"	"2020-02-05 11:15:41.667419"	48	5.9292803
"S200205"	"Response_Inhibition"	"LEFT"	"Time_Max_Exceeded"	1500.05316679998	1033.3333354	n/a	n/a	n/a	n/a	n/a	n/a	n/a	"2020-02-05 11:15:42.709556"	"2020-02-05 11:15:44.213214"	49	5.9292803
"S200205"	"Response_Inhibition"	"LEFT"	"LEFT"	392.453900399919	816.6666683	n/a	n/a	n/a	n/a	n/a	n/a	n/a	"2020-02-05 11:15:45.039286"	"2020-02-05 11:15:45.643854"	50	5.9292803
"S200205"	"Response_Inhibition"	"LEFT"	"LEFT"	442.52419999998	1300.0000026	n/a	n/a	n/a	n/a	n/a	n/a	n/a	"2020-02-05 11:15:46.952253"	"2020-02-05 11:15:47.602788"	51	5.9292803
"S200205"	"Response_Inhibition"	"LEFT"	"LEFT"	470.275599999923	1016.6666687	n/a	n/a	n/a	n/a	n/a	n/a	n/a	"2020-02-05 11:15:48.628912"	"2020-02-05 11:15:49.307753"	52	5.9292803
"S200205"	"Response_Inhibition"	"RIGHT"	"RIGHT"	487.726000000066	950.0000019	n/a	n/a	n/a	n/a	n/a	n/a	n/a	"2020-02-05 11:15:50.267595"	"2020-02-05 11:15:50.963431"	53	5.9292803
"S200205"	"Response_Inhibition"	"RIGHT"	"RIGHT"	438.139200000023	1416.6666695	n/a	n/a	n/a	n/a	n/a	n/a	n/a	"2020-02-05 11:15:52.388653"	"2020-02-05 11:15:53.033954"	54	5.9292803
"S200205"	"Response_Inhibition"	"RIGHT"	"RIGHT"	608.264500000018	1366.6666694	n/a	n/a	n/a	n/a	n/a	n/a	n/a	"2020-02-05 11:15:54.410409"	"2020-02-05 11:15:55.227813"	55	5.9292803
"S200205"	"Response_Inhibition"	"RIGHT"	"RIGHT"	489.358400000015	633.3333346	n/a	n/a	n/a	n/a	n/a	n/a	n/a	"2020-02-05 11:15:55.873844"	"2020-02-05 11:15:56.570183"	56	5.9292803
"S200205"	"Response_Inhibition"	"LEFT"	"LEFT"	580.952700000012	683.3333347	n/a	n/a	n/a	n/a	n/a	n/a	n/a	"2020-02-05 11:15:57.262476"	"2020-02-05 11:15:58.050942"	57	5.9292803
"S200205"	"Response_Inhibition"	"LEFT"	"LEFT"	551.195200000052	950.0000019	n/a	n/a	n/a	n/a	n/a	n/a	n/a	"2020-02-05 11:15:59.012110"	"2020-02-05 11:15:59.771182"	58	5.9292803
"S200205"	"Response_Inhibition"	"RIGHT"	"RIGHT"	641.305099999954	1300.0000026	n/a	n/a	n/a	n/a	n/a	n/a	n/a	"2020-02-05 11:16:01.081243"	"2020-02-05 11:16:01.932197"	59	5.9292803
"S200205"	"Response_Inhibition"	"LEFT"	"Time_Max_Exceeded"	1500.05966669998	1416.6666695	n/a	n/a	n/a	n/a	n/a	n/a	n/a	"2020-02-05 11:16:03.358419"	"2020-02-05 11:16:04.861816"	60	5.9292803
"S200205"	"Response_Inhibition"	"RIGHT"	"Time_Max_Exceeded"	1500.06016699994	683.3333347	n/a	n/a	n/a	n/a	n/a	n/a	n/a	"2020-02-05 11:16:05.555476"	"2020-02-05 11:16:07.058473"	61	5.9292803
"S200205"	"Response_Inhibition"	"RIGHT"	"Time_Max_Exceeded"	1500.10850000001	966.6666686	n/a	n/a	n/a	n/a	n/a	n/a	n/a	"2020-02-05 11:16:08.035885"	"2020-02-05 11:16:09.535511"	62	5.9292803
"S200205"	"Response_Inhibition"	"LEFT"	"Time_Max_Exceeded"	1500.05703379994	1100.0000022	n/a	n/a	n/a	n/a	n/a	n/a	n/a	"2020-02-05 11:16:10.645051"	"2020-02-05 11:16:12.148054"	63	5.9292803
"S200205"	"Response_Inhibition"	"RIGHT"	"RIGHT"	480.597099999954	1266.6666692	n/a	n/a	n/a	n/a	n/a	n/a	n/a	"2020-02-05 11:16:13.426670"	"2020-02-05 11:16:14.115284"	64	5.9292803
"S200205"	"Response_Inhibition"	"LEFT"	"Time_Max_Exceeded"	1500.05323349998	1050.0000021	n/a	n/a	n/a	n/a	n/a	n/a	n/a	"2020-02-05 11:16:15.174497"	"2020-02-05 11:16:16.678045"	65	5.9292803
"S200205"	"Response_Inhibition"	"LEFT"	"LEFT"	667.301299999963	800.0000016	n/a	n/a	n/a	n/a	n/a	n/a	n/a	"2020-02-05 11:16:17.487887"	"2020-02-05 11:16:18.363044"	66	5.9292803
"S200205"	"Response_Inhibition"	"LEFT"	"LEFT"	546.543000000042	533.3333344	n/a	n/a	n/a	n/a	n/a	n/a	n/a	"2020-02-05 11:16:18.904554"	"2020-02-05 11:16:19.659015"	67	5.9292803
"S200205"	"Response_Inhibition"	"LEFT"	"LEFT"	607.055100000025	600.0000012	n/a	n/a	n/a	n/a	n/a	n/a	n/a	"2020-02-05 11:16:20.268379"	"2020-02-05 11:16:21.084297"	68	5.9292803
"S200205"	"Response_Inhibition"	"RIGHT"	"RIGHT"	610.82220000003	866.6666684	n/a	n/a	n/a	n/a	n/a	n/a	n/a	"2020-02-05 11:16:21.960079"	"2020-02-05 11:16:22.780103"	69	5.9292803
"S200205"	"Response_Inhibition"	"RIGHT"	"Time_Max_Exceeded"	1500.04923390005	1416.6666695	n/a	n/a	n/a	n/a	n/a	n/a	n/a	"2020-02-05 11:16:24.204982"	"2020-02-05 11:16:25.708433"	70	5.9292803
"S200205"	"Response_Inhibition"	"LEFT"	"LEFT"	509.029399999918	1366.6666694	n/a	n/a	n/a	n/a	n/a	n/a	n/a	"2020-02-05 11:16:27.086605"	"2020-02-05 11:16:27.804625"	71	5.9292803
"S200205"	"Response_Inhibition"	"LEFT"	"LEFT"	541.184499999986	1200.0000024	n/a	n/a	n/a	n/a	n/a	n/a	n/a	"2020-02-05 11:16:29.014045"	"2020-02-05 11:16:29.762842"	72	5.9292803
"S200205"	"Response_Inhibition"	"RIGHT"	"Time_Max_Exceeded"	1500.05906700009	850.0000017	n/a	n/a	n/a	n/a	n/a	n/a	n/a	"2020-02-05 11:16:30.622695"	"2020-02-05 11:16:32.126100"	73	5.9292803
"S200205"	"Response_Inhibition"	"RIGHT"	"RIGHT"	559.28629999994	900.0000018	n/a	n/a	n/a	n/a	n/a	n/a	n/a	"2020-02-05 11:16:33.035629"	"2020-02-05 11:16:33.804167"	74	5.9292803
"S200205"	"Response_Inhibition"	"RIGHT"	"RIGHT"	520.796000000018	1333.333336	n/a	n/a	n/a	n/a	n/a	n/a	n/a	"2020-02-05 11:16:35.146218"	"2020-02-05 11:16:35.876506"	75	5.9292803
"S200205"	"Response_Inhibition"	"LEFT"	"LEFT"	545.347300000003	1483.3333363	n/a	n/a	n/a	n/a	n/a	n/a	n/a	"2020-02-05 11:16:37.370044"	"2020-02-05 11:16:38.123322"	76	5.9292803
"S200205"	"Response_Inhibition"	"LEFT"	"Time_Max_Exceeded"	1500.06843369996	1416.6666695	n/a	n/a	n/a	n/a	n/a	n/a	n/a	"2020-02-05 11:16:39.548643"	"2020-02-05 11:16:41.052472"	77	5.9292803
"S200205"	"Response_Inhibition"	"RIGHT"	"RIGHT"	323.521700000015	1016.6666687	n/a	n/a	n/a	n/a	n/a	n/a	n/a	"2020-02-05 11:16:42.079738"	"2020-02-05 11:16:42.612447"	78	5.9292803
"S200205"	"Response_Inhibition"	"LEFT"	"LEFT"	468.119600000023	850.0000017	n/a	n/a	n/a	n/a	n/a	n/a	n/a	"2020-02-05 11:16:43.470853"	"2020-02-05 11:16:44.148925"	79	5.9292803
"S200205"	"Response_Inhibition"	"RIGHT"	"RIGHT"	421.910199999957	983.3333353	n/a	n/a	n/a	n/a	n/a	n/a	n/a	"2020-02-05 11:16:45.141401"	"2020-02-05 11:16:45.771582"	80	5.9292803
"S200205"	"Response_Inhibition"	"RIGHT"	"RIGHT"	636.058000000048	1250.0000025	n/a	n/a	n/a	n/a	n/a	n/a	n/a	"2020-02-05 11:16:47.031007"	"2020-02-05 11:16:47.874857"	81	5.9292803
"S200205"	"Response_Inhibition"	"LEFT"	"Time_Max_Exceeded"	1500.06603360006	1000.000002	n/a	n/a	n/a	n/a	n/a	n/a	n/a	"2020-02-05 11:16:48.883950"	"2020-02-05 11:16:50.388288"	82	5.9292803
"S200205"	"Response_Inhibition"	"RIGHT"	"RIGHT"	573.750300000029	783.3333349	n/a	n/a	n/a	n/a	n/a	n/a	n/a	"2020-02-05 11:16:51.181595"	"2020-02-05 11:16:51.961732"	83	5.9292803
"S200205"	"Response_Inhibition"	"RIGHT"	"RIGHT"	702.28110000005	850.0000017	n/a	n/a	n/a	n/a	n/a	n/a	n/a	"2020-02-05 11:16:52.821226"	"2020-02-05 11:16:53.730804"	84	5.9292803
"S200205"	"Response_Inhibition"	"LEFT"	"LEFT"	520.100500000012	966.6666686	n/a	n/a	n/a	n/a	n/a	n/a	n/a	"2020-02-05 11:16:54.707137"	"2020-02-05 11:16:55.435420"	85	5.9292803
"S200205"	"Response_Inhibition"	"LEFT"	"LEFT"	760.900300000003	733.3333348	n/a	n/a	n/a	n/a	n/a	n/a	n/a	"2020-02-05 11:16:56.178402"	"2020-02-05 11:16:57.146996"	86	5.9292803
"S200205"	"Response_Inhibition"	"RIGHT"	"RIGHT"	610.466100000053	1500.000003	n/a	n/a	n/a	n/a	n/a	n/a	n/a	"2020-02-05 11:16:58.656304"	"2020-02-05 11:16:59.475113"	87	5.9292803
"S200205"	"Response_Inhibition"	"LEFT"	"LEFT"	536.326600000052	1150.0000023	n/a	n/a	n/a	n/a	n/a	n/a	n/a	"2020-02-05 11:17:00.635009"	"2020-02-05 11:17:01.378054"	88	5.9292803
"S200205"	"Response_Inhibition"	"LEFT"	"LEFT"	568.159300000048	583.3333345	n/a	n/a	n/a	n/a	n/a	n/a	n/a	"2020-02-05 11:17:01.970678"	"2020-02-05 11:17:02.747131"	89	5.9292803
"S200205"	"Response_Inhibition"	"RIGHT"	"RIGHT"	758.781699999986	600.0000012	n/a	n/a	n/a	n/a	n/a	n/a	n/a	"2020-02-05 11:17:03.356497"	"2020-02-05 11:17:04.324045"	90	5.9292803
"S200205"	"Response_Inhibition"	"LEFT"	"LEFT"	814.528300000006	1383.3333361	n/a	n/a	n/a	n/a	n/a	n/a	n/a	"2020-02-05 11:17:05.716047"	"2020-02-05 11:17:06.739342"	91	5.9292803
"S200205"	"Response_Inhibition"	"LEFT"	"Time_Max_Exceeded"	1500.05320030005	783.3333349	n/a	n/a	n/a	n/a	n/a	n/a	n/a	"2020-02-05 11:17:07.531741"	"2020-02-05 11:17:09.035790"	92	5.9292803
"S200205"	"Response_Inhibition"	"RIGHT"	"RIGHT"	514.351300000044	1433.3333362	n/a	n/a	n/a	n/a	n/a	n/a	n/a	"2020-02-05 11:17:10.480979"	"2020-02-05 11:17:11.203339"	93	5.9292803
"S200205"	"Response_Inhibition"	"LEFT"	"Time_Max_Exceeded"	1500.10060019997	933.3333352	n/a	n/a	n/a	n/a	n/a	n/a	n/a	"2020-02-05 11:17:12.145921"	"2020-02-05 11:17:13.648980"	94	5.9292803
"S200205"	"Response_Inhibition"	"RIGHT"	"Time_Max_Exceeded"	1500.06763339998	583.3333345	n/a	n/a	n/a	n/a	n/a	n/a	n/a	"2020-02-05 11:17:14.241071"	"2020-02-05 11:17:15.745292"	95	5.9292803
"S200205"	"Response_Inhibition"	"LEFT"	"LEFT"	391.234499999996	1433.3333362	n/a	n/a	n/a	n/a	n/a	n/a	n/a	"2020-02-05 11:17:17.187701"	"2020-02-05 11:17:17.788130"	96	5.9292803
"S200205"	"Response_Inhibition"	"LEFT"	"Time_Max_Exceeded"	1500.07256709993	1466.6666696	n/a	n/a	n/a	n/a	n/a	n/a	n/a	"2020-02-05 11:17:19.263204"	"2020-02-05 11:17:20.767607"	97	5.9292803
"S200205"	"Response_Inhibition"	"LEFT"	"LEFT"	643.289800000048	783.3333349	n/a	n/a	n/a	n/a	n/a	n/a	n/a	"2020-02-05 11:17:21.559497"	"2020-02-05 11:17:22.410827"	98	5.9292803
"S200205"	"Response_Inhibition"	"RIGHT"	"RIGHT"	446.287199999915	1383.3333361	n/a	n/a	n/a	n/a	n/a	n/a	n/a	"2020-02-05 11:17:23.804471"	"2020-02-05 11:17:24.459098"	99	5.9292803
"S200205"	"Response_Inhibition"	"RIGHT"	"RIGHT"	440.893899999992	1316.6666693	n/a	n/a	n/a	n/a	n/a	n/a	n/a	"2020-02-05 11:17:25.786122"	"2020-02-05 11:17:26.436381"	100	5.9292803
"S200205"	"Response_Inhibition"	"LEFT"	"LEFT"	775.941800000055	1366.6666694	n/a	n/a	n/a	n/a	n/a	n/a	n/a	"2020-02-05 11:17:27.812313"	"2020-02-05 11:17:28.796419"	101	5.9292803
"S200205"	"Response_Inhibition"	"RIGHT"	"Time_Max_Exceeded"	1500.0536669999	533.3333344	n/a	n/a	n/a	n/a	n/a	n/a	n/a	"2020-02-05 11:17:29.338937"	"2020-02-05 11:17:30.842501"	102	5.9292803
"S200205"	"Response_Inhibition"	"RIGHT"	"RIGHT"	458.014400000025	900.0000018	n/a	n/a	n/a	n/a	n/a	n/a	n/a	"2020-02-05 11:17:31.753576"	"2020-02-05 11:17:32.419314"	103	5.9292803
"S200205"	"Response_Inhibition"	"RIGHT"	"RIGHT"	547.329800599989	1000.000002	n/a	n/a	n/a	n/a	n/a	n/a	n/a	"2020-02-05 11:17:33.428681"	"2020-02-05 11:17:34.188036"	104	5.9292803
"S200205"	"Response_Inhibition"	"RIGHT"	"Time_Max_Exceeded"	1500.05920019999	716.6666681	n/a	n/a	n/a	n/a	n/a	n/a	n/a	"2020-02-05 11:17:34.913635"	"2020-02-05 11:17:36.416632"	105	5.9292803
"S200205"	"Response_Inhibition"	"LEFT"	"LEFT"	496.968799999991	1000.000002	n/a	n/a	n/a	n/a	n/a	n/a	n/a	"2020-02-05 11:17:37.426568"	"2020-02-05 11:17:38.130765"	106	5.9292803
"S200205"	"Response_Inhibition"	"RIGHT"	"RIGHT"	551.688000000013	1000.000002	n/a	n/a	n/a	n/a	n/a	n/a	n/a	"2020-02-05 11:17:39.139063"	"2020-02-05 11:17:39.901206"	107	5.9292803
"S200205"	"Response_Inhibition"	"RIGHT"	"RIGHT"	653.876800000035	566.6666678	n/a	n/a	n/a	n/a	n/a	n/a	n/a	"2020-02-05 11:17:40.476815"	"2020-02-05 11:17:41.340247"	108	5.9292803
"S200205"	"Response_Inhibition"	"LEFT"	"LEFT"	558.479200000079	1183.3333357	n/a	n/a	n/a	n/a	n/a	n/a	n/a	"2020-02-05 11:17:42.532666"	"2020-02-05 11:17:43.299142"	109	5.9292803
"S200205"	"Response_Inhibition"	"LEFT"	"LEFT"	593.354399999953	950.0000019	n/a	n/a	n/a	n/a	n/a	n/a	n/a	"2020-02-05 11:17:44.257995"	"2020-02-05 11:17:45.059549"	110	5.9292803
"S200205"	"Response_Inhibition"	"RIGHT"	"RIGHT"	477.526399999988	833.333335	n/a	n/a	n/a	n/a	n/a	n/a	n/a	"2020-02-05 11:17:45.901296"	"2020-02-05 11:17:46.586781"	111	5.9292803
"S200205"	"Response_Inhibition"	"RIGHT"	"RIGHT"	838.855999999964	800.0000016	n/a	n/a	n/a	n/a	n/a	n/a	n/a	"2020-02-05 11:17:47.396186"	"2020-02-05 11:17:48.443628"	112	5.9292803
"S200205"	"Response_Inhibition"	"RIGHT"	"Time_Max_Exceeded"	1500.08016689996	1366.6666694	n/a	n/a	n/a	n/a	n/a	n/a	n/a	"2020-02-05 11:17:49.819529"	"2020-02-05 11:17:51.323573"	113	5.9292803
"S200205"	"Response_Inhibition"	"RIGHT"	"Time_Max_Exceeded"	1500.05713369998	1050.0000021	n/a	n/a	n/a	n/a	n/a	n/a	n/a	"2020-02-05 11:17:52.384417"	"2020-02-05 11:17:53.888004"	114	5.9292803
"S200205"	"Response_Inhibition"	"RIGHT"	"RIGHT"	558.029000000033	1266.6666692	n/a	n/a	n/a	n/a	n/a	n/a	n/a	"2020-02-05 11:17:55.165300"	"2020-02-05 11:17:55.931344"	115	5.9292803
"S200205"	"Response_Inhibition"	"RIGHT"	"RIGHT"	470.384000400035	733.3333348	n/a	n/a	n/a	n/a	n/a	n/a	n/a	"2020-02-05 11:17:56.674015"	"2020-02-05 11:17:57.357670"	116	5.9292803
"S200205"	"Response_Inhibition"	"RIGHT"	"Time_Max_Exceeded"	1500.04820050004	933.3333352	n/a	n/a	n/a	n/a	n/a	n/a	n/a	"2020-02-05 11:17:58.299477"	"2020-02-05 11:17:59.803441"	117	5.9292803
"S200205"	"Response_Inhibition"	"LEFT"	"LEFT"	523.207599999978	1250.0000025	n/a	n/a	n/a	n/a	n/a	n/a	n/a	"2020-02-05 11:18:01.063391"	"2020-02-05 11:18:01.796495"	118	5.9292803
"S200205"	"Response_Inhibition"	"RIGHT"	"RIGHT"	590.376000599924	883.3333351	n/a	n/a	n/a	n/a	n/a	n/a	n/a	"2020-02-05 11:18:02.689320"	"2020-02-05 11:18:03.491506"	119	5.9292803
"S200205"	"Response_Inhibition"	"LEFT"	"LEFT"	579.671699999949	1283.3333359	n/a	n/a	n/a	n/a	n/a	n/a	n/a	"2020-02-05 11:18:04.783688"	"2020-02-05 11:18:05.571860"	120	5.9292803
"S200205"	"Response_Inhibition"	"LEFT"	"Time_Max_Exceeded"	1500.06780000001	1166.666669	n/a	n/a	n/a	n/a	n/a	n/a	n/a	"2020-02-05 11:18:06.746869"	"2020-02-05 11:18:08.247362"	121	5.9292803
"S200205"	"Response_Inhibition"	"RIGHT"	"Time_Max_Exceeded"	1500.06253379999	1350.0000027	n/a	n/a	n/a	n/a	n/a	n/a	n/a	"2020-02-05 11:18:09.608985"	"2020-02-05 11:18:11.112372"	122	5.9292803
"S200205"	"Response_Inhibition"	"LEFT"	"Time_Max_Exceeded"	1500.08766680007	1233.3333358	n/a	n/a	n/a	n/a	n/a	n/a	n/a	"2020-02-05 11:18:12.355680"	"2020-02-05 11:18:13.858537"	123	5.9292803
"S200205"	"Response_Inhibition"	"RIGHT"	"RIGHT"	612.769499999899	1466.6666696	n/a	n/a	n/a	n/a	n/a	n/a	n/a	"2020-02-05 11:18:15.334899"	"2020-02-05 11:18:16.154805"	124	5.9292803
"S200205"	"Response_Inhibition"	"RIGHT"	"RIGHT"	701.953499999945	1216.6666691	n/a	n/a	n/a	n/a	n/a	n/a	n/a	"2020-02-05 11:18:17.381318"	"2020-02-05 11:18:18.291780"	125	5.9292803
"S200205"	"Response_Inhibition"	"RIGHT"	"RIGHT"	662.517800000046	1400.0000028	n/a	n/a	n/a	n/a	n/a	n/a	n/a	"2020-02-05 11:18:19.700823"	"2020-02-05 11:18:20.570916"	126	5.9292803
"S200205"	"Response_Inhibition"	"RIGHT"	"Time_Max_Exceeded"	1500.05206730002	1150.0000023	n/a	n/a	n/a	n/a	n/a	n/a	n/a	"2020-02-05 11:18:21.730737"	"2020-02-05 11:18:23.234216"	127	5.9292803
"S200205"	"Response_Inhibition"	"LEFT"	"LEFT"	611.343499999975	1266.6666692	n/a	n/a	n/a	n/a	n/a	n/a	n/a	"2020-02-05 11:18:24.511826"	"2020-02-05 11:18:25.330905"	128	5.9292803
"S200205"	"Response_Inhibition"	"LEFT"	"LEFT"	593.543100000034	1150.0000023	n/a	n/a	n/a	n/a	n/a	n/a	n/a	"2020-02-05 11:18:26.489638"	"2020-02-05 11:18:27.291098"	129	5.9292803
"S200205"	"Response_Inhibition"	"RIGHT"	"Time_Max_Exceeded"	1500.05376720007	533.3333344	n/a	n/a	n/a	n/a	n/a	n/a	n/a	"2020-02-05 11:18:27.834111"	"2020-02-05 11:18:29.338168"	130	5.9292803
"S200205"	"Response_Inhibition"	"RIGHT"	"Time_Max_Exceeded"	1500.06663350003	1283.3333359	n/a	n/a	n/a	n/a	n/a	n/a	n/a	"2020-02-05 11:18:30.631455"	"2020-02-05 11:18:32.135220"	131	5.9292803
"S200205"	"Response_Inhibition"	"RIGHT"	"RIGHT"	799.853299999995	650.0000013	n/a	n/a	n/a	n/a	n/a	n/a	n/a	"2020-02-05 11:18:32.795646"	"2020-02-05 11:18:33.802744"	132	5.9292803
"S200205"	"Response_Inhibition"	"RIGHT"	"RIGHT"	673.91479999992	950.0000019	n/a	n/a	n/a	n/a	n/a	n/a	n/a	"2020-02-05 11:18:34.761541"	"2020-02-05 11:18:35.643770"	133	5.9292803
"S200205"	"Response_Inhibition"	"LEFT"	"LEFT"	649.454499999933	1133.3333356	n/a	n/a	n/a	n/a	n/a	n/a	n/a	"2020-02-05 11:18:36.785388"	"2020-02-05 11:18:37.642704"	134	5.9292803
"S200205"	"Response_Inhibition"	"RIGHT"	"RIGHT"	659.042099999965	516.6666677	n/a	n/a	n/a	n/a	n/a	n/a	n/a	"2020-02-05 11:18:38.167918"	"2020-02-05 11:18:39.035007"	135	5.9292803
"S200205"	"Response_Inhibition"	"RIGHT"	"RIGHT"	726.610100000016	1216.6666691	n/a	n/a	n/a	n/a	n/a	n/a	n/a	"2020-02-05 11:18:40.260354"	"2020-02-05 11:18:41.196146"	136	5.9292803
"S200205"	"Response_Inhibition"	"LEFT"	"LEFT"	678.114899999969	1400.0000028	n/a	n/a	n/a	n/a	n/a	n/a	n/a	"2020-02-05 11:18:42.605151"	"2020-02-05 11:18:43.492308"	137	5.9292803
"S200205"	"Response_Inhibition"	"LEFT"	"LEFT"	482.676699999956	1466.6666696	n/a	n/a	n/a	n/a	n/a	n/a	n/a	"2020-02-05 11:18:44.968123"	"2020-02-05 11:18:45.659057"	138	5.9292803
"S200205"	"Response_Inhibition"	"LEFT"	"Time_Max_Exceeded"	1500.05856710008	633.3333346	n/a	n/a	n/a	n/a	n/a	n/a	n/a	"2020-02-05 11:18:46.303069"	"2020-02-05 11:18:47.807044"	139	5.9292803
"S200205"	"Response_Inhibition"	"RIGHT"	"RIGHT"	454.389033800079	1233.3333358	n/a	n/a	n/a	n/a	n/a	n/a	n/a	"2020-02-05 11:18:49.049638"	"2020-02-05 11:18:49.715576"	140	5.9292803
"S200205"	"Response_Inhibition"	"LEFT"	"LEFT"	368.266299999959	1333.333336	n/a	n/a	n/a	n/a	n/a	n/a	n/a	"2020-02-05 11:18:51.059032"	"2020-02-05 11:18:51.636772"	141	5.9292803
"S200205"	"Response_Inhibition"	"LEFT"	"LEFT"	460.289567299968	1316.6666693	n/a	n/a	n/a	n/a	n/a	n/a	n/a	"2020-02-05 11:18:52.963285"	"2020-02-05 11:18:53.635047"	142	5.9292803
"S200205"	"Response_Inhibition"	"LEFT"	"Time_Max_Exceeded"	1500.04790009996	866.6666684	n/a	n/a	n/a	n/a	n/a	n/a	n/a	"2020-02-05 11:18:54.511226"	"2020-02-05 11:18:56.015308"	143	5.9292803
"S200205"	"Response_Inhibition"	"RIGHT"	"RIGHT"	574.599000000035	700.0000014	n/a	n/a	n/a	n/a	n/a	n/a	n/a	"2020-02-05 11:18:56.724795"	"2020-02-05 11:18:57.507276"	144	5.9292803
"S200205"	"Response_Inhibition"	"LEFT"	"LEFT"	679.81020000002	550.0000011	n/a	n/a	n/a	n/a	n/a	n/a	n/a	"2020-02-05 11:18:58.067941"	"2020-02-05 11:18:58.956934"	145	5.9292803
"S200205"	"Response_Inhibition"	"RIGHT"	"RIGHT"	589.068200000042	766.6666682	n/a	n/a	n/a	n/a	n/a	n/a	n/a	"2020-02-05 11:18:59.733896"	"2020-02-05 11:19:00.530644"	146	5.9292803
"S200205"	"Response_Inhibition"	"LEFT"	"LEFT"	580.589900000064	1050.0000021	n/a	n/a	n/a	n/a	n/a	n/a	n/a	"2020-02-05 11:19:01.590283"	"2020-02-05 11:19:02.380209"	147	5.9292803
"S200205"	"Response_Inhibition"	"LEFT"	"LEFT"	673.302799999988	733.3333348	n/a	n/a	n/a	n/a	n/a	n/a	n/a	"2020-02-05 11:19:03.121798"	"2020-02-05 11:19:04.003052"	148	5.9292803
"S200205"	"Response_Inhibition"	"LEFT"	"LEFT"	692.398400000002	1066.6666688	n/a	n/a	n/a	n/a	n/a	n/a	n/a	"2020-02-05 11:19:05.078213"	"2020-02-05 11:19:05.979645"	149	5.9292803
"S200205"	"Response_Inhibition"	"LEFT"	"LEFT"	543.667967200052	500.000001	n/a	n/a	n/a	n/a	n/a	n/a	n/a	"2020-02-05 11:19:06.488285"	"2020-02-05 11:19:07.244315"	150	5.9292803
"S200205"	"Response_Inhibition"	"RIGHT"	"Time_Max_Exceeded"	1500.05700060002	816.6666683	n/a	n/a	n/a	n/a	n/a	n/a	n/a	"2020-02-05 11:19:08.071092"	"2020-02-05 11:19:09.574440"	151	5.9292803
"S200205"	"Response_Inhibition"	"RIGHT"	"RIGHT"	556.337600000006	1166.666669	n/a	n/a	n/a	n/a	n/a	n/a	n/a	"2020-02-05 11:19:10.750982"	"2020-02-05 11:19:11.517224"	152	5.9292803
"S200205"	"Response_Inhibition"	"LEFT"	"Time_Max_Exceeded"	1500.06573359993	666.666668	n/a	n/a	n/a	n/a	n/a	n/a	n/a	"2020-02-05 11:19:12.192984"	"2020-02-05 11:19:13.695615"	153	5.9292803
"S200205"	"Response_Inhibition"	"LEFT"	"LEFT"	471.666899999946	1450.0000029	n/a	n/a	n/a	n/a	n/a	n/a	n/a	"2020-02-05 11:19:15.155239"	"2020-02-05 11:19:15.836453"	154	5.9292803
"S200205"	"Response_Inhibition"	"LEFT"	"Time_Max_Exceeded"	1500.04590030005	1350.0000027	n/a	n/a	n/a	n/a	n/a	n/a	n/a	"2020-02-05 11:19:17.195554"	"2020-02-05 11:19:18.698692"	155	5.9292803
"S200205"	"Response_Inhibition"	"LEFT"	"LEFT"	637.027799999942	850.0000017	n/a	n/a	n/a	n/a	n/a	n/a	n/a	"2020-02-05 11:19:19.558011"	"2020-02-05 11:19:20.402966"	156	5.9292803
"S200205"	"Response_Inhibition"	"RIGHT"	"Time_Max_Exceeded"	1500.05966689996	1466.6666696	n/a	n/a	n/a	n/a	n/a	n/a	n/a	"2020-02-05 11:19:21.879900"	"2020-02-05 11:19:23.383880"	157	5.9292803
"S200205"	"Response_Inhibition"	"RIGHT"	"RIGHT"	599.184199999968	1483.3333363	n/a	n/a	n/a	n/a	n/a	n/a	n/a	"2020-02-05 11:19:24.875839"	"2020-02-05 11:19:25.683375"	158	5.9292803
"S200205"	"Response_Inhibition"	"LEFT"	"LEFT"	586.762999999905	1083.3333355	n/a	n/a	n/a	n/a	n/a	n/a	n/a	"2020-02-05 11:19:26.776318"	"2020-02-05 11:19:27.570749"	159	5.9292803
"S200205"	"Response_Inhibition"	"RIGHT"	"Time_Max_Exceeded"	1500.04720040011	1316.6666693	n/a	n/a	n/a	n/a	n/a	n/a	n/a	"2020-02-05 11:19:28.897010"	"2020-02-05 11:19:30.400322"	160	5.9292803
"S200205"	"Response_Selection"	"RIGHT"	"RIGHT"	391.835200000003	1366.6666694	n/a	n/a	n/a	n/a	n/a	n/a	n/a	"2020-02-05 11:11:32.722586"	"2020-02-05 11:11:33.322693"	1	2.92663148333333
"S200205"	"Response_Selection"	"RIGHT"	"RIGHT"	348.129400000005	883.3333351	n/a	n/a	n/a	n/a	n/a	n/a	n/a	"2020-02-05 11:11:34.214206"	"2020-02-05 11:11:34.771229"	2	2.92663148333333
"S200205"	"Response_Selection"	"RIGHT"	"RIGHT"	318.997500000023	783.3333349	n/a	n/a	n/a	n/a	n/a	n/a	n/a	"2020-02-05 11:11:35.564701"	"2020-02-05 11:11:36.092454"	3	2.92663148333333
"S200205"	"Response_Selection"	"LEFT"	"LEFT"	414.107600000023	1366.6666694	n/a	n/a	n/a	n/a	n/a	n/a	n/a	"2020-02-05 11:11:37.468547"	"2020-02-05 11:11:38.089894"	4	2.92663148333333
"S200205"	"Response_Selection"	"LEFT"	"LEFT"	340.204700000015	883.3333351	n/a	n/a	n/a	n/a	n/a	n/a	n/a	"2020-02-05 11:11:38.982826"	"2020-02-05 11:11:39.530740"	5	2.92663148333333
"S200205"	"Response_Selection"	"LEFT"	"LEFT"	415.230799999961	783.3333349	n/a	n/a	n/a	n/a	n/a	n/a	n/a	"2020-02-05 11:11:40.323182"	"2020-02-05 11:11:40.947415"	6	2.92663148333333
"S200205"	"Response_Selection"	"RIGHT"	"RIGHT"	288.306900000009	550.0000011	n/a	n/a	n/a	n/a	n/a	n/a	n/a	"2020-02-05 11:11:41.506743"	"2020-02-05 11:11:42.003440"	7	2.92663148333333
"S200205"	"Response_Selection"	"LEFT"	"LEFT"	315.680900000018	866.6666684	n/a	n/a	n/a	n/a	n/a	n/a	n/a	"2020-02-05 11:11:42.878609"	"2020-02-05 11:11:43.403763"	8	2.92663148333333
"S200205"	"Response_Selection"	"RIGHT"	"RIGHT"	283.783699999958	1466.6666696	n/a	n/a	n/a	n/a	n/a	n/a	n/a	"2020-02-05 11:11:44.878805"	"2020-02-05 11:11:45.370709"	9	2.92663148333333
"S200205"	"Response_Selection"	"LEFT"	"LEFT"	326.636699999995	600.0000012	n/a	n/a	n/a	n/a	n/a	n/a	n/a	"2020-02-05 11:11:45.980090"	"2020-02-05 11:11:46.515265"	10	2.92663148333333
"S200205"	"Response_Selection"	"LEFT"	"LEFT"	310.144799999989	583.3333345	n/a	n/a	n/a	n/a	n/a	n/a	n/a	"2020-02-05 11:11:47.108718"	"2020-02-05 11:11:47.625866"	11	2.92663148333333
"S200205"	"Response_Selection"	"RIGHT"	"RIGHT"	283.539599999983	1300.0000026	n/a	n/a	n/a	n/a	n/a	n/a	n/a	"2020-02-05 11:11:48.934944"	"2020-02-05 11:11:49.426663"	12	2.92663148333333
"S200205"	"Response_Selection"	"RIGHT"	"RIGHT"	342.1199	1200.0000024	n/a	n/a	n/a	n/a	n/a	n/a	n/a	"2020-02-05 11:11:50.636735"	"2020-02-05 11:11:51.187309"	13	2.92663148333333
"S200205"	"Response_Selection"	"RIGHT"	"RIGHT"	337.447999999995	916.6666685	n/a	n/a	n/a	n/a	n/a	n/a	n/a	"2020-02-05 11:11:52.113247"	"2020-02-05 11:11:52.659304"	14	2.92663148333333
"S200205"	"Response_Selection"	"LEFT"	"LEFT"	256.79550000001	1300.0000026	n/a	n/a	n/a	n/a	n/a	n/a	n/a	"2020-02-05 11:11:53.970102"	"2020-02-05 11:11:54.435460"	15	2.92663148333333
"S200205"	"Response_Selection"	"RIGHT"	"RIGHT"	256.873199999973	1350.0000027	n/a	n/a	n/a	n/a	n/a	n/a	n/a	"2020-02-05 11:11:55.793625"	"2020-02-05 11:11:56.257987"	16	2.92663148333333
"S200205"	"Response_Selection"	"LEFT"	"LEFT"	307.411300000012	700.0000014	n/a	n/a	n/a	n/a	n/a	n/a	n/a	"2020-02-05 11:11:56.967669"	"2020-02-05 11:11:57.483088"	17	2.92663148333333
"S200205"	"Response_Selection"	"RIGHT"	"RIGHT"	246.216900000036	966.6666686	n/a	n/a	n/a	n/a	n/a	n/a	n/a	"2020-02-05 11:11:58.460411"	"2020-02-05 11:11:58.915415"	18	2.92663148333333
"S200205"	"Response_Selection"	"RIGHT"	"RIGHT"	332.801300000028	650.0000013	n/a	n/a	n/a	n/a	n/a	n/a	n/a	"2020-02-05 11:11:59.573978"	"2020-02-05 11:12:00.113814"	19	2.92663148333333
"S200205"	"Response_Selection"	"RIGHT"	"RIGHT"	351.880400000027	600.0000012	n/a	n/a	n/a	n/a	n/a	n/a	n/a	"2020-02-05 11:12:00.723168"	"2020-02-05 11:12:01.282879"	20	2.92663148333333
"S200205"	"Response_Selection"	"LEFT"	"LEFT"	323.303400000043	500.000001	n/a	n/a	n/a	n/a	n/a	n/a	n/a	"2020-02-05 11:12:01.791105"	"2020-02-05 11:12:02.321693"	21	2.92663148333333
"S200205"	"Response_Selection"	"LEFT"	"LEFT"	391.213100000016	1200.0000024	n/a	n/a	n/a	n/a	n/a	n/a	n/a	"2020-02-05 11:12:03.531682"	"2020-02-05 11:12:04.129712"	22	2.92663148333333
"S200205"	"Response_Selection"	"RIGHT"	"RIGHT"	282.972199999961	933.3333352	n/a	n/a	n/a	n/a	n/a	n/a	n/a	"2020-02-05 11:12:05.071256"	"2020-02-05 11:12:05.562409"	23	2.92663148333333
"S200205"	"Response_Selection"	"LEFT"	"LEFT"	286.346600000002	1216.6666691	n/a	n/a	n/a	n/a	n/a	n/a	n/a	"2020-02-05 11:12:06.788091"	"2020-02-05 11:12:07.282049"	24	2.92663148333333
"S200205"	"Response_Selection"	"RIGHT"	"RIGHT"	242.782700000021	1116.6666689	n/a	n/a	n/a	n/a	n/a	n/a	n/a	"2020-02-05 11:12:08.408062"	"2020-02-05 11:12:08.859428"	25	2.92663148333333
"S200205"	"Response_Selection"	"LEFT"	"LEFT"	282.921200000033	1466.6666696	n/a	n/a	n/a	n/a	n/a	n/a	n/a	"2020-02-05 11:12:10.335490"	"2020-02-05 11:12:10.827200"	26	2.92663148333333
"S200205"	"Response_Selection"	"RIGHT"	"RIGHT"	221.3481	1400.0000028	n/a	n/a	n/a	n/a	n/a	n/a	n/a	"2020-02-05 11:12:12.237336"	"2020-02-05 11:12:12.669494"	27	2.92663148333333
"S200205"	"Response_Selection"	"LEFT"	"LEFT"	308.584300000007	800.0000016	n/a	n/a	n/a	n/a	n/a	n/a	n/a	"2020-02-05 11:12:13.478281"	"2020-02-05 11:12:13.994453"	28	2.92663148333333
"S200205"	"Response_Selection"	"LEFT"	"LEFT"	415.236499999992	550.0000011	n/a	n/a	n/a	n/a	n/a	n/a	n/a	"2020-02-05 11:12:14.555502"	"2020-02-05 11:12:15.178953"	29	2.92663148333333
"S200205"	"Response_Selection"	"RIGHT"	"RIGHT"	299.057300000015	1066.6666688	n/a	n/a	n/a	n/a	n/a	n/a	n/a	"2020-02-05 11:12:16.255700"	"2020-02-05 11:12:16.762878"	30	2.92663148333333
"S200205"	"Response_Selection"	"RIGHT"	"RIGHT"	333.142499999951	833.333335	n/a	n/a	n/a	n/a	n/a	n/a	n/a	"2020-02-05 11:12:17.605920"	"2020-02-05 11:12:18.147226"	31	2.92663148333333
"S200205"	"Response_Selection"	"LEFT"	"LEFT"	278.364099999976	1416.6666695	n/a	n/a	n/a	n/a	n/a	n/a	n/a	"2020-02-05 11:12:19.571892"	"2020-02-05 11:12:20.058798"	32	2.92663148333333
"S200205"	"Response_Selection"	"RIGHT"	"RIGHT"	290.253099999973	500.000001	n/a	n/a	n/a	n/a	n/a	n/a	n/a	"2020-02-05 11:12:20.568457"	"2020-02-05 11:12:21.066692"	33	2.92663148333333
"S200205"	"Response_Selection"	"LEFT"	"LEFT"	233.325000000036	750.0000015	n/a	n/a	n/a	n/a	n/a	n/a	n/a	"2020-02-05 11:12:21.825614"	"2020-02-05 11:12:22.266837"	34	2.92663148333333
"S200205"	"Response_Selection"	"LEFT"	"LEFT"	374.0497	1400.0000028	n/a	n/a	n/a	n/a	n/a	n/a	n/a	"2020-02-05 11:12:23.676418"	"2020-02-05 11:12:24.257765"	35	2.92663148333333
"S200205"	"Response_Selection"	"LEFT"	"LEFT"	297.604700000022	1166.666669	n/a	n/a	n/a	n/a	n/a	n/a	n/a	"2020-02-05 11:12:25.432869"	"2020-02-05 11:12:25.939232"	36	2.92663148333333
"S200205"	"Response_Selection"	"RIGHT"	"RIGHT"	301.595099999986	633.3333346	n/a	n/a	n/a	n/a	n/a	n/a	n/a	"2020-02-05 11:12:26.581304"	"2020-02-05 11:12:27.089957"	37	2.92663148333333
"S200205"	"Response_Selection"	"RIGHT"	"RIGHT"	315.845199999956	683.3333347	n/a	n/a	n/a	n/a	n/a	n/a	n/a	"2020-02-05 11:12:27.783167"	"2020-02-05 11:12:28.308344"	38	2.92663148333333
"S200205"	"Response_Selection"	"RIGHT"	"RIGHT"	484.240400000033	1016.6666687	n/a	n/a	n/a	n/a	n/a	n/a	n/a	"2020-02-05 11:12:29.334225"	"2020-02-05 11:12:30.026445"	39	2.92663148333333
"S200205"	"Response_Selection"	"LEFT"	"LEFT"	337.88039999996	533.3333344	n/a	n/a	n/a	n/a	n/a	n/a	n/a	"2020-02-05 11:12:30.569101"	"2020-02-05 11:12:31.114703"	40	2.92663148333333
"S200205"	"Response_Selection"	"LEFT"	"LEFT"	300.578200000018	1250.0000025	n/a	n/a	n/a	n/a	n/a	n/a	n/a	"2020-02-05 11:12:32.373825"	"2020-02-05 11:12:32.882212"	41	2.92663148333333
"S200205"	"Response_Selection"	"RIGHT"	"RIGHT"	268.911500000002	1216.6666691	n/a	n/a	n/a	n/a	n/a	n/a	n/a	"2020-02-05 11:12:34.110002"	"2020-02-05 11:12:34.587176"	42	2.92663148333333
"S200205"	"Response_Selection"	"RIGHT"	"RIGHT"	380.546199999969	1033.3333354	n/a	n/a	n/a	n/a	n/a	n/a	n/a	"2020-02-05 11:12:35.630410"	"2020-02-05 11:12:36.219067"	43	2.92663148333333
"S200205"	"Response_Selection"	"RIGHT"	"RIGHT"	375.903699999981	1166.666669	n/a	n/a	n/a	n/a	n/a	n/a	n/a	"2020-02-05 11:12:37.394764"	"2020-02-05 11:12:37.979790"	44	2.92663148333333
"S200205"	"Response_Selection"	"RIGHT"	"RIGHT"	313.070299999993	1500.000003	n/a	n/a	n/a	n/a	n/a	n/a	n/a	"2020-02-05 11:12:39.489977"	"2020-02-05 11:12:40.010687"	45	2.92663148333333
"S200205"	"Response_Selection"	"RIGHT"	"RIGHT"	298.605799999962	1316.6666693	n/a	n/a	n/a	n/a	n/a	n/a	n/a	"2020-02-05 11:12:41.336538"	"2020-02-05 11:12:41.842768"	46	2.92663148333333
"S200205"	"Response_Selection"	"RIGHT"	"RIGHT"	358.342499999992	583.3333345	n/a	n/a	n/a	n/a	n/a	n/a	n/a	"2020-02-05 11:12:42.436191"	"2020-02-05 11:12:43.004189"	47	2.92663148333333
"S200205"	"Response_Selection"	"LEFT"	"LEFT"	282.461000000012	1016.6666687	n/a	n/a	n/a	n/a	n/a	n/a	n/a	"2020-02-05 11:12:44.032593"	"2020-02-05 11:12:44.522685"	48	2.92663148333333
"S200205"	"Response_Selection"	"RIGHT"	"RIGHT"	410.393199999987	700.0000014	n/a	n/a	n/a	n/a	n/a	n/a	n/a	"2020-02-05 11:12:45.232810"	"2020-02-05 11:12:45.851156"	49	2.92663148333333
"S200205"	"Response_Selection"	"LEFT"	"LEFT"	288.288399999999	933.3333352	n/a	n/a	n/a	n/a	n/a	n/a	n/a	"2020-02-05 11:12:46.794254"	"2020-02-05 11:12:47.292036"	50	2.92663148333333
"S200205"	"Response_Selection"	"RIGHT"	"RIGHT"	280.491600000005	1133.3333356	n/a	n/a	n/a	n/a	n/a	n/a	n/a	"2020-02-05 11:12:48.434040"	"2020-02-05 11:12:48.923367"	51	2.92663148333333
"S200205"	"Response_Selection"	"LEFT"	"LEFT"	251.466899999969	1033.3333354	n/a	n/a	n/a	n/a	n/a	n/a	n/a	"2020-02-05 11:12:49.967146"	"2020-02-05 11:12:50.427191"	52	2.92663148333333
"S200205"	"Response_Selection"	"LEFT"	"LEFT"	327.26260000004	966.6666686	n/a	n/a	n/a	n/a	n/a	n/a	n/a	"2020-02-05 11:12:51.403743"	"2020-02-05 11:12:51.939626"	53	2.92663148333333
"S200205"	"Response_Selection"	"RIGHT"	"RIGHT"	281.915900000001	866.6666684	n/a	n/a	n/a	n/a	n/a	n/a	n/a	"2020-02-05 11:12:52.817122"	"2020-02-05 11:12:53.306820"	54	2.92663148333333
"S200205"	"Response_Selection"	"RIGHT"	"RIGHT"	369.395899999972	533.3333344	n/a	n/a	n/a	n/a	n/a	n/a	n/a	"2020-02-05 11:12:53.849562"	"2020-02-05 11:12:54.426020"	55	2.92663148333333
"S200205"	"Response_Selection"	"RIGHT"	"RIGHT"	384.145100000012	800.0000016	n/a	n/a	n/a	n/a	n/a	n/a	n/a	"2020-02-05 11:12:55.234455"	"2020-02-05 11:12:55.827216"	56	2.92663148333333
"S200205"	"Response_Selection"	"RIGHT"	"RIGHT"	316.000099999997	1250.0000025	n/a	n/a	n/a	n/a	n/a	n/a	n/a	"2020-02-05 11:12:57.086897"	"2020-02-05 11:12:57.611792"	57	2.92663148333333
"S200205"	"Response_Selection"	"RIGHT"	"RIGHT"	294.073900000001	983.3333353	n/a	n/a	n/a	n/a	n/a	n/a	n/a	"2020-02-05 11:12:58.604988"	"2020-02-05 11:12:59.106999"	58	2.92663148333333
"S200205"	"Response_Selection"	"LEFT"	"LEFT"	408.980700000029	733.3333348	n/a	n/a	n/a	n/a	n/a	n/a	n/a	"2020-02-05 11:12:59.850052"	"2020-02-05 11:13:00.465950"	59	2.92663148333333
"S200205"	"Response_Selection"	"LEFT"	"LEFT"	326.164399999982	833.333335	n/a	n/a	n/a	n/a	n/a	n/a	n/a	"2020-02-05 11:13:01.309066"	"2020-02-05 11:13:01.842949"	60	2.92663148333333
"S200205"	"Response_Selection"	"LEFT"	"LEFT"	428.385300000002	1450.0000029	n/a	n/a	n/a	n/a	n/a	n/a	n/a	"2020-02-05 11:13:03.302662"	"2020-02-05 11:13:03.940321"	61	2.92663148333333
"S200205"	"Response_Selection"	"RIGHT"	"RIGHT"	291.717800000015	1450.0000029	n/a	n/a	n/a	n/a	n/a	n/a	n/a	"2020-02-05 11:13:05.399137"	"2020-02-05 11:13:05.898797"	62	2.92663148333333
"S200205"	"Response_Selection"	"RIGHT"	"RIGHT"	324.722800000018	1266.6666692	n/a	n/a	n/a	n/a	n/a	n/a	n/a	"2020-02-05 11:13:07.174054"	"2020-02-05 11:13:07.707651"	63	2.92663148333333
"S200205"	"Response_Selection"	"LEFT"	"LEFT"	297.165999999947	916.6666685	n/a	n/a	n/a	n/a	n/a	n/a	n/a	"2020-02-05 11:13:08.633236"	"2020-02-05 11:13:09.139412"	64	2.92663148333333
"S200205"	"Response_Selection"	"LEFT"	"LEFT"	330.050700000015	1116.6666689	n/a	n/a	n/a	n/a	n/a	n/a	n/a	"2020-02-05 11:13:10.264460"	"2020-02-05 11:13:10.802200"	65	2.92663148333333
"S200205"	"Response_Selection"	"LEFT"	"LEFT"	337.865700000009	650.0000013	n/a	n/a	n/a	n/a	n/a	n/a	n/a	"2020-02-05 11:13:11.464595"	"2020-02-05 11:13:12.011754"	66	2.92663148333333
"S200205"	"Response_Selection"	"RIGHT"	"RIGHT"	264.497000000006	1083.3333355	n/a	n/a	n/a	n/a	n/a	n/a	n/a	"2020-02-05 11:13:13.106146"	"2020-02-05 11:13:13.578918"	67	2.92663148333333
"S200205"	"Response_Selection"	"RIGHT"	"RIGHT"	312.063299999977	750.0000015	n/a	n/a	n/a	n/a	n/a	n/a	n/a	"2020-02-05 11:13:14.339322"	"2020-02-05 11:13:14.857935"	68	2.92663148333333
"S200205"	"Response_Selection"	"LEFT"	"LEFT"	304.945199999963	983.3333353	n/a	n/a	n/a	n/a	n/a	n/a	n/a	"2020-02-05 11:13:15.850083"	"2020-02-05 11:13:16.363873"	69	2.92663148333333
"S200205"	"Response_Selection"	"LEFT"	"LEFT"	433.686500000022	1500.000003	n/a	n/a	n/a	n/a	n/a	n/a	n/a	"2020-02-05 11:13:17.873200"	"2020-02-05 11:13:18.513836"	70	2.92663148333333
"S200205"	"Response_Selection"	"RIGHT"	"RIGHT"	347.090400000013	733.3333348	n/a	n/a	n/a	n/a	n/a	n/a	n/a	"2020-02-05 11:13:19.255227"	"2020-02-05 11:13:19.811394"	71	2.92663148333333
"S200205"	"Response_Selection"	"LEFT"	"LEFT"	260.427100000015	633.3333346	n/a	n/a	n/a	n/a	n/a	n/a	n/a	"2020-02-05 11:13:20.454777"	"2020-02-05 11:13:20.923129"	72	2.92663148333333
"S200205"	"Response_Selection"	"LEFT"	"LEFT"	307.876600000043	683.3333347	n/a	n/a	n/a	n/a	n/a	n/a	n/a	"2020-02-05 11:13:21.614911"	"2020-02-05 11:13:22.131579"	73	2.92663148333333
"S200205"	"Response_Selection"	"LEFT"	"LEFT"	327.466700000002	1350.0000027	n/a	n/a	n/a	n/a	n/a	n/a	n/a	"2020-02-05 11:13:23.491603"	"2020-02-05 11:13:24.027565"	74	2.92663148333333
"S200205"	"Response_Selection"	"LEFT"	"LEFT"	321.915600000011	1316.6666693	n/a	n/a	n/a	n/a	n/a	n/a	n/a	"2020-02-05 11:13:25.352726"	"2020-02-05 11:13:25.884489"	75	2.92663148333333
"S200205"	"Response_Selection"	"LEFT"	"LEFT"	290.050400000041	1083.3333355	n/a	n/a	n/a	n/a	n/a	n/a	n/a	"2020-02-05 11:13:26.976842"	"2020-02-05 11:13:27.476456"	76	2.92663148333333
"S200205"	"Response_Selection"	"LEFT"	"LEFT"	347.0279	1066.6666688	n/a	n/a	n/a	n/a	n/a	n/a	n/a	"2020-02-05 11:13:28.551376"	"2020-02-05 11:13:29.108892"	77	2.92663148333333
"S200205"	"Response_Selection"	"RIGHT"	"RIGHT"	324.691900000005	1416.6666695	n/a	n/a	n/a	n/a	n/a	n/a	n/a	"2020-02-05 11:13:30.534368"	"2020-02-05 11:13:31.067226"	78	2.92663148333333
"S200205"	"Response_Selection"	"LEFT"	"LEFT"	339.42159999998	1266.6666692	n/a	n/a	n/a	n/a	n/a	n/a	n/a	"2020-02-05 11:13:32.343108"	"2020-02-05 11:13:32.891784"	79	2.92663148333333
"S200205"	"Response_Selection"	"LEFT"	"LEFT"	334.976800000049	1133.3333356	n/a	n/a	n/a	n/a	n/a	n/a	n/a	"2020-02-05 11:13:34.035790"	"2020-02-05 11:13:34.578978"	80	2.92663148333333
