"Participant"	"Task"	"Stimulus_Side"	"Response"	"RT"	"ITI"	"Previous_Response"	"Previous_RT"	"Stop_Signal"	"Stop_Signal_RT"	"Conflict"	"Cue_Response"	"Cue_Response_RT"	"Trial_Onset"	"Trial_End"	"Trial_Order"	"Duration"
"S201223"	"Conflict_Resolution"	"LEFT"	"Time_Max_Exceeded"	1500.06209999992	816.6666683	n/a	n/a	n/a	n/a	"True"	n/a	n/a	"2020-12-23 13:52:21.107308"	"2020-12-23 13:52:22.607375"	1	6.17327171666667
"S201223"	"Conflict_Resolution"	"LEFT"	"LEFT"	465.650699999969	866.6666684	n/a	n/a	n/a	n/a	"False"	n/a	n/a	"2020-12-23 13:52:23.492110"	"2020-12-23 13:52:24.166692"	2	6.17327171666667
"S201223"	"Conflict_Resolution"	"RIGHT"	"RIGHT"	405.424299999936	1383.3333361	n/a	n/a	n/a	n/a	"False"	n/a	n/a	"2020-12-23 13:52:25.569282"	"2020-12-23 13:52:26.182992"	3	6.17327171666667
"S201223"	"Conflict_Resolution"	"RIGHT"	"Time_Max_Exceeded"	1500.06959999996	1050.0000021	n/a	n/a	n/a	n/a	"True"	n/a	n/a	"2020-12-23 13:52:27.252603"	"2020-12-23 13:52:28.752480"	4	6.17327171666667
"S201223"	"Conflict_Resolution"	"LEFT"	"RIGHT"	556.917800000065	533.3333344	n/a	n/a	n/a	n/a	"True"	n/a	n/a	"2020-12-23 13:52:29.305004"	"2020-12-23 13:52:30.070535"	5	6.17327171666667
"S201223"	"Conflict_Resolution"	"RIGHT"	"LEFT"	473.257200000035	1083.3333355	n/a	n/a	n/a	n/a	"True"	n/a	n/a	"2020-12-23 13:52:31.173526"	"2020-12-23 13:52:31.854082"	6	6.17327171666667
"S201223"	"Conflict_Resolution"	"LEFT"	"LEFT"	422.300500000006	1150.0000023	n/a	n/a	n/a	n/a	"False"	n/a	n/a	"2020-12-23 13:52:33.023526"	"2020-12-23 13:52:33.654040"	7	6.17327171666667
"S201223"	"Conflict_Resolution"	"LEFT"	"LEFT"	566.088599999944	950.0000019	n/a	n/a	n/a	n/a	"False"	n/a	n/a	"2020-12-23 13:52:34.624441"	"2020-12-23 13:52:35.398947"	8	6.17327171666667
"S201223"	"Conflict_Resolution"	"LEFT"	"RIGHT"	1040.97079999997	666.666668	n/a	n/a	n/a	n/a	"True"	n/a	n/a	"2020-12-23 13:52:36.085735"	"2020-12-23 13:52:37.334877"	9	6.17327171666667
"S201223"	"Conflict_Resolution"	"LEFT"	"LEFT"	1141.4724	1366.6666694	n/a	n/a	n/a	n/a	"True"	n/a	n/a	"2020-12-23 13:52:38.721046"	"2020-12-23 13:52:40.069354"	10	6.17327171666667
"S201223"	"Conflict_Resolution"	"RIGHT"	"RIGHT"	753.790600000002	500.000001	n/a	n/a	n/a	n/a	"True"	n/a	n/a	"2020-12-23 13:52:40.588006"	"2020-12-23 13:52:41.550712"	11	6.17327171666667
"S201223"	"Conflict_Resolution"	"RIGHT"	"RIGHT"	635.313900000028	1433.3333362	n/a	n/a	n/a	n/a	"True"	n/a	n/a	"2020-12-23 13:52:43.002656"	"2020-12-23 13:52:43.847608"	12	6.17327171666667
"S201223"	"Conflict_Resolution"	"LEFT"	"LEFT"	584.427000000005	1466.6666696	n/a	n/a	n/a	n/a	"True"	n/a	n/a	"2020-12-23 13:52:45.334116"	"2020-12-23 13:52:46.126576"	13	6.17327171666667
"S201223"	"Conflict_Resolution"	"RIGHT"	"RIGHT"	391.257799999948	933.3333352	n/a	n/a	n/a	n/a	"False"	n/a	n/a	"2020-12-23 13:52:47.079032"	"2020-12-23 13:52:47.678403"	14	6.17327171666667
"S201223"	"Conflict_Resolution"	"LEFT"	"LEFT"	479.15189999992	533.3333344	n/a	n/a	n/a	n/a	"False"	n/a	n/a	"2020-12-23 13:52:48.231577"	"2020-12-23 13:52:48.917978"	15	6.17327171666667
"S201223"	"Conflict_Resolution"	"LEFT"	"LEFT"	598.932800000057	733.3333348	n/a	n/a	n/a	n/a	"True"	n/a	n/a	"2020-12-23 13:52:49.671516"	"2020-12-23 13:52:50.478998"	16	6.17327171666667
"S201223"	"Conflict_Resolution"	"RIGHT"	"RIGHT"	488.997400000017	883.3333351	n/a	n/a	n/a	n/a	"False"	n/a	n/a	"2020-12-23 13:52:51.381360"	"2020-12-23 13:52:52.078978"	17	6.17327171666667
"S201223"	"Conflict_Resolution"	"LEFT"	"LEFT"	397.868199999948	783.3333349	n/a	n/a	n/a	n/a	"False"	n/a	n/a	"2020-12-23 13:52:52.879975"	"2020-12-23 13:52:53.486468"	18	6.17327171666667
"S201223"	"Conflict_Resolution"	"RIGHT"	"RIGHT"	548.024400000031	1416.6666695	n/a	n/a	n/a	n/a	"True"	n/a	n/a	"2020-12-23 13:52:54.921807"	"2020-12-23 13:52:55.677407"	19	6.17327171666667
"S201223"	"Conflict_Resolution"	"RIGHT"	"RIGHT"	454.461200000082	1416.6666695	n/a	n/a	n/a	n/a	"False"	n/a	n/a	"2020-12-23 13:52:57.111952"	"2020-12-23 13:52:57.773855"	20	6.17327171666667
"S201223"	"Conflict_Resolution"	"RIGHT"	"RIGHT"	605.355300000042	833.333335	n/a	n/a	n/a	n/a	"True"	n/a	n/a	"2020-12-23 13:52:58.625104"	"2020-12-23 13:52:59.439919"	21	6.17327171666667
"S201223"	"Conflict_Resolution"	"LEFT"	"LEFT"	336.341199999993	1500.000003	n/a	n/a	n/a	n/a	"False"	n/a	n/a	"2020-12-23 13:53:00.958208"	"2020-12-23 13:53:01.502781"	22	6.17327171666667
"S201223"	"Conflict_Resolution"	"RIGHT"	"RIGHT"	509.855499999958	783.3333349	n/a	n/a	n/a	n/a	"True"	n/a	n/a	"2020-12-23 13:53:02.304445"	"2020-12-23 13:53:03.022628"	23	6.17327171666667
"S201223"	"Conflict_Resolution"	"LEFT"	"LEFT"	466.925899999978	1416.6666695	n/a	n/a	n/a	n/a	"True"	n/a	n/a	"2020-12-23 13:53:04.459076"	"2020-12-23 13:53:05.134672"	24	6.17327171666667
"S201223"	"Conflict_Resolution"	"RIGHT"	"RIGHT"	385.818200000017	1100.0000022	n/a	n/a	n/a	n/a	"False"	n/a	n/a	"2020-12-23 13:53:06.251997"	"2020-12-23 13:53:06.845981"	25	6.17327171666667
"S201223"	"Conflict_Resolution"	"RIGHT"	"RIGHT"	387.831399999982	833.333335	n/a	n/a	n/a	n/a	"False"	n/a	n/a	"2020-12-23 13:53:07.698047"	"2020-12-23 13:53:08.294698"	26	6.17327171666667
"S201223"	"Conflict_Resolution"	"RIGHT"	"RIGHT"	607.256800000073	933.3333352	n/a	n/a	n/a	n/a	"True"	n/a	n/a	"2020-12-23 13:53:09.247271"	"2020-12-23 13:53:10.062659"	27	6.17327171666667
"S201223"	"Conflict_Resolution"	"LEFT"	"LEFT"	354.998499999965	1066.6666688	n/a	n/a	n/a	n/a	"False"	n/a	n/a	"2020-12-23 13:53:11.146857"	"2020-12-23 13:53:11.711923"	28	6.17327171666667
"S201223"	"Conflict_Resolution"	"LEFT"	"LEFT"	612.292700000012	1000.000002	n/a	n/a	n/a	n/a	"True"	n/a	n/a	"2020-12-23 13:53:12.729847"	"2020-12-23 13:53:13.550882"	29	6.17327171666667
"S201223"	"Conflict_Resolution"	"LEFT"	"LEFT"	495.723399999974	716.6666681	n/a	n/a	n/a	n/a	"False"	n/a	n/a	"2020-12-23 13:53:14.286884"	"2020-12-23 13:53:14.989367"	30	6.17327171666667
"S201223"	"Conflict_Resolution"	"LEFT"	"LEFT"	382.743199999936	1400.0000028	n/a	n/a	n/a	n/a	"False"	n/a	n/a	"2020-12-23 13:53:16.407518"	"2020-12-23 13:53:16.998892"	31	6.17327171666667
"S201223"	"Conflict_Resolution"	"LEFT"	"LEFT"	655.635500000017	1500.000003	n/a	n/a	n/a	n/a	"True"	n/a	n/a	"2020-12-23 13:53:18.518188"	"2020-12-23 13:53:19.382315"	32	6.17327171666667
"S201223"	"Conflict_Resolution"	"RIGHT"	"RIGHT"	510.832700000037	1150.0000023	n/a	n/a	n/a	n/a	"True"	n/a	n/a	"2020-12-23 13:53:20.551386"	"2020-12-23 13:53:21.269465"	33	6.17327171666667
"S201223"	"Conflict_Resolution"	"RIGHT"	"RIGHT"	450.178199999982	683.3333347	n/a	n/a	n/a	n/a	"False"	n/a	n/a	"2020-12-23 13:53:21.972425"	"2020-12-23 13:53:22.630661"	34	6.17327171666667
"S201223"	"Conflict_Resolution"	"RIGHT"	"RIGHT"	564.880899999935	1183.3333357	n/a	n/a	n/a	n/a	"True"	n/a	n/a	"2020-12-23 13:53:23.833548"	"2020-12-23 13:53:24.606091"	35	6.17327171666667
"S201223"	"Conflict_Resolution"	"LEFT"	"LEFT"	445.527500000026	583.3333345	n/a	n/a	n/a	n/a	"False"	n/a	n/a	"2020-12-23 13:53:25.209026"	"2020-12-23 13:53:25.861775"	36	6.17327171666667
"S201223"	"Conflict_Resolution"	"LEFT"	"LEFT"	373.435399999948	1216.6666691	n/a	n/a	n/a	n/a	"False"	n/a	n/a	"2020-12-23 13:53:27.097063"	"2020-12-23 13:53:27.677461"	37	6.17327171666667
"S201223"	"Conflict_Resolution"	"LEFT"	"LEFT"	551.095099999998	583.3333345	n/a	n/a	n/a	n/a	"True"	n/a	n/a	"2020-12-23 13:53:28.279058"	"2020-12-23 13:53:29.037084"	38	6.17327171666667
"S201223"	"Conflict_Resolution"	"RIGHT"	"RIGHT"	540.831099999991	1033.3333354	n/a	n/a	n/a	n/a	"True"	n/a	n/a	"2020-12-23 13:53:30.089005"	"2020-12-23 13:53:30.838746"	39	6.17327171666667
"S201223"	"Conflict_Resolution"	"RIGHT"	"RIGHT"	524.362300000007	1000.000002	n/a	n/a	n/a	n/a	"True"	n/a	n/a	"2020-12-23 13:53:31.857503"	"2020-12-23 13:53:32.589524"	40	6.17327171666667
"S201223"	"Conflict_Resolution"	"LEFT"	"LEFT"	743.895500000008	1166.666669	n/a	n/a	n/a	n/a	"True"	n/a	n/a	"2020-12-23 13:53:33.774775"	"2020-12-23 13:53:34.726772"	41	6.17327171666667
"S201223"	"Conflict_Resolution"	"LEFT"	"LEFT"	531.505899999956	1216.6666691	n/a	n/a	n/a	n/a	"True"	n/a	n/a	"2020-12-23 13:53:35.963184"	"2020-12-23 13:53:36.702172"	42	6.17327171666667
"S201223"	"Conflict_Resolution"	"LEFT"	"LEFT"	407.611100000054	766.6666682	n/a	n/a	n/a	n/a	"False"	n/a	n/a	"2020-12-23 13:53:37.486923"	"2020-12-23 13:53:38.102570"	43	6.17327171666667
"S201223"	"Conflict_Resolution"	"LEFT"	"LEFT"	355.395199999975	1266.6666692	n/a	n/a	n/a	n/a	"False"	n/a	n/a	"2020-12-23 13:53:39.386707"	"2020-12-23 13:53:39.950268"	44	6.17327171666667
"S201223"	"Conflict_Resolution"	"RIGHT"	"RIGHT"	556.473299999993	633.3333346	n/a	n/a	n/a	n/a	"True"	n/a	n/a	"2020-12-23 13:53:40.601966"	"2020-12-23 13:53:41.366947"	45	6.17327171666667
"S201223"	"Conflict_Resolution"	"LEFT"	"LEFT"	772.54599999992	566.6666678	n/a	n/a	n/a	n/a	"True"	n/a	n/a	"2020-12-23 13:53:41.953437"	"2020-12-23 13:53:42.934876"	46	6.17327171666667
"S201223"	"Conflict_Resolution"	"LEFT"	"LEFT"	417.393999999945	850.0000017	n/a	n/a	n/a	n/a	"False"	n/a	n/a	"2020-12-23 13:53:43.805207"	"2020-12-23 13:53:44.430154"	47	6.17327171666667
"S201223"	"Conflict_Resolution"	"RIGHT"	"RIGHT"	533.421299999986	1383.3333361	n/a	n/a	n/a	n/a	"True"	n/a	n/a	"2020-12-23 13:53:45.833237"	"2020-12-23 13:53:46.573785"	48	6.17327171666667
"S201223"	"Conflict_Resolution"	"RIGHT"	"RIGHT"	566.587300000037	983.3333353	n/a	n/a	n/a	n/a	"False"	n/a	n/a	"2020-12-23 13:53:47.576358"	"2020-12-23 13:53:48.350857"	49	6.17327171666667
"S201223"	"Conflict_Resolution"	"RIGHT"	"RIGHT"	527.09870000001	733.3333348	n/a	n/a	n/a	n/a	"True"	n/a	n/a	"2020-12-23 13:53:49.102908"	"2020-12-23 13:53:49.838478"	50	6.17327171666667
"S201223"	"Conflict_Resolution"	"RIGHT"	"RIGHT"	490.488699999901	1483.3333363	n/a	n/a	n/a	n/a	"True"	n/a	n/a	"2020-12-23 13:53:51.339675"	"2020-12-23 13:53:52.038817"	51	6.17327171666667
"S201223"	"Conflict_Resolution"	"RIGHT"	"RIGHT"	486.048900000014	583.3333345	n/a	n/a	n/a	n/a	"True"	n/a	n/a	"2020-12-23 13:53:52.640434"	"2020-12-23 13:53:53.333204"	52	6.17327171666667
"S201223"	"Conflict_Resolution"	"RIGHT"	"RIGHT"	506.499700000063	883.3333351	n/a	n/a	n/a	n/a	"True"	n/a	n/a	"2020-12-23 13:53:54.235299"	"2020-12-23 13:53:54.949426"	53	6.17327171666667
"S201223"	"Conflict_Resolution"	"RIGHT"	"RIGHT"	446.389000000067	1183.3333357	n/a	n/a	n/a	n/a	"False"	n/a	n/a	"2020-12-23 13:53:56.152096"	"2020-12-23 13:53:56.805525"	54	6.17327171666667
"S201223"	"Conflict_Resolution"	"LEFT"	"LEFT"	574.546199999986	966.6666686	n/a	n/a	n/a	n/a	"True"	n/a	n/a	"2020-12-23 13:53:57.791647"	"2020-12-23 13:53:58.574475"	55	6.17327171666667
"S201223"	"Conflict_Resolution"	"RIGHT"	"RIGHT"	463.314399999945	1133.3333356	n/a	n/a	n/a	n/a	"False"	n/a	n/a	"2020-12-23 13:53:59.726725"	"2020-12-23 13:54:00.397208"	56	6.17327171666667
"S201223"	"Conflict_Resolution"	"RIGHT"	"RIGHT"	419.276400000058	900.0000018	n/a	n/a	n/a	n/a	"False"	n/a	n/a	"2020-12-23 13:54:01.314871"	"2020-12-23 13:54:01.941194"	57	6.17327171666667
"S201223"	"Conflict_Resolution"	"RIGHT"	"RIGHT"	483.911300000045	850.0000017	n/a	n/a	n/a	n/a	"True"	n/a	n/a	"2020-12-23 13:54:02.810193"	"2020-12-23 13:54:03.501419"	58	6.17327171666667
"S201223"	"Conflict_Resolution"	"LEFT"	"LEFT"	492.479200000048	633.3333346	n/a	n/a	n/a	n/a	"False"	n/a	n/a	"2020-12-23 13:54:04.153428"	"2020-12-23 13:54:04.854960"	59	6.17327171666667
"S201223"	"Conflict_Resolution"	"LEFT"	"LEFT"	497.603400000003	1066.6666688	n/a	n/a	n/a	n/a	"True"	n/a	n/a	"2020-12-23 13:54:05.940610"	"2020-12-23 13:54:06.646340"	60	6.17327171666667
"S201223"	"Conflict_Resolution"	"RIGHT"	"RIGHT"	533.191699999975	983.3333353	n/a	n/a	n/a	n/a	"True"	n/a	n/a	"2020-12-23 13:54:07.649254"	"2020-12-23 13:54:08.390752"	61	6.17327171666667
"S201223"	"Conflict_Resolution"	"LEFT"	"LEFT"	487.586899999997	1316.6666693	n/a	n/a	n/a	n/a	"True"	n/a	n/a	"2020-12-23 13:54:09.727108"	"2020-12-23 13:54:10.422927"	62	6.17327171666667
"S201223"	"Conflict_Resolution"	"RIGHT"	"RIGHT"	543.554300000096	700.0000014	n/a	n/a	n/a	n/a	"True"	n/a	n/a	"2020-12-23 13:54:11.143559"	"2020-12-23 13:54:11.894068"	63	6.17327171666667
"S201223"	"Conflict_Resolution"	"RIGHT"	"RIGHT"	406.43410000007	750.0000015	n/a	n/a	n/a	n/a	"False"	n/a	n/a	"2020-12-23 13:54:12.663459"	"2020-12-23 13:54:13.279006"	64	6.17327171666667
"S201223"	"Conflict_Resolution"	"LEFT"	"LEFT"	480.213899999967	1050.0000021	n/a	n/a	n/a	n/a	"True"	n/a	n/a	"2020-12-23 13:54:14.350197"	"2020-12-23 13:54:15.037506"	65	6.17327171666667
"S201223"	"Conflict_Resolution"	"LEFT"	"LEFT"	520.765299999994	1300.0000026	n/a	n/a	n/a	n/a	"True"	n/a	n/a	"2020-12-23 13:54:16.357520"	"2020-12-23 13:54:17.085209"	66	6.17327171666667
"S201223"	"Conflict_Resolution"	"RIGHT"	"RIGHT"	512.624600000095	1333.333336	n/a	n/a	n/a	n/a	"True"	n/a	n/a	"2020-12-23 13:54:18.437349"	"2020-12-23 13:54:19.158088"	67	6.17327171666667
"S201223"	"Conflict_Resolution"	"RIGHT"	"RIGHT"	450.650900000028	650.0000013	n/a	n/a	n/a	n/a	"False"	n/a	n/a	"2020-12-23 13:54:19.827747"	"2020-12-23 13:54:20.485499"	68	6.17327171666667
"S201223"	"Conflict_Resolution"	"LEFT"	"LEFT"	845.079800000008	816.6666683	n/a	n/a	n/a	n/a	"False"	n/a	n/a	"2020-12-23 13:54:21.320823"	"2020-12-23 13:54:22.374747"	69	6.17327171666667
"S201223"	"Conflict_Resolution"	"LEFT"	"LEFT"	410.714900000016	1450.0000029	n/a	n/a	n/a	n/a	"False"	n/a	n/a	"2020-12-23 13:54:23.842896"	"2020-12-23 13:54:24.462445"	70	6.17327171666667
"S201223"	"Conflict_Resolution"	"RIGHT"	"RIGHT"	426.425399999971	850.0000017	n/a	n/a	n/a	n/a	"False"	n/a	n/a	"2020-12-23 13:54:25.332221"	"2020-12-23 13:54:25.965231"	71	6.17327171666667
"S201223"	"Conflict_Resolution"	"LEFT"	"LEFT"	512.816300000054	516.6666677	n/a	n/a	n/a	n/a	"False"	n/a	n/a	"2020-12-23 13:54:26.501799"	"2020-12-23 13:54:27.221682"	72	6.17327171666667
"S201223"	"Conflict_Resolution"	"LEFT"	"LEFT"	348.814000000061	1016.6666687	n/a	n/a	n/a	n/a	"False"	n/a	n/a	"2020-12-23 13:54:28.257261"	"2020-12-23 13:54:28.814590"	73	6.17327171666667
"S201223"	"Conflict_Resolution"	"RIGHT"	"RIGHT"	422.547699999996	550.0000011	n/a	n/a	n/a	n/a	"False"	n/a	n/a	"2020-12-23 13:54:29.384066"	"2020-12-23 13:54:30.014219"	74	6.17327171666667
"S201223"	"Conflict_Resolution"	"RIGHT"	"RIGHT"	457.491699999991	1083.3333355	n/a	n/a	n/a	n/a	"False"	n/a	n/a	"2020-12-23 13:54:31.116489"	"2020-12-23 13:54:31.782849"	75	6.17327171666667
"S201223"	"Conflict_Resolution"	"RIGHT"	"RIGHT"	576.143800000068	533.3333344	n/a	n/a	n/a	n/a	"True"	n/a	n/a	"2020-12-23 13:54:32.334416"	"2020-12-23 13:54:33.118164"	76	6.17327171666667
"S201223"	"Conflict_Resolution"	"LEFT"	"LEFT"	577.559300000075	1450.0000029	n/a	n/a	n/a	n/a	"True"	n/a	n/a	"2020-12-23 13:54:34.588625"	"2020-12-23 13:54:35.373463"	77	6.17327171666667
"S201223"	"Conflict_Resolution"	"LEFT"	"LEFT"	361.509900000101	1100.0000022	n/a	n/a	n/a	n/a	"False"	n/a	n/a	"2020-12-23 13:54:36.493020"	"2020-12-23 13:54:37.061536"	78	6.17327171666667
"S201223"	"Conflict_Resolution"	"LEFT"	"LEFT"	345.625200000086	900.0000018	n/a	n/a	n/a	n/a	"False"	n/a	n/a	"2020-12-23 13:54:37.980823"	"2020-12-23 13:54:38.533535"	79	6.17327171666667
"S201223"	"Conflict_Resolution"	"LEFT"	"LEFT"	431.741600000009	1150.0000023	n/a	n/a	n/a	n/a	"True"	n/a	n/a	"2020-12-23 13:54:39.702072"	"2020-12-23 13:54:40.341523"	80	6.17327171666667
"S201223"	"Conflict_Resolution"	"RIGHT"	"LEFT"	360.925899999984	750.0000015	n/a	n/a	n/a	n/a	"True"	n/a	n/a	"2020-12-23 13:54:41.109484"	"2020-12-23 13:54:41.677082"	81	6.17327171666667
"S201223"	"Conflict_Resolution"	"LEFT"	"LEFT"	704.939500000023	1100.0000022	n/a	n/a	n/a	n/a	"True"	n/a	n/a	"2020-12-23 13:54:42.797276"	"2020-12-23 13:54:43.709760"	82	6.17327171666667
"S201223"	"Conflict_Resolution"	"LEFT"	"LEFT"	716.746799999896	1016.6666687	n/a	n/a	n/a	n/a	"True"	n/a	n/a	"2020-12-23 13:54:44.745141"	"2020-12-23 13:54:45.670107"	83	6.17327171666667
"S201223"	"Conflict_Resolution"	"LEFT"	"LEFT"	434.758399999964	1250.0000025	n/a	n/a	n/a	n/a	"False"	n/a	n/a	"2020-12-23 13:54:46.939268"	"2020-12-23 13:54:47.582200"	84	6.17327171666667
"S201223"	"Conflict_Resolution"	"LEFT"	"LEFT"	516.61630000001	616.6666679	n/a	n/a	n/a	n/a	"False"	n/a	n/a	"2020-12-23 13:54:48.217500"	"2020-12-23 13:54:48.943555"	85	6.17327171666667
"S201223"	"Conflict_Resolution"	"LEFT"	"LEFT"	575.045000000046	916.6666685	n/a	n/a	n/a	n/a	"True"	n/a	n/a	"2020-12-23 13:54:49.879658"	"2020-12-23 13:54:50.662425"	86	6.17327171666667
"S201223"	"Conflict_Resolution"	"LEFT"	"LEFT"	657.328199999938	516.6666677	n/a	n/a	n/a	n/a	"True"	n/a	n/a	"2020-12-23 13:54:51.196330"	"2020-12-23 13:54:52.062769"	87	6.17327171666667
"S201223"	"Conflict_Resolution"	"RIGHT"	"RIGHT"	857.66000000001	1100.0000022	n/a	n/a	n/a	n/a	"True"	n/a	n/a	"2020-12-23 13:54:53.181012"	"2020-12-23 13:54:54.246637"	88	6.17327171666667
"S201223"	"Conflict_Resolution"	"RIGHT"	"RIGHT"	559.320299999968	500.000001	n/a	n/a	n/a	n/a	"False"	n/a	n/a	"2020-12-23 13:54:54.767256"	"2020-12-23 13:54:55.534415"	89	6.17327171666667
"S201223"	"Conflict_Resolution"	"RIGHT"	"RIGHT"	435.191600000053	1216.6666691	n/a	n/a	n/a	n/a	"False"	n/a	n/a	"2020-12-23 13:54:56.771326"	"2020-12-23 13:54:57.414384"	90	6.17327171666667
"S201223"	"Conflict_Resolution"	"LEFT"	"LEFT"	537.743699999965	683.3333347	n/a	n/a	n/a	n/a	"True"	n/a	n/a	"2020-12-23 13:54:58.116082"	"2020-12-23 13:54:58.862709"	91	6.17327171666667
"S201223"	"Conflict_Resolution"	"RIGHT"	"RIGHT"	809.129299999995	683.3333347	n/a	n/a	n/a	n/a	"True"	n/a	n/a	"2020-12-23 13:54:59.564920"	"2020-12-23 13:55:00.583414"	92	6.17327171666667
"S201223"	"Conflict_Resolution"	"RIGHT"	"RIGHT"	410.599000000047	633.3333346	n/a	n/a	n/a	n/a	"False"	n/a	n/a	"2020-12-23 13:55:01.235259"	"2020-12-23 13:55:01.853121"	93	6.17327171666667
"S201223"	"Conflict_Resolution"	"RIGHT"	"RIGHT"	473.719899999992	950.0000019	n/a	n/a	n/a	n/a	"False"	n/a	n/a	"2020-12-23 13:55:02.820868"	"2020-12-23 13:55:03.503031"	94	6.17327171666667
"S201223"	"Conflict_Resolution"	"LEFT"	"LEFT"	659.021700000039	633.3333346	n/a	n/a	n/a	n/a	"True"	n/a	n/a	"2020-12-23 13:55:04.155370"	"2020-12-23 13:55:05.022128"	95	6.17327171666667
"S201223"	"Conflict_Resolution"	"RIGHT"	"RIGHT"	437.687400000073	783.3333349	n/a	n/a	n/a	n/a	"False"	n/a	n/a	"2020-12-23 13:55:05.824627"	"2020-12-23 13:55:06.470842"	96	6.17327171666667
"S201223"	"Conflict_Resolution"	"LEFT"	"LEFT"	516.058700000031	1200.0000024	n/a	n/a	n/a	n/a	"False"	n/a	n/a	"2020-12-23 13:55:07.690275"	"2020-12-23 13:55:08.414902"	97	6.17327171666667
"S201223"	"Conflict_Resolution"	"LEFT"	"LEFT"	665.528999999992	850.0000017	n/a	n/a	n/a	n/a	"True"	n/a	n/a	"2020-12-23 13:55:09.284754"	"2020-12-23 13:55:10.158353"	98	6.17327171666667
"S201223"	"Conflict_Resolution"	"RIGHT"	"RIGHT"	420.931399999972	800.0000016	n/a	n/a	n/a	n/a	"False"	n/a	n/a	"2020-12-23 13:55:10.976710"	"2020-12-23 13:55:11.606383"	99	6.17327171666667
"S201223"	"Conflict_Resolution"	"LEFT"	"LEFT"	437.601700000073	566.6666678	n/a	n/a	n/a	n/a	"False"	n/a	n/a	"2020-12-23 13:55:12.192800"	"2020-12-23 13:55:12.838558"	100	6.17327171666667
"S201223"	"Conflict_Resolution"	"RIGHT"	"RIGHT"	385.740800000008	1266.6666692	n/a	n/a	n/a	n/a	"False"	n/a	n/a	"2020-12-23 13:55:14.124863"	"2020-12-23 13:55:14.718497"	101	6.17327171666667
"S201223"	"Conflict_Resolution"	"LEFT"	"LEFT"	550.563899999929	1350.0000027	n/a	n/a	n/a	n/a	"True"	n/a	n/a	"2020-12-23 13:55:16.088079"	"2020-12-23 13:55:16.846156"	102	6.17327171666667
"S201223"	"Conflict_Resolution"	"RIGHT"	"RIGHT"	503.600399999982	533.3333344	n/a	n/a	n/a	n/a	"False"	n/a	n/a	"2020-12-23 13:55:17.398529"	"2020-12-23 13:55:18.110105"	103	6.17327171666667
"S201223"	"Conflict_Resolution"	"RIGHT"	"RIGHT"	548.12400000003	1216.6666691	n/a	n/a	n/a	n/a	"True"	n/a	n/a	"2020-12-23 13:55:19.345714"	"2020-12-23 13:55:20.101426"	104	6.17327171666667
"S201223"	"Conflict_Resolution"	"LEFT"	"LEFT"	394.041200000061	916.6666685	n/a	n/a	n/a	n/a	"False"	n/a	n/a	"2020-12-23 13:55:21.035921"	"2020-12-23 13:55:21.638708"	105	6.17327171666667
"S201223"	"Conflict_Resolution"	"LEFT"	"LEFT"	542.642999999998	1116.6666689	n/a	n/a	n/a	n/a	"True"	n/a	n/a	"2020-12-23 13:55:22.775118"	"2020-12-23 13:55:23.526068"	106	6.17327171666667
"S201223"	"Conflict_Resolution"	"LEFT"	"LEFT"	466.159599999969	1266.6666692	n/a	n/a	n/a	n/a	"True"	n/a	n/a	"2020-12-23 13:55:24.812528"	"2020-12-23 13:55:25.487891"	107	6.17327171666667
"S201223"	"Conflict_Resolution"	"LEFT"	"LEFT"	500.914899999998	950.0000019	n/a	n/a	n/a	n/a	"True"	n/a	n/a	"2020-12-23 13:55:26.457450"	"2020-12-23 13:55:27.166465"	108	6.17327171666667
"S201223"	"Conflict_Resolution"	"RIGHT"	"RIGHT"	553.230299999996	1283.3333359	n/a	n/a	n/a	n/a	"True"	n/a	n/a	"2020-12-23 13:55:28.469319"	"2020-12-23 13:55:29.229647"	109	6.17327171666667
"S201223"	"Conflict_Resolution"	"RIGHT"	"RIGHT"	440.268500000002	700.0000014	n/a	n/a	n/a	n/a	"False"	n/a	n/a	"2020-12-23 13:55:29.949804"	"2020-12-23 13:55:30.598245"	110	6.17327171666667
"S201223"	"Conflict_Resolution"	"LEFT"	"LEFT"	449.942700000065	1466.6666696	n/a	n/a	n/a	n/a	"False"	n/a	n/a	"2020-12-23 13:55:32.084100"	"2020-12-23 13:55:32.741746"	111	6.17327171666667
"S201223"	"Conflict_Resolution"	"RIGHT"	"RIGHT"	464.308200000005	733.3333348	n/a	n/a	n/a	n/a	"False"	n/a	n/a	"2020-12-23 13:55:33.494204"	"2020-12-23 13:55:34.166840"	112	6.17327171666667
"S201223"	"Conflict_Resolution"	"LEFT"	"LEFT"	555.917299999919	1000.000002	n/a	n/a	n/a	n/a	"False"	n/a	n/a	"2020-12-23 13:55:35.186258"	"2020-12-23 13:55:35.950093"	113	6.17327171666667
"S201223"	"Conflict_Resolution"	"LEFT"	"LEFT"	383.951199999956	1350.0000027	n/a	n/a	n/a	n/a	"False"	n/a	n/a	"2020-12-23 13:55:37.318674"	"2020-12-23 13:55:37.910639"	114	6.17327171666667
"S201223"	"Conflict_Resolution"	"RIGHT"	"RIGHT"	427.433900000096	1033.3333354	n/a	n/a	n/a	n/a	"False"	n/a	n/a	"2020-12-23 13:55:38.964148"	"2020-12-23 13:55:39.598738"	115	6.17327171666667
"S201223"	"Conflict_Resolution"	"LEFT"	"LEFT"	450.408499999867	666.666668	n/a	n/a	n/a	n/a	"False"	n/a	n/a	"2020-12-23 13:55:40.283516"	"2020-12-23 13:55:40.941948"	116	6.17327171666667
"S201223"	"Conflict_Resolution"	"RIGHT"	"RIGHT"	693.107600000076	600.0000012	n/a	n/a	n/a	n/a	"True"	n/a	n/a	"2020-12-23 13:55:41.560942"	"2020-12-23 13:55:42.462312"	117	6.17327171666667
"S201223"	"Conflict_Resolution"	"LEFT"	"LEFT"	540.214099999957	1250.0000025	n/a	n/a	n/a	n/a	"True"	n/a	n/a	"2020-12-23 13:55:43.730412"	"2020-12-23 13:55:44.477114"	118	6.17327171666667
"S201223"	"Conflict_Resolution"	"LEFT"	"LEFT"	479.093999999805	1400.0000028	n/a	n/a	n/a	n/a	"True"	n/a	n/a	"2020-12-23 13:55:45.895019"	"2020-12-23 13:55:46.581401"	119	6.17327171666667
"S201223"	"Conflict_Resolution"	"LEFT"	"LEFT"	474.702600000001	866.6666684	n/a	n/a	n/a	n/a	"True"	n/a	n/a	"2020-12-23 13:55:47.467589"	"2020-12-23 13:55:48.149413"	120	6.17327171666667
"S201223"	"Conflict_Resolution"	"RIGHT"	"RIGHT"	460.103099999969	1233.3333358	n/a	n/a	n/a	n/a	"False"	n/a	n/a	"2020-12-23 13:55:49.402339"	"2020-12-23 13:55:50.069239"	121	6.17327171666667
"S201223"	"Conflict_Resolution"	"RIGHT"	"RIGHT"	468.78219999985	600.0000012	n/a	n/a	n/a	n/a	"False"	n/a	n/a	"2020-12-23 13:55:50.689589"	"2020-12-23 13:55:51.365250"	122	6.17327171666667
"S201223"	"Conflict_Resolution"	"RIGHT"	"RIGHT"	601.286500000015	1316.6666693	n/a	n/a	n/a	n/a	"True"	n/a	n/a	"2020-12-23 13:55:52.701207"	"2020-12-23 13:55:53.510249"	123	6.17327171666667
"S201223"	"Conflict_Resolution"	"RIGHT"	"RIGHT"	520.666299999903	900.0000018	n/a	n/a	n/a	n/a	"True"	n/a	n/a	"2020-12-23 13:55:54.429216"	"2020-12-23 13:55:55.158633"	124	6.17327171666667
"S201223"	"Conflict_Resolution"	"LEFT"	"LEFT"	424.399499999936	1300.0000026	n/a	n/a	n/a	n/a	"False"	n/a	n/a	"2020-12-23 13:55:56.477655"	"2020-12-23 13:55:57.110039"	125	6.17327171666667
"S201223"	"Conflict_Resolution"	"LEFT"	"LEFT"	398.205500000131	1366.6666694	n/a	n/a	n/a	n/a	"False"	n/a	n/a	"2020-12-23 13:55:58.495539"	"2020-12-23 13:55:59.101269"	126	6.17327171666667
"S201223"	"Conflict_Resolution"	"RIGHT"	"RIGHT"	506.24589999984	1266.6666692	n/a	n/a	n/a	n/a	"True"	n/a	n/a	"2020-12-23 13:56:00.387618"	"2020-12-23 13:56:01.102702"	127	6.17327171666667
"S201223"	"Conflict_Resolution"	"RIGHT"	"RIGHT"	606.08759999991	950.0000019	n/a	n/a	n/a	n/a	"True"	n/a	n/a	"2020-12-23 13:56:02.072495"	"2020-12-23 13:56:02.886328"	128	6.17327171666667
"S201223"	"Conflict_Resolution"	"LEFT"	"LEFT"	816.377500000044	900.0000018	n/a	n/a	n/a	n/a	"True"	n/a	n/a	"2020-12-23 13:56:03.806245"	"2020-12-23 13:56:04.830682"	129	6.17327171666667
"S201223"	"Conflict_Resolution"	"RIGHT"	"RIGHT"	461.003500000061	583.3333345	n/a	n/a	n/a	n/a	"False"	n/a	n/a	"2020-12-23 13:56:05.433036"	"2020-12-23 13:56:06.101425"	130	6.17327171666667
"S201223"	"Conflict_Resolution"	"LEFT"	"LEFT"	675.692900000058	616.6666679	n/a	n/a	n/a	n/a	"True"	n/a	n/a	"2020-12-23 13:56:06.738785"	"2020-12-23 13:56:07.622599"	131	6.17327171666667
"S201223"	"Conflict_Resolution"	"RIGHT"	"RIGHT"	421.945199999982	1366.6666694	n/a	n/a	n/a	n/a	"False"	n/a	n/a	"2020-12-23 13:56:09.008139"	"2020-12-23 13:56:09.637695"	132	6.17327171666667
"S201223"	"Conflict_Resolution"	"LEFT"	"LEFT"	551.029100000051	733.3333348	n/a	n/a	n/a	n/a	"False"	n/a	n/a	"2020-12-23 13:56:10.391701"	"2020-12-23 13:56:11.150716"	133	6.17327171666667
"S201223"	"Conflict_Resolution"	"RIGHT"	"RIGHT"	779.414599999882	650.0000013	n/a	n/a	n/a	n/a	"True"	n/a	n/a	"2020-12-23 13:56:11.818408"	"2020-12-23 13:56:12.806140"	134	6.17327171666667
"S201223"	"Conflict_Resolution"	"LEFT"	"LEFT"	792.168899999979	716.6666681	n/a	n/a	n/a	n/a	"True"	n/a	n/a	"2020-12-23 13:56:13.542278"	"2020-12-23 13:56:14.542855"	135	6.17327171666667
"S201223"	"Conflict_Resolution"	"RIGHT"	"RIGHT"	413.716499999964	1150.0000023	n/a	n/a	n/a	n/a	"False"	n/a	n/a	"2020-12-23 13:56:15.712676"	"2020-12-23 13:56:16.334621"	136	6.17327171666667
"S201223"	"Conflict_Resolution"	"LEFT"	"LEFT"	449.089199999889	1050.0000021	n/a	n/a	n/a	n/a	"False"	n/a	n/a	"2020-12-23 13:56:17.405322"	"2020-12-23 13:56:18.061476"	137	6.17327171666667
"S201223"	"Conflict_Resolution"	"RIGHT"	"RIGHT"	408.471899999995	1333.333336	n/a	n/a	n/a	n/a	"False"	n/a	n/a	"2020-12-23 13:56:19.414064"	"2020-12-23 13:56:20.030089"	138	6.17327171666667
"S201223"	"Conflict_Resolution"	"RIGHT"	"RIGHT"	497.819599999957	1233.3333358	n/a	n/a	n/a	n/a	"True"	n/a	n/a	"2020-12-23 13:56:21.284489"	"2020-12-23 13:56:21.990256"	139	6.17327171666667
"S201223"	"Conflict_Resolution"	"LEFT"	"LEFT"	431.477099999938	966.6666686	n/a	n/a	n/a	n/a	"False"	n/a	n/a	"2020-12-23 13:56:22.974950"	"2020-12-23 13:56:23.614813"	140	6.17327171666667
"S201223"	"Conflict_Resolution"	"RIGHT"	"RIGHT"	401.350600000114	1483.3333363	n/a	n/a	n/a	n/a	"False"	n/a	n/a	"2020-12-23 13:56:25.117220"	"2020-12-23 13:56:25.726762"	141	6.17327171666667
"S201223"	"Conflict_Resolution"	"LEFT"	"LEFT"	693.646299999955	766.6666682	n/a	n/a	n/a	n/a	"True"	n/a	n/a	"2020-12-23 13:56:26.512837"	"2020-12-23 13:56:27.415616"	142	6.17327171666667
"S201223"	"Conflict_Resolution"	"RIGHT"	"RIGHT"	403.426099999933	1433.3333362	n/a	n/a	n/a	n/a	"False"	n/a	n/a	"2020-12-23 13:56:28.866432"	"2020-12-23 13:56:29.478703"	143	6.17327171666667
"S201223"	"Conflict_Resolution"	"RIGHT"	"RIGHT"	384.802600000057	1283.3333359	n/a	n/a	n/a	n/a	"False"	n/a	n/a	"2020-12-23 13:56:30.780886"	"2020-12-23 13:56:31.374673"	144	6.17327171666667
"S201223"	"Conflict_Resolution"	"RIGHT"	"RIGHT"	367.385000000013	1050.0000021	n/a	n/a	n/a	n/a	"False"	n/a	n/a	"2020-12-23 13:56:32.446950"	"2020-12-23 13:56:33.022751"	145	6.17327171666667
"S201223"	"Conflict_Resolution"	"RIGHT"	"RIGHT"	527.33319999993	1133.3333356	n/a	n/a	n/a	n/a	"True"	n/a	n/a	"2020-12-23 13:56:34.175992"	"2020-12-23 13:56:34.910356"	146	6.17327171666667
"S201223"	"Conflict_Resolution"	"LEFT"	"LEFT"	406.902199999877	1166.666669	n/a	n/a	n/a	n/a	"False"	n/a	n/a	"2020-12-23 13:56:36.094914"	"2020-12-23 13:56:36.709308"	147	6.17327171666667
"S201223"	"Conflict_Resolution"	"RIGHT"	"RIGHT"	372.323800000004	1466.6666696	n/a	n/a	n/a	n/a	"False"	n/a	n/a	"2020-12-23 13:56:38.193867"	"2020-12-23 13:56:38.773339"	148	6.17327171666667
"S201223"	"Conflict_Resolution"	"LEFT"	"LEFT"	402.291899999909	1316.6666693	n/a	n/a	n/a	n/a	"False"	n/a	n/a	"2020-12-23 13:56:40.107934"	"2020-12-23 13:56:40.718920"	149	6.17327171666667
"S201223"	"Conflict_Resolution"	"RIGHT"	"RIGHT"	580.32419999995	1000.000002	n/a	n/a	n/a	n/a	"False"	n/a	n/a	"2020-12-23 13:56:41.737306"	"2020-12-23 13:56:42.526467"	150	6.17327171666667
"S201223"	"Conflict_Resolution"	"RIGHT"	"RIGHT"	733.128300000089	800.0000016	n/a	n/a	n/a	n/a	"True"	n/a	n/a	"2020-12-23 13:56:43.345289"	"2020-12-23 13:56:44.286095"	151	6.17327171666667
"S201223"	"Conflict_Resolution"	"LEFT"	"LEFT"	379.617600000074	1416.6666695	n/a	n/a	n/a	n/a	"False"	n/a	n/a	"2020-12-23 13:56:45.722997"	"2020-12-23 13:56:46.310384"	152	6.17327171666667
"S201223"	"Conflict_Resolution"	"RIGHT"	"RIGHT"	522.53480000013	1466.6666696	n/a	n/a	n/a	n/a	"True"	n/a	n/a	"2020-12-23 13:56:47.795774"	"2020-12-23 13:56:48.526540"	153	6.17327171666667
"S201223"	"Conflict_Resolution"	"LEFT"	"LEFT"	508.395099999916	1200.0000024	n/a	n/a	n/a	n/a	"True"	n/a	n/a	"2020-12-23 13:56:49.745210"	"2020-12-23 13:56:50.461580"	154	6.17327171666667
"S201223"	"Conflict_Resolution"	"RIGHT"	"RIGHT"	840.590200000179	550.0000011	n/a	n/a	n/a	n/a	"True"	n/a	n/a	"2020-12-23 13:56:51.029333"	"2020-12-23 13:56:52.077390"	155	6.17327171666667
"S201223"	"Conflict_Resolution"	"LEFT"	"LEFT"	384.08430000004	1116.6666689	n/a	n/a	n/a	n/a	"False"	n/a	n/a	"2020-12-23 13:56:53.213700"	"2020-12-23 13:56:53.806145"	156	6.17327171666667
"S201223"	"Conflict_Resolution"	"RIGHT"	"RIGHT"	487.54340000005	1366.6666694	n/a	n/a	n/a	n/a	"True"	n/a	n/a	"2020-12-23 13:56:55.190138"	"2020-12-23 13:56:55.886090"	157	6.17327171666667
"S201223"	"Conflict_Resolution"	"RIGHT"	"RIGHT"	360.181499999953	1316.6666693	n/a	n/a	n/a	n/a	"False"	n/a	n/a	"2020-12-23 13:56:57.221641"	"2020-12-23 13:56:57.789125"	158	6.17327171666667
"S201223"	"Conflict_Resolution"	"LEFT"	"LEFT"	483.675100000028	683.3333347	n/a	n/a	n/a	n/a	"False"	n/a	n/a	"2020-12-23 13:56:58.490486"	"2020-12-23 13:56:59.181252"	159	6.17327171666667
"S201223"	"Conflict_Resolution"	"LEFT"	"LEFT"	590.527500000007	783.3333349	n/a	n/a	n/a	n/a	"True"	n/a	n/a	"2020-12-23 13:56:59.983672"	"2020-12-23 13:57:00.782781"	160	6.17327171666667
"S201223"	"Processing_Speed"	"LEFT"	"DOWN"	559.135099999992	700.0000014	n/a	n/a	n/a	n/a	n/a	n/a	n/a	"2020-12-23 13:40:37.199094"	"2020-12-23 13:40:37.983187"	1	1.99250158333333
"S201223"	"Processing_Speed"	"RIGHT"	"DOWN"	253.442399999983	1433.3333362	n/a	n/a	n/a	n/a	n/a	n/a	n/a	"2020-12-23 13:40:39.425249"	"2020-12-23 13:40:39.886982"	2	1.99250158333333
"S201223"	"Processing_Speed"	"LEFT"	"DOWN"	193.198300000006	1116.6666689	n/a	n/a	n/a	n/a	n/a	n/a	n/a	"2020-12-23 13:40:41.013591"	"2020-12-23 13:40:41.415592"	3	1.99250158333333
"S201223"	"Processing_Speed"	"LEFT"	"DOWN"	328.744799999981	533.3333344	n/a	n/a	n/a	n/a	n/a	n/a	n/a	"2020-12-23 13:40:41.957715"	"2020-12-23 13:40:42.493374"	4	1.99250158333333
"S201223"	"Processing_Speed"	"RIGHT"	"DOWN"	218.419699999998	950.0000019	n/a	n/a	n/a	n/a	n/a	n/a	n/a	"2020-12-23 13:40:43.451884"	"2020-12-23 13:40:43.878993"	5	1.99250158333333
"S201223"	"Processing_Speed"	"RIGHT"	"DOWN"	220.279599999998	850.0000017	n/a	n/a	n/a	n/a	n/a	n/a	n/a	"2020-12-23 13:40:44.738536"	"2020-12-23 13:40:45.167033"	6	1.99250158333333
"S201223"	"Processing_Speed"	"RIGHT"	"DOWN"	269.79750000001	633.3333346	n/a	n/a	n/a	n/a	n/a	n/a	n/a	"2020-12-23 13:40:45.808339"	"2020-12-23 13:40:46.286957"	7	1.99250158333333
"S201223"	"Processing_Speed"	"LEFT"	"DOWN"	227.671000000015	1266.6666692	n/a	n/a	n/a	n/a	n/a	n/a	n/a	"2020-12-23 13:40:47.562944"	"2020-12-23 13:40:47.998492"	8	1.99250158333333
"S201223"	"Processing_Speed"	"LEFT"	"DOWN"	243.062699999996	1500.000003	n/a	n/a	n/a	n/a	n/a	n/a	n/a	"2020-12-23 13:40:49.506929"	"2020-12-23 13:40:49.957326"	9	1.99250158333333
"S201223"	"Processing_Speed"	"RIGHT"	"DOWN"	216.334700000004	1400.0000028	n/a	n/a	n/a	n/a	n/a	n/a	n/a	"2020-12-23 13:40:51.366270"	"2020-12-23 13:40:51.790261"	10	1.99250158333333
"S201223"	"Processing_Speed"	"LEFT"	"DOWN"	218.218400000012	1333.333336	n/a	n/a	n/a	n/a	n/a	n/a	n/a	"2020-12-23 13:40:53.131963"	"2020-12-23 13:40:53.558820"	11	1.99250158333333
"S201223"	"Processing_Speed"	"RIGHT"	"DOWN"	284.170599999982	666.666668	n/a	n/a	n/a	n/a	n/a	n/a	n/a	"2020-12-23 13:40:54.233779"	"2020-12-23 13:40:54.727024"	12	1.99250158333333
"S201223"	"Processing_Speed"	"LEFT"	"DOWN"	226.8416	1300.0000026	n/a	n/a	n/a	n/a	n/a	n/a	n/a	"2020-12-23 13:40:56.035786"	"2020-12-23 13:40:56.470714"	13	1.99250158333333
"S201223"	"Processing_Speed"	"RIGHT"	"DOWN"	229.176899999999	1050.0000021	n/a	n/a	n/a	n/a	n/a	n/a	n/a	"2020-12-23 13:40:57.528994"	"2020-12-23 13:40:57.966924"	14	1.99250158333333
"S201223"	"Processing_Speed"	"LEFT"	"DOWN"	286.747999999989	783.3333349	n/a	n/a	n/a	n/a	n/a	n/a	n/a	"2020-12-23 13:40:58.759897"	"2020-12-23 13:40:59.254555"	15	1.99250158333333
"S201223"	"Processing_Speed"	"RIGHT"	"DOWN"	221.74480000001	1216.6666691	n/a	n/a	n/a	n/a	n/a	n/a	n/a	"2020-12-23 13:41:00.481070"	"2020-12-23 13:41:00.910907"	16	1.99250158333333
"S201223"	"Processing_Speed"	"RIGHT"	"DOWN"	368.17769999999	566.6666678	n/a	n/a	n/a	n/a	n/a	n/a	n/a	"2020-12-23 13:41:01.485948"	"2020-12-23 13:41:02.062212"	17	1.99250158333333
"S201223"	"Processing_Speed"	"LEFT"	"DOWN"	224.358099999989	983.3333353	n/a	n/a	n/a	n/a	n/a	n/a	n/a	"2020-12-23 13:41:03.053771"	"2020-12-23 13:41:03.486381"	18	1.99250158333333
"S201223"	"Processing_Speed"	"RIGHT"	"DOWN"	222.25610000001	1016.6666687	n/a	n/a	n/a	n/a	n/a	n/a	n/a	"2020-12-23 13:41:04.511861"	"2020-12-23 13:41:04.942405"	19	1.99250158333333
"S201223"	"Processing_Speed"	"RIGHT"	"DOWN"	256.669500000015	1183.3333357	n/a	n/a	n/a	n/a	n/a	n/a	n/a	"2020-12-23 13:41:06.134350"	"2020-12-23 13:41:06.598140"	20	1.99250158333333
"S201223"	"Processing_Speed"	"LEFT"	"DOWN"	236.705799999982	1466.6666696	n/a	n/a	n/a	n/a	n/a	n/a	n/a	"2020-12-23 13:41:08.073859"	"2020-12-23 13:41:08.518500"	21	1.99250158333333
"S201223"	"Processing_Speed"	"LEFT"	"DOWN"	292.680599999983	1050.0000021	n/a	n/a	n/a	n/a	n/a	n/a	n/a	"2020-12-23 13:41:09.577332"	"2020-12-23 13:41:10.078543"	22	1.99250158333333
"S201223"	"Processing_Speed"	"LEFT"	"DOWN"	319.624300000015	1183.3333357	n/a	n/a	n/a	n/a	n/a	n/a	n/a	"2020-12-23 13:41:11.270506"	"2020-12-23 13:41:11.798640"	23	1.99250158333333
"S201223"	"Processing_Speed"	"RIGHT"	"DOWN"	243.528700000013	1083.3333355	n/a	n/a	n/a	n/a	n/a	n/a	n/a	"2020-12-23 13:41:12.890832"	"2020-12-23 13:41:13.343759"	24	1.99250158333333
"S201223"	"Processing_Speed"	"RIGHT"	"DOWN"	286.273499999993	600.0000012	n/a	n/a	n/a	n/a	n/a	n/a	n/a	"2020-12-23 13:41:13.952099"	"2020-12-23 13:41:14.446687"	25	1.99250158333333
"S201223"	"Processing_Speed"	"LEFT"	"DOWN"	236.106000000007	883.3333351	n/a	n/a	n/a	n/a	n/a	n/a	n/a	"2020-12-23 13:41:15.338019"	"2020-12-23 13:41:15.782857"	26	1.99250158333333
"S201223"	"Processing_Speed"	"RIGHT"	"DOWN"	362.343600000003	1500.000003	n/a	n/a	n/a	n/a	n/a	n/a	n/a	"2020-12-23 13:41:17.292176"	"2020-12-23 13:41:17.862688"	27	1.99250158333333
"S201223"	"Processing_Speed"	"RIGHT"	"DOWN"	307.368100000019	700.0000014	n/a	n/a	n/a	n/a	n/a	n/a	n/a	"2020-12-23 13:41:18.571895"	"2020-12-23 13:41:19.086446"	28	1.99250158333333
"S201223"	"Processing_Speed"	"LEFT"	"DOWN"	254.371499999991	1433.3333362	n/a	n/a	n/a	n/a	n/a	n/a	n/a	"2020-12-23 13:41:20.527830"	"2020-12-23 13:41:20.990643"	29	1.99250158333333
"S201223"	"Processing_Speed"	"RIGHT"	"DOWN"	240.941200000009	1333.333336	n/a	n/a	n/a	n/a	n/a	n/a	n/a	"2020-12-23 13:41:22.333880"	"2020-12-23 13:41:22.782669"	30	1.99250158333333
"S201223"	"Processing_Speed"	"RIGHT"	"DOWN"	298.050000000018	733.3333348	n/a	n/a	n/a	n/a	n/a	n/a	n/a	"2020-12-23 13:41:23.524698"	"2020-12-23 13:41:24.030974"	31	1.99250158333333
"S201223"	"Processing_Speed"	"LEFT"	"DOWN"	259.662600000013	666.666668	n/a	n/a	n/a	n/a	n/a	n/a	n/a	"2020-12-23 13:41:24.706829"	"2020-12-23 13:41:25.175070"	32	1.99250158333333
"S201223"	"Processing_Speed"	"LEFT"	"DOWN"	269.148800000011	633.3333346	n/a	n/a	n/a	n/a	n/a	n/a	n/a	"2020-12-23 13:41:25.817549"	"2020-12-23 13:41:26.294816"	33	1.99250158333333
"S201223"	"Processing_Speed"	"RIGHT"	"DOWN"	231.802799999997	783.3333349	n/a	n/a	n/a	n/a	n/a	n/a	n/a	"2020-12-23 13:41:27.086608"	"2020-12-23 13:41:27.526063"	34	1.99250158333333
"S201223"	"Processing_Speed"	"LEFT"	"DOWN"	223.17670000001	816.6666683	n/a	n/a	n/a	n/a	n/a	n/a	n/a	"2020-12-23 13:41:28.351054"	"2020-12-23 13:41:28.782235"	35	1.99250158333333
"S201223"	"Processing_Speed"	"LEFT"	"DOWN"	274.815700000005	916.6666685	n/a	n/a	n/a	n/a	n/a	n/a	n/a	"2020-12-23 13:41:29.707781"	"2020-12-23 13:41:30.190466"	36	1.99250158333333
"S201223"	"Processing_Speed"	"LEFT"	"DOWN"	249.351899999994	1150.0000023	n/a	n/a	n/a	n/a	n/a	n/a	n/a	"2020-12-23 13:41:31.348514"	"2020-12-23 13:41:31.806886"	37	1.99250158333333
"S201223"	"Processing_Speed"	"LEFT"	"DOWN"	275.782300000003	1083.3333355	n/a	n/a	n/a	n/a	n/a	n/a	n/a	"2020-12-23 13:41:32.898874"	"2020-12-23 13:41:33.382179"	38	1.99250158333333
"S201223"	"Processing_Speed"	"RIGHT"	"DOWN"	221.258399999982	816.6666683	n/a	n/a	n/a	n/a	n/a	n/a	n/a	"2020-12-23 13:41:34.209512"	"2020-12-23 13:41:34.638902"	39	1.99250158333333
"S201223"	"Processing_Speed"	"RIGHT"	"DOWN"	250.973799999997	1300.0000026	n/a	n/a	n/a	n/a	n/a	n/a	n/a	"2020-12-23 13:41:35.946967"	"2020-12-23 13:41:36.406524"	40	1.99250158333333
"S201223"	"Processing_Speed"	"LEFT"	"DOWN"	231.984199999999	1366.6666694	n/a	n/a	n/a	n/a	n/a	n/a	n/a	"2020-12-23 13:41:37.782655"	"2020-12-23 13:41:38.222954"	41	1.99250158333333
"S201223"	"Processing_Speed"	"LEFT"	"DOWN"	230.87000000001	600.0000012	n/a	n/a	n/a	n/a	n/a	n/a	n/a	"2020-12-23 13:41:38.831793"	"2020-12-23 13:41:39.270266"	42	1.99250158333333
"S201223"	"Processing_Speed"	"RIGHT"	"DOWN"	226.786699999991	916.6666685	n/a	n/a	n/a	n/a	n/a	n/a	n/a	"2020-12-23 13:41:40.195432"	"2020-12-23 13:41:40.630847"	43	1.99250158333333
"S201223"	"Processing_Speed"	"RIGHT"	"DOWN"	239.397100000019	983.3333353	n/a	n/a	n/a	n/a	n/a	n/a	n/a	"2020-12-23 13:41:41.622806"	"2020-12-23 13:41:42.069363"	44	1.99250158333333
"S201223"	"Processing_Speed"	"LEFT"	"DOWN"	281.722200000019	566.6666678	n/a	n/a	n/a	n/a	n/a	n/a	n/a	"2020-12-23 13:41:42.644822"	"2020-12-23 13:41:43.133683"	45	1.99250158333333
"S201223"	"Processing_Speed"	"RIGHT"	"DOWN"	261.722499999991	1266.6666692	n/a	n/a	n/a	n/a	n/a	n/a	n/a	"2020-12-23 13:41:44.408879"	"2020-12-23 13:41:44.878941"	46	1.99250158333333
"S201223"	"Processing_Speed"	"LEFT"	"DOWN"	232.925499999993	950.0000019	n/a	n/a	n/a	n/a	n/a	n/a	n/a	"2020-12-23 13:41:45.837797"	"2020-12-23 13:41:46.278717"	47	1.99250158333333
"S201223"	"Processing_Speed"	"RIGHT"	"DOWN"	257.886000000013	533.3333344	n/a	n/a	n/a	n/a	n/a	n/a	n/a	"2020-12-23 13:41:46.820892"	"2020-12-23 13:41:47.286827"	48	1.99250158333333
"S201223"	"Processing_Speed"	"RIGHT"	"DOWN"	259.687299999996	883.3333351	n/a	n/a	n/a	n/a	n/a	n/a	n/a	"2020-12-23 13:41:48.178508"	"2020-12-23 13:41:48.645860"	49	1.99250158333333
"S201223"	"Processing_Speed"	"LEFT"	"DOWN"	250.606500000004	733.3333348	n/a	n/a	n/a	n/a	n/a	n/a	n/a	"2020-12-23 13:41:49.387898"	"2020-12-23 13:41:49.846064"	50	1.99250158333333
"S201223"	"Processing_Speed"	"LEFT"	"DOWN"	261.787400000003	850.0000017	n/a	n/a	n/a	n/a	n/a	n/a	n/a	"2020-12-23 13:41:50.704484"	"2020-12-23 13:41:51.174569"	51	1.99250158333333
"S201223"	"Processing_Speed"	"RIGHT"	"DOWN"	225.057200000009	1150.0000023	n/a	n/a	n/a	n/a	n/a	n/a	n/a	"2020-12-23 13:41:52.333414"	"2020-12-23 13:41:52.766894"	52	1.99250158333333
"S201223"	"Processing_Speed"	"LEFT"	"DOWN"	266.37070000001	500.000001	n/a	n/a	n/a	n/a	n/a	n/a	n/a	"2020-12-23 13:41:53.276068"	"2020-12-23 13:41:53.750350"	53	1.99250158333333
"S201223"	"Processing_Speed"	"RIGHT"	"DOWN"	240.889999999979	1366.6666694	n/a	n/a	n/a	n/a	n/a	n/a	n/a	"2020-12-23 13:41:55.125952"	"2020-12-23 13:41:55.574318"	54	1.99250158333333
"S201223"	"Processing_Speed"	"LEFT"	"DOWN"	231.102300000003	1400.0000028	n/a	n/a	n/a	n/a	n/a	n/a	n/a	"2020-12-23 13:41:56.983331"	"2020-12-23 13:41:57.422780"	55	1.99250158333333
"S201223"	"Processing_Speed"	"RIGHT"	"DOWN"	258.507899999984	1116.6666689	n/a	n/a	n/a	n/a	n/a	n/a	n/a	"2020-12-23 13:41:58.547515"	"2020-12-23 13:41:59.014311"	56	1.99250158333333
"S201223"	"Processing_Speed"	"RIGHT"	"DOWN"	260.044300000004	1466.6666696	n/a	n/a	n/a	n/a	n/a	n/a	n/a	"2020-12-23 13:42:00.490722"	"2020-12-23 13:42:00.959779"	57	1.99250158333333
"S201223"	"Processing_Speed"	"LEFT"	"DOWN"	245.373299999983	1016.6666687	n/a	n/a	n/a	n/a	n/a	n/a	n/a	"2020-12-23 13:42:01.984649"	"2020-12-23 13:42:02.437358"	58	1.99250158333333
"S201223"	"Processing_Speed"	"LEFT"	"DOWN"	263.363200000015	1216.6666691	n/a	n/a	n/a	n/a	n/a	n/a	n/a	"2020-12-23 13:42:03.663347"	"2020-12-23 13:42:04.134744"	59	1.99250158333333
"S201223"	"Processing_Speed"	"RIGHT"	"DOWN"	323.056500000007	500.000001	n/a	n/a	n/a	n/a	n/a	n/a	n/a	"2020-12-23 13:42:04.643562"	"2020-12-23 13:42:05.174654"	60	1.99250158333333
"S201223"	"Response_Inhibition"	"RIGHT"	"RIGHT"	444.199733800043	683.3333347	n/a	n/a	n/a	n/a	n/a	n/a	n/a	"2020-12-23 13:45:30.134395"	"2020-12-23 13:45:30.790439"	1	5.93057745
"S201223"	"Response_Inhibition"	"RIGHT"	"RIGHT"	581.966399999999	633.3333346	n/a	n/a	n/a	n/a	n/a	n/a	n/a	"2020-12-23 13:45:31.432721"	"2020-12-23 13:45:32.222654"	2	5.93057745
"S201223"	"Response_Inhibition"	"RIGHT"	"Time_Max_Exceeded"	1500.05803370001	1050.0000021	n/a	n/a	n/a	n/a	n/a	n/a	n/a	"2020-12-23 13:45:33.281802"	"2020-12-23 13:45:34.785803"	3	5.93057745
"S201223"	"Response_Inhibition"	"RIGHT"	"RIGHT"	493.273500000043	1366.6666694	n/a	n/a	n/a	n/a	n/a	n/a	n/a	"2020-12-23 13:45:36.161231"	"2020-12-23 13:45:36.862591"	4	5.93057745
"S201223"	"Response_Inhibition"	"RIGHT"	"RIGHT"	895.821799999965	783.3333349	n/a	n/a	n/a	n/a	n/a	n/a	n/a	"2020-12-23 13:45:37.654064"	"2020-12-23 13:45:38.757288"	5	5.93057745
"S201223"	"Response_Inhibition"	"LEFT"	"LEFT"	348.375999999973	1483.3333363	n/a	n/a	n/a	n/a	n/a	n/a	n/a	"2020-12-23 13:45:40.249632"	"2020-12-23 13:45:40.806177"	6	5.93057745
"S201223"	"Response_Inhibition"	"RIGHT"	"RIGHT"	533.71089999996	1433.3333362	n/a	n/a	n/a	n/a	n/a	n/a	n/a	"2020-12-23 13:45:42.247943"	"2020-12-23 13:45:42.990988"	7	5.93057745
"S201223"	"Response_Inhibition"	"LEFT"	"LEFT"	528.254800000013	1366.6666694	n/a	n/a	n/a	n/a	n/a	n/a	n/a	"2020-12-23 13:45:44.366098"	"2020-12-23 13:45:45.102418"	8	5.93057745
"S201223"	"Response_Inhibition"	"RIGHT"	"RIGHT"	360.737700000016	766.6666682	n/a	n/a	n/a	n/a	n/a	n/a	n/a	"2020-12-23 13:45:45.877580"	"2020-12-23 13:45:46.446373"	9	5.93057745
"S201223"	"Response_Inhibition"	"RIGHT"	"RIGHT"	334.422667200031	1150.0000023	n/a	n/a	n/a	n/a	n/a	n/a	n/a	"2020-12-23 13:45:47.604509"	"2020-12-23 13:45:48.150655"	10	5.93057745
"S201223"	"Response_Inhibition"	"RIGHT"	"RIGHT"	530.92730000003	1500.000003	n/a	n/a	n/a	n/a	n/a	n/a	n/a	"2020-12-23 13:45:49.658981"	"2020-12-23 13:45:50.398093"	11	5.93057745
"S201223"	"Response_Inhibition"	"LEFT"	"LEFT"	313.091600400018	883.3333351	n/a	n/a	n/a	n/a	n/a	n/a	n/a	"2020-12-23 13:45:51.290400"	"2020-12-23 13:45:51.814917"	12	5.93057745
"S201223"	"Response_Inhibition"	"LEFT"	"LEFT"	696.832299999983	550.0000011	n/a	n/a	n/a	n/a	n/a	n/a	n/a	"2020-12-23 13:45:52.373999"	"2020-12-23 13:45:53.279879"	13	5.93057745
"S201223"	"Response_Inhibition"	"LEFT"	"LEFT"	690.299499999981	1066.6666688	n/a	n/a	n/a	n/a	n/a	n/a	n/a	"2020-12-23 13:45:54.356599"	"2020-12-23 13:45:55.255554"	14	5.93057745
"S201223"	"Response_Inhibition"	"RIGHT"	"RIGHT"	508.312100000012	850.0000017	n/a	n/a	n/a	n/a	n/a	n/a	n/a	"2020-12-23 13:45:56.113927"	"2020-12-23 13:45:56.831626"	15	5.93057745
"S201223"	"Response_Inhibition"	"LEFT"	"LEFT"	552.767800000026	733.3333348	n/a	n/a	n/a	n/a	n/a	n/a	n/a	"2020-12-23 13:45:57.573628"	"2020-12-23 13:45:58.333769"	16	5.93057745
"S201223"	"Response_Inhibition"	"LEFT"	"Time_Max_Exceeded"	1500.06530039997	733.3333348	n/a	n/a	n/a	n/a	n/a	n/a	n/a	"2020-12-23 13:45:59.075346"	"2020-12-23 13:46:00.579402"	17	5.93057745
"S201223"	"Response_Inhibition"	"LEFT"	"Time_Max_Exceeded"	1500.0662004	1100.0000022	n/a	n/a	n/a	n/a	n/a	n/a	n/a	"2020-12-23 13:46:01.687536"	"2020-12-23 13:46:03.191457"	18	5.93057745
"S201223"	"Response_Inhibition"	"RIGHT"	"RIGHT"	513.254600000039	1483.3333363	n/a	n/a	n/a	n/a	n/a	n/a	n/a	"2020-12-23 13:46:04.684964"	"2020-12-23 13:46:05.407010"	19	5.93057745
"S201223"	"Response_Inhibition"	"RIGHT"	"RIGHT"	656.917800000031	550.0000011	n/a	n/a	n/a	n/a	n/a	n/a	n/a	"2020-12-23 13:46:05.965162"	"2020-12-23 13:46:06.830468"	20	5.93057745
"S201223"	"Response_Inhibition"	"LEFT"	"LEFT"	572.487200000012	866.6666684	n/a	n/a	n/a	n/a	n/a	n/a	n/a	"2020-12-23 13:46:07.705385"	"2020-12-23 13:46:08.487274"	21	5.93057745
"S201223"	"Response_Inhibition"	"LEFT"	"LEFT"	612.983100000008	1233.3333358	n/a	n/a	n/a	n/a	n/a	n/a	n/a	"2020-12-23 13:46:09.729160"	"2020-12-23 13:46:10.550849"	22	5.93057745
"S201223"	"Response_Inhibition"	"RIGHT"	"Time_Max_Exceeded"	1500.05243349997	1316.6666693	n/a	n/a	n/a	n/a	n/a	n/a	n/a	"2020-12-23 13:46:11.876143"	"2020-12-23 13:46:13.379851"	23	5.93057745
"S201223"	"Response_Inhibition"	"RIGHT"	"Time_Max_Exceeded"	1500.05823379999	816.6666683	n/a	n/a	n/a	n/a	n/a	n/a	n/a	"2020-12-23 13:46:14.206417"	"2020-12-23 13:46:15.710121"	24	5.93057745
"S201223"	"Response_Inhibition"	"LEFT"	"LEFT"	636.115500000017	683.3333347	n/a	n/a	n/a	n/a	n/a	n/a	n/a	"2020-12-23 13:46:16.401907"	"2020-12-23 13:46:17.246656"	25	5.93057745
"S201223"	"Response_Inhibition"	"RIGHT"	"RIGHT"	581.033099999956	850.0000017	n/a	n/a	n/a	n/a	n/a	n/a	n/a	"2020-12-23 13:46:18.105362"	"2020-12-23 13:46:18.894731"	26	5.93057745
"S201223"	"Response_Inhibition"	"LEFT"	"Time_Max_Exceeded"	1500.05446689998	800.0000016	n/a	n/a	n/a	n/a	n/a	n/a	n/a	"2020-12-23 13:46:19.703553"	"2020-12-23 13:46:21.206413"	27	5.93057745
"S201223"	"Response_Inhibition"	"LEFT"	"Time_Max_Exceeded"	1500.05666700001	766.6666682	n/a	n/a	n/a	n/a	n/a	n/a	n/a	"2020-12-23 13:46:21.982603"	"2020-12-23 13:46:23.485958"	28	5.93057745
"S201223"	"Response_Inhibition"	"LEFT"	"Time_Max_Exceeded"	1500.05783369996	1466.6666696	n/a	n/a	n/a	n/a	n/a	n/a	n/a	"2020-12-23 13:46:24.961939"	"2020-12-23 13:46:26.464878"	29	5.93057745
"S201223"	"Response_Inhibition"	"LEFT"	"LEFT"	662.30939999997	1150.0000023	n/a	n/a	n/a	n/a	n/a	n/a	n/a	"2020-12-23 13:46:27.624141"	"2020-12-23 13:46:28.494171"	30	5.93057745
"S201223"	"Response_Inhibition"	"RIGHT"	"RIGHT"	677.548000000002	650.0000013	n/a	n/a	n/a	n/a	n/a	n/a	n/a	"2020-12-23 13:46:29.152482"	"2020-12-23 13:46:30.038898"	31	5.93057745
"S201223"	"Response_Inhibition"	"RIGHT"	"Time_Max_Exceeded"	1500.04836709995	1116.6666689	n/a	n/a	n/a	n/a	n/a	n/a	n/a	"2020-12-23 13:46:31.163965"	"2020-12-23 13:46:32.667336"	32	5.93057745
"S201223"	"Response_Inhibition"	"RIGHT"	"RIGHT"	533.734400000014	700.0000014	n/a	n/a	n/a	n/a	n/a	n/a	n/a	"2020-12-23 13:46:33.376785"	"2020-12-23 13:46:34.118339"	33	5.93057745
"S201223"	"Response_Inhibition"	"RIGHT"	"RIGHT"	654.952100000003	1216.6666691	n/a	n/a	n/a	n/a	n/a	n/a	n/a	"2020-12-23 13:46:35.343750"	"2020-12-23 13:46:36.206729"	34	5.93057745
"S201223"	"Response_Inhibition"	"LEFT"	"Time_Max_Exceeded"	1500.05076670002	1050.0000021	n/a	n/a	n/a	n/a	n/a	n/a	n/a	"2020-12-23 13:46:37.266052"	"2020-12-23 13:46:38.769296"	35	5.93057745
"S201223"	"Response_Inhibition"	"LEFT"	"Time_Max_Exceeded"	1500.05013350002	1000.000002	n/a	n/a	n/a	n/a	n/a	n/a	n/a	"2020-12-23 13:46:39.778526"	"2020-12-23 13:46:41.282401"	36	5.93057745
"S201223"	"Response_Inhibition"	"RIGHT"	"RIGHT"	514.780299999984	1216.6666691	n/a	n/a	n/a	n/a	n/a	n/a	n/a	"2020-12-23 13:46:42.507196"	"2020-12-23 13:46:43.229268"	37	5.93057745
"S201223"	"Response_Inhibition"	"RIGHT"	"RIGHT"	652.232900000001	1466.6666696	n/a	n/a	n/a	n/a	n/a	n/a	n/a	"2020-12-23 13:46:44.706189"	"2020-12-23 13:46:45.566656"	38	5.93057745
"S201223"	"Response_Inhibition"	"LEFT"	"Time_Max_Exceeded"	1500.05700029999	1200.0000024	n/a	n/a	n/a	n/a	n/a	n/a	n/a	"2020-12-23 13:46:46.774665"	"2020-12-23 13:46:48.277916"	39	5.93057745
"S201223"	"Response_Inhibition"	"RIGHT"	"RIGHT"	590.528600000027	583.3333345	n/a	n/a	n/a	n/a	n/a	n/a	n/a	"2020-12-23 13:46:48.871969"	"2020-12-23 13:46:49.670324"	40	5.93057745
"S201223"	"Response_Inhibition"	"LEFT"	"Time_Max_Exceeded"	1500.06030049997	1433.3333362	n/a	n/a	n/a	n/a	n/a	n/a	n/a	"2020-12-23 13:46:51.112382"	"2020-12-23 13:46:52.615400"	41	5.93057745
"S201223"	"Response_Inhibition"	"LEFT"	"Time_Max_Exceeded"	1500.08100009995	1133.3333356	n/a	n/a	n/a	n/a	n/a	n/a	n/a	"2020-12-23 13:46:53.757864"	"2020-12-23 13:46:55.261007"	42	5.93057745
"S201223"	"Response_Inhibition"	"LEFT"	"LEFT"	715.858200000014	1500.000003	n/a	n/a	n/a	n/a	n/a	n/a	n/a	"2020-12-23 13:46:56.770023"	"2020-12-23 13:46:57.694754"	43	5.93057745
"S201223"	"Response_Inhibition"	"RIGHT"	"Time_Max_Exceeded"	1500.04800030002	1266.6666692	n/a	n/a	n/a	n/a	n/a	n/a	n/a	"2020-12-23 13:46:58.969882"	"2020-12-23 13:47:00.472817"	44	5.93057745
"S201223"	"Response_Inhibition"	"LEFT"	"LEFT"	732.658000000015	1383.3333361	n/a	n/a	n/a	n/a	n/a	n/a	n/a	"2020-12-23 13:47:01.865740"	"2020-12-23 13:47:02.806806"	45	5.93057745
"S201223"	"Response_Inhibition"	"LEFT"	"LEFT"	904.35279999997	950.0000019	n/a	n/a	n/a	n/a	n/a	n/a	n/a	"2020-12-23 13:47:03.766552"	"2020-12-23 13:47:04.878503"	46	5.93057745
"S201223"	"Response_Inhibition"	"RIGHT"	"RIGHT"	723.403500000018	900.0000018	n/a	n/a	n/a	n/a	n/a	n/a	n/a	"2020-12-23 13:47:05.787190"	"2020-12-23 13:47:06.718469"	47	5.93057745
"S201223"	"Response_Inhibition"	"LEFT"	"LEFT"	669.96359999996	1416.6666695	n/a	n/a	n/a	n/a	n/a	n/a	n/a	"2020-12-23 13:47:08.144379"	"2020-12-23 13:47:09.022804"	48	5.93057745
"S201223"	"Response_Inhibition"	"RIGHT"	"RIGHT"	363.097999999923	1300.0000026	n/a	n/a	n/a	n/a	n/a	n/a	n/a	"2020-12-23 13:47:10.330837"	"2020-12-23 13:47:10.902527"	49	5.93057745
"S201223"	"Response_Inhibition"	"LEFT"	"Time_Max_Exceeded"	1500.08023360007	683.3333347	n/a	n/a	n/a	n/a	n/a	n/a	n/a	"2020-12-23 13:47:11.594339"	"2020-12-23 13:47:13.098233"	50	5.93057745
"S201223"	"Response_Inhibition"	"LEFT"	"LEFT"	574.658699999986	900.0000018	n/a	n/a	n/a	n/a	n/a	n/a	n/a	"2020-12-23 13:47:14.007548"	"2020-12-23 13:47:14.790146"	51	5.93057745
"S201223"	"Response_Inhibition"	"RIGHT"	"Time_Max_Exceeded"	1500.05463340002	750.0000015	n/a	n/a	n/a	n/a	n/a	n/a	n/a	"2020-12-23 13:47:15.548087"	"2020-12-23 13:47:17.051767"	52	5.93057745
"S201223"	"Response_Inhibition"	"LEFT"	"LEFT"	593.552100000011	783.3333349	n/a	n/a	n/a	n/a	n/a	n/a	n/a	"2020-12-23 13:47:17.844856"	"2020-12-23 13:47:18.646683"	53	5.93057745
"S201223"	"Response_Inhibition"	"RIGHT"	"RIGHT"	665.663900000027	533.3333344	n/a	n/a	n/a	n/a	n/a	n/a	n/a	"2020-12-23 13:47:19.188870"	"2020-12-23 13:47:20.062519"	54	5.93057745
"S201223"	"Response_Inhibition"	"LEFT"	"LEFT"	348.689700000023	850.0000017	n/a	n/a	n/a	n/a	n/a	n/a	n/a	"2020-12-23 13:47:20.921408"	"2020-12-23 13:47:21.477497"	55	5.93057745
"S201223"	"Response_Inhibition"	"RIGHT"	"RIGHT"	473.646099999996	966.6666686	n/a	n/a	n/a	n/a	n/a	n/a	n/a	"2020-12-23 13:47:22.452995"	"2020-12-23 13:47:23.134948"	56	5.93057745
"S201223"	"Response_Inhibition"	"LEFT"	"LEFT"	576.641499999937	933.3333352	n/a	n/a	n/a	n/a	n/a	n/a	n/a	"2020-12-23 13:47:24.077069"	"2020-12-23 13:47:24.862079"	57	5.93057745
"S201223"	"Response_Inhibition"	"LEFT"	"LEFT"	559.592800000019	616.6666679	n/a	n/a	n/a	n/a	n/a	n/a	n/a	"2020-12-23 13:47:25.487516"	"2020-12-23 13:47:26.254879"	58	5.93057745
"S201223"	"Response_Inhibition"	"LEFT"	"LEFT"	466.686799999934	1100.0000022	n/a	n/a	n/a	n/a	n/a	n/a	n/a	"2020-12-23 13:47:27.363094"	"2020-12-23 13:47:28.037145"	59	5.93057745
"S201223"	"Response_Inhibition"	"RIGHT"	"RIGHT"	482.663699999989	1333.333336	n/a	n/a	n/a	n/a	n/a	n/a	n/a	"2020-12-23 13:47:29.379588"	"2020-12-23 13:47:30.070446"	60	5.93057745
"S201223"	"Response_Inhibition"	"RIGHT"	"RIGHT"	412.816899999939	1066.6666688	n/a	n/a	n/a	n/a	n/a	n/a	n/a	"2020-12-23 13:47:31.145900"	"2020-12-23 13:47:31.766581"	61	5.93057745
"S201223"	"Response_Inhibition"	"RIGHT"	"RIGHT"	395.056599999975	1100.0000022	n/a	n/a	n/a	n/a	n/a	n/a	n/a	"2020-12-23 13:47:32.875233"	"2020-12-23 13:47:33.478701"	62	5.93057745
"S201223"	"Response_Inhibition"	"LEFT"	"LEFT"	434.310500000038	1116.6666689	n/a	n/a	n/a	n/a	n/a	n/a	n/a	"2020-12-23 13:47:34.603680"	"2020-12-23 13:47:35.245506"	63	5.93057745
"S201223"	"Response_Inhibition"	"RIGHT"	"Time_Max_Exceeded"	1500.05353360003	1250.0000025	n/a	n/a	n/a	n/a	n/a	n/a	n/a	"2020-12-23 13:47:36.504463"	"2020-12-23 13:47:38.007124"	64	5.93057745
"S201223"	"Response_Inhibition"	"RIGHT"	"RIGHT"	585.696699999971	1100.0000022	n/a	n/a	n/a	n/a	n/a	n/a	n/a	"2020-12-23 13:47:39.116799"	"2020-12-23 13:47:39.910884"	65	5.93057745
"S201223"	"Response_Inhibition"	"LEFT"	"LEFT"	446.654700000067	1366.6666694	n/a	n/a	n/a	n/a	n/a	n/a	n/a	"2020-12-23 13:47:41.287608"	"2020-12-23 13:47:41.942863"	66	5.93057745
"S201223"	"Response_Inhibition"	"RIGHT"	"RIGHT"	437.675600000034	833.333335	n/a	n/a	n/a	n/a	n/a	n/a	n/a	"2020-12-23 13:47:42.784391"	"2020-12-23 13:47:43.429272"	67	5.93057745
"S201223"	"Response_Inhibition"	"RIGHT"	"Time_Max_Exceeded"	1500.05490010005	1083.3333355	n/a	n/a	n/a	n/a	n/a	n/a	n/a	"2020-12-23 13:47:44.521064"	"2020-12-23 13:47:46.025117"	68	5.93057745
"S201223"	"Response_Inhibition"	"LEFT"	"LEFT"	442.120299999942	1266.6666692	n/a	n/a	n/a	n/a	n/a	n/a	n/a	"2020-12-23 13:47:47.299891"	"2020-12-23 13:47:47.949298"	69	5.93057745
"S201223"	"Response_Inhibition"	"RIGHT"	"RIGHT"	541.566099999955	1266.6666692	n/a	n/a	n/a	n/a	n/a	n/a	n/a	"2020-12-23 13:47:49.224601"	"2020-12-23 13:47:49.974836"	70	5.93057745
"S201223"	"Response_Inhibition"	"LEFT"	"LEFT"	395.904433599946	1350.0000027	n/a	n/a	n/a	n/a	n/a	n/a	n/a	"2020-12-23 13:47:51.335426"	"2020-12-23 13:47:51.941632"	71	5.93057745
"S201223"	"Response_Inhibition"	"LEFT"	"Time_Max_Exceeded"	1500.06056709996	1283.3333359	n/a	n/a	n/a	n/a	n/a	n/a	n/a	"2020-12-23 13:47:53.233013"	"2020-12-23 13:47:54.736235"	72	5.93057745
"S201223"	"Response_Inhibition"	"RIGHT"	"Time_Max_Exceeded"	1500.05126679995	1466.6666696	n/a	n/a	n/a	n/a	n/a	n/a	n/a	"2020-12-23 13:47:56.212857"	"2020-12-23 13:47:57.715438"	73	5.93057745
"S201223"	"Response_Inhibition"	"LEFT"	"LEFT"	424.7149338	1333.333336	n/a	n/a	n/a	n/a	n/a	n/a	n/a	"2020-12-23 13:47:59.058339"	"2020-12-23 13:47:59.694348"	74	5.93057745
"S201223"	"Response_Inhibition"	"LEFT"	"LEFT"	758.931100000041	1216.6666691	n/a	n/a	n/a	n/a	n/a	n/a	n/a	"2020-12-23 13:48:00.919212"	"2020-12-23 13:48:01.886678"	75	5.93057745
"S201223"	"Response_Inhibition"	"RIGHT"	"RIGHT"	696.660199999997	533.3333344	n/a	n/a	n/a	n/a	n/a	n/a	n/a	"2020-12-23 13:48:02.429944"	"2020-12-23 13:48:03.334659"	76	5.93057745
"S201223"	"Response_Inhibition"	"LEFT"	"Time_Max_Exceeded"	1500.08790000004	1166.666669	n/a	n/a	n/a	n/a	n/a	n/a	n/a	"2020-12-23 13:48:04.509325"	"2020-12-23 13:48:06.010392"	77	5.93057745
"S201223"	"Response_Inhibition"	"RIGHT"	"Time_Max_Exceeded"	1500.05110020004	950.0000019	n/a	n/a	n/a	n/a	n/a	n/a	n/a	"2020-12-23 13:48:06.969589"	"2020-12-23 13:48:08.472844"	78	5.93057745
"S201223"	"Response_Inhibition"	"LEFT"	"LEFT"	855.318599999919	916.6666685	n/a	n/a	n/a	n/a	n/a	n/a	n/a	"2020-12-23 13:48:09.398660"	"2020-12-23 13:48:10.462833"	79	5.93057745
"S201223"	"Response_Inhibition"	"RIGHT"	"RIGHT"	797.487199999978	1233.3333358	n/a	n/a	n/a	n/a	n/a	n/a	n/a	"2020-12-23 13:48:11.705078"	"2020-12-23 13:48:12.711429"	80	5.93057745
"S201223"	"Response_Inhibition"	"LEFT"	"LEFT"	1098.0055	1316.6666693	n/a	n/a	n/a	n/a	n/a	n/a	n/a	"2020-12-23 13:48:14.036046"	"2020-12-23 13:48:15.342312"	81	5.93057745
"S201223"	"Response_Inhibition"	"LEFT"	"Time_Max_Exceeded"	1500.04696720002	633.3333346	n/a	n/a	n/a	n/a	n/a	n/a	n/a	"2020-12-23 13:48:15.984045"	"2020-12-23 13:48:17.488227"	82	5.93057745
"S201223"	"Response_Inhibition"	"RIGHT"	"RIGHT"	847.572499999956	516.6666677	n/a	n/a	n/a	n/a	n/a	n/a	n/a	"2020-12-23 13:48:18.014324"	"2020-12-23 13:48:19.070317"	83	5.93057745
"S201223"	"Response_Inhibition"	"RIGHT"	"RIGHT"	711.178399999994	1000.000002	n/a	n/a	n/a	n/a	n/a	n/a	n/a	"2020-12-23 13:48:20.078888"	"2020-12-23 13:48:20.998134"	84	5.93057745
"S201223"	"Response_Inhibition"	"LEFT"	"Time_Max_Exceeded"	1500.05666669999	950.0000019	n/a	n/a	n/a	n/a	n/a	n/a	n/a	"2020-12-23 13:48:21.957127"	"2020-12-23 13:48:23.460959"	85	5.93057745
"S201223"	"Response_Inhibition"	"RIGHT"	"RIGHT"	621.63750000002	1450.0000029	n/a	n/a	n/a	n/a	n/a	n/a	n/a	"2020-12-23 13:48:24.920773"	"2020-12-23 13:48:25.750705"	86	5.93057745
"S201223"	"Response_Inhibition"	"LEFT"	"Time_Max_Exceeded"	1500.06966699998	516.6666677	n/a	n/a	n/a	n/a	n/a	n/a	n/a	"2020-12-23 13:48:26.275518"	"2020-12-23 13:48:27.778594"	87	5.93057745
"S201223"	"Response_Inhibition"	"RIGHT"	"Time_Max_Exceeded"	1500.04610019994	683.3333347	n/a	n/a	n/a	n/a	n/a	n/a	n/a	"2020-12-23 13:48:28.471251"	"2020-12-23 13:48:29.975197"	88	5.93057745
"S201223"	"Response_Inhibition"	"LEFT"	"LEFT"	675.359899999989	1083.3333355	n/a	n/a	n/a	n/a	n/a	n/a	n/a	"2020-12-23 13:48:31.066849"	"2020-12-23 13:48:31.950397"	89	5.93057745
"S201223"	"Response_Inhibition"	"RIGHT"	"RIGHT"	462.938799999961	1183.3333357	n/a	n/a	n/a	n/a	n/a	n/a	n/a	"2020-12-23 13:48:33.143587"	"2020-12-23 13:48:33.814857"	90	5.93057745
"S201223"	"Response_Inhibition"	"LEFT"	"Time_Max_Exceeded"	1500.05920009994	1400.0000028	n/a	n/a	n/a	n/a	n/a	n/a	n/a	"2020-12-23 13:48:35.223500"	"2020-12-23 13:48:36.727048"	91	5.93057745
"S201223"	"Response_Inhibition"	"LEFT"	"LEFT"	629.194999999982	633.3333346	n/a	n/a	n/a	n/a	n/a	n/a	n/a	"2020-12-23 13:48:37.368908"	"2020-12-23 13:48:38.206331"	92	5.93057745
"S201223"	"Response_Inhibition"	"RIGHT"	"RIGHT"	525.789599999939	1416.6666695	n/a	n/a	n/a	n/a	n/a	n/a	n/a	"2020-12-23 13:48:39.632289"	"2020-12-23 13:48:40.366339"	93	5.93057745
"S201223"	"Response_Inhibition"	"RIGHT"	"Time_Max_Exceeded"	1500.05390050001	600.0000012	n/a	n/a	n/a	n/a	n/a	n/a	n/a	"2020-12-23 13:48:40.974671"	"2020-12-23 13:48:42.478353"	94	5.93057745
"S201223"	"Response_Inhibition"	"RIGHT"	"RIGHT"	561.570300000085	933.3333352	n/a	n/a	n/a	n/a	n/a	n/a	n/a	"2020-12-23 13:48:43.421370"	"2020-12-23 13:48:44.190325"	95	5.93057745
"S201223"	"Response_Inhibition"	"RIGHT"	"RIGHT"	645.110999999929	666.666668	n/a	n/a	n/a	n/a	n/a	n/a	n/a	"2020-12-23 13:48:44.865049"	"2020-12-23 13:48:45.718070"	96	5.93057745
"S201223"	"Response_Inhibition"	"LEFT"	"LEFT"	608.364600000073	583.3333345	n/a	n/a	n/a	n/a	n/a	n/a	n/a	"2020-12-23 13:48:46.309641"	"2020-12-23 13:48:47.125289"	97	5.93057745
"S201223"	"Response_Inhibition"	"RIGHT"	"Time_Max_Exceeded"	1500.05310049995	1016.6666687	n/a	n/a	n/a	n/a	n/a	n/a	n/a	"2020-12-23 13:48:48.150749"	"2020-12-23 13:48:49.653881"	98	5.93057745
"S201223"	"Response_Inhibition"	"LEFT"	"LEFT"	610.860300000013	700.0000014	n/a	n/a	n/a	n/a	n/a	n/a	n/a	"2020-12-23 13:48:50.363562"	"2020-12-23 13:48:51.181098"	99	5.93057745
"S201223"	"Response_Inhibition"	"RIGHT"	"RIGHT"	426.384399999961	1350.0000027	n/a	n/a	n/a	n/a	n/a	n/a	n/a	"2020-12-23 13:48:52.539809"	"2020-12-23 13:48:53.174298"	100	5.93057745
"S201223"	"Response_Inhibition"	"LEFT"	"LEFT"	630.7726	1416.6666695	n/a	n/a	n/a	n/a	n/a	n/a	n/a	"2020-12-23 13:48:54.599762"	"2020-12-23 13:48:55.438058"	101	5.93057745
"S201223"	"Response_Inhibition"	"LEFT"	"LEFT"	663.997300000005	1000.000002	n/a	n/a	n/a	n/a	n/a	n/a	n/a	"2020-12-23 13:48:56.446406"	"2020-12-23 13:48:57.318042"	102	5.93057745
"S201223"	"Response_Inhibition"	"LEFT"	"Time_Max_Exceeded"	1500.05076719997	500.000001	n/a	n/a	n/a	n/a	n/a	n/a	n/a	"2020-12-23 13:48:57.827295"	"2020-12-23 13:48:59.330529"	103	5.93057745
"S201223"	"Response_Inhibition"	"LEFT"	"Time_Max_Exceeded"	1500.08190020003	1250.0000025	n/a	n/a	n/a	n/a	n/a	n/a	n/a	"2020-12-23 13:49:00.590390"	"2020-12-23 13:49:02.093715"	104	5.93057745
"S201223"	"Response_Inhibition"	"LEFT"	"LEFT"	562.457300000005	1316.6666693	n/a	n/a	n/a	n/a	n/a	n/a	n/a	"2020-12-23 13:49:03.420170"	"2020-12-23 13:49:04.190718"	105	5.93057745
"S201223"	"Response_Inhibition"	"LEFT"	"LEFT"	430.367100000012	1016.6666687	n/a	n/a	n/a	n/a	n/a	n/a	n/a	"2020-12-23 13:49:05.215589"	"2020-12-23 13:49:05.853582"	106	5.93057745
"S201223"	"Response_Inhibition"	"LEFT"	"LEFT"	450.770000000034	1300.0000026	n/a	n/a	n/a	n/a	n/a	n/a	n/a	"2020-12-23 13:49:07.163641"	"2020-12-23 13:49:07.821991"	107	5.93057745
"S201223"	"Response_Inhibition"	"RIGHT"	"Time_Max_Exceeded"	1500.06056670001	883.3333351	n/a	n/a	n/a	n/a	n/a	n/a	n/a	"2020-12-23 13:49:08.715647"	"2020-12-23 13:49:10.218835"	108	5.93057745
"S201223"	"Response_Inhibition"	"LEFT"	"LEFT"	496.665899999925	1033.3333354	n/a	n/a	n/a	n/a	n/a	n/a	n/a	"2020-12-23 13:49:11.261904"	"2020-12-23 13:49:11.966179"	109	5.93057745
"S201223"	"Response_Inhibition"	"RIGHT"	"RIGHT"	577.010099999939	1166.666669	n/a	n/a	n/a	n/a	n/a	n/a	n/a	"2020-12-23 13:49:13.141093"	"2020-12-23 13:49:13.926565"	110	5.93057745
"S201223"	"Response_Inhibition"	"RIGHT"	"RIGHT"	545.190299999945	1150.0000023	n/a	n/a	n/a	n/a	n/a	n/a	n/a	"2020-12-23 13:49:15.084585"	"2020-12-23 13:49:15.838017"	111	5.93057745
"S201223"	"Response_Inhibition"	"RIGHT"	"Time_Max_Exceeded"	1500.05643390008	500.000001	n/a	n/a	n/a	n/a	n/a	n/a	n/a	"2020-12-23 13:49:16.347641"	"2020-12-23 13:49:17.850843"	112	5.93057745
"S201223"	"Response_Inhibition"	"RIGHT"	"Time_Max_Exceeded"	1500.04753369998	983.3333353	n/a	n/a	n/a	n/a	n/a	n/a	n/a	"2020-12-23 13:49:18.843841"	"2020-12-23 13:49:20.347131"	113	5.93057745
"S201223"	"Response_Inhibition"	"LEFT"	"Time_Max_Exceeded"	1500.05073339999	566.6666678	n/a	n/a	n/a	n/a	n/a	n/a	n/a	"2020-12-23 13:49:20.923547"	"2020-12-23 13:49:22.427286"	114	5.93057745
"S201223"	"Response_Inhibition"	"LEFT"	"LEFT"	989.326000000005	716.6666681	n/a	n/a	n/a	n/a	n/a	n/a	n/a	"2020-12-23 13:49:23.153381"	"2020-12-23 13:49:24.350932"	115	5.93057745
"S201223"	"Response_Inhibition"	"RIGHT"	"Time_Max_Exceeded"	1500.06546679996	616.6666679	n/a	n/a	n/a	n/a	n/a	n/a	n/a	"2020-12-23 13:49:24.976992"	"2020-12-23 13:49:26.480447"	116	5.93057745
"S201223"	"Response_Inhibition"	"LEFT"	"LEFT"	479.734033900027	850.0000017	n/a	n/a	n/a	n/a	n/a	n/a	n/a	"2020-12-23 13:49:27.339751"	"2020-12-23 13:49:28.029680"	117	5.93057745
"S201223"	"Response_Inhibition"	"RIGHT"	"RIGHT"	605.673299999921	633.3333346	n/a	n/a	n/a	n/a	n/a	n/a	n/a	"2020-12-23 13:49:28.672469"	"2020-12-23 13:49:29.486660"	118	5.93057745
"S201223"	"Response_Inhibition"	"RIGHT"	"RIGHT"	395.639600000095	1283.3333359	n/a	n/a	n/a	n/a	n/a	n/a	n/a	"2020-12-23 13:49:30.778660"	"2020-12-23 13:49:31.382150"	119	5.93057745
"S201223"	"Response_Inhibition"	"LEFT"	"LEFT"	661.725600000068	1050.0000021	n/a	n/a	n/a	n/a	n/a	n/a	n/a	"2020-12-23 13:49:32.440612"	"2020-12-23 13:49:33.310893"	120	5.93057745
"S201223"	"Response_Inhibition"	"LEFT"	"LEFT"	621.862499999907	600.0000012	n/a	n/a	n/a	n/a	n/a	n/a	n/a	"2020-12-23 13:49:33.920880"	"2020-12-23 13:49:34.750852"	121	5.93057745
"S201223"	"Response_Inhibition"	"LEFT"	"LEFT"	670.234700000037	816.6666683	n/a	n/a	n/a	n/a	n/a	n/a	n/a	"2020-12-23 13:49:35.575734"	"2020-12-23 13:49:36.454101"	122	5.93057745
"S201223"	"Response_Inhibition"	"RIGHT"	"Time_Max_Exceeded"	1500.06123349996	783.3333349	n/a	n/a	n/a	n/a	n/a	n/a	n/a	"2020-12-23 13:49:37.245532"	"2020-12-23 13:49:38.749798"	123	5.93057745
"S201223"	"Response_Inhibition"	"LEFT"	"LEFT"	544.491300000004	783.3333349	n/a	n/a	n/a	n/a	n/a	n/a	n/a	"2020-12-23 13:49:39.541714"	"2020-12-23 13:49:40.294772"	124	5.93057745
"S201223"	"Response_Inhibition"	"LEFT"	"LEFT"	620.839300000057	1466.6666696	n/a	n/a	n/a	n/a	n/a	n/a	n/a	"2020-12-23 13:49:41.769620"	"2020-12-23 13:49:42.598977"	125	5.93057745
"S201223"	"Response_Inhibition"	"RIGHT"	"RIGHT"	679.458100000033	583.3333345	n/a	n/a	n/a	n/a	n/a	n/a	n/a	"2020-12-23 13:49:43.191062"	"2020-12-23 13:49:44.078567"	126	5.93057745
"S201223"	"Response_Inhibition"	"LEFT"	"LEFT"	681.450699999914	533.3333344	n/a	n/a	n/a	n/a	n/a	n/a	n/a	"2020-12-23 13:49:44.620804"	"2020-12-23 13:49:45.509212"	127	5.93057745
"S201223"	"Response_Inhibition"	"LEFT"	"LEFT"	637.784900000042	1266.6666692	n/a	n/a	n/a	n/a	n/a	n/a	n/a	"2020-12-23 13:49:46.784195"	"2020-12-23 13:49:47.630369"	128	5.93057745
"S201223"	"Response_Inhibition"	"RIGHT"	"RIGHT"	384.734600000002	950.0000019	n/a	n/a	n/a	n/a	n/a	n/a	n/a	"2020-12-23 13:49:48.589136"	"2020-12-23 13:49:49.182204"	129	5.93057745
"S201223"	"Response_Inhibition"	"RIGHT"	"RIGHT"	387.57420030004	1416.6666695	n/a	n/a	n/a	n/a	n/a	n/a	n/a	"2020-12-23 13:49:50.607298"	"2020-12-23 13:49:51.206793"	130	5.93057745
"S201223"	"Response_Inhibition"	"LEFT"	"LEFT"	400.746799999979	750.0000015	n/a	n/a	n/a	n/a	n/a	n/a	n/a	"2020-12-23 13:49:51.965812"	"2020-12-23 13:49:52.574730"	131	5.93057745
"S201223"	"Response_Inhibition"	"LEFT"	"LEFT"	525.923199999966	833.333335	n/a	n/a	n/a	n/a	n/a	n/a	n/a	"2020-12-23 13:49:53.416439"	"2020-12-23 13:49:54.150698"	132	5.93057745
"S201223"	"Response_Inhibition"	"LEFT"	"LEFT"	383.689599999911	983.3333353	n/a	n/a	n/a	n/a	n/a	n/a	n/a	"2020-12-23 13:49:55.142554"	"2020-12-23 13:49:55.734587"	133	5.93057745
"S201223"	"Response_Inhibition"	"RIGHT"	"RIGHT"	690.459099999998	1316.6666693	n/a	n/a	n/a	n/a	n/a	n/a	n/a	"2020-12-23 13:49:57.059730"	"2020-12-23 13:49:57.958863"	134	5.93057745
"S201223"	"Response_Inhibition"	"LEFT"	"Time_Max_Exceeded"	1500.07013360001	583.3333345	n/a	n/a	n/a	n/a	n/a	n/a	n/a	"2020-12-23 13:49:58.550380"	"2020-12-23 13:50:00.054715"	135	5.93057745
"S201223"	"Response_Inhibition"	"RIGHT"	"Time_Max_Exceeded"	1500.07703339994	566.6666678	n/a	n/a	n/a	n/a	n/a	n/a	n/a	"2020-12-23 13:50:00.630052"	"2020-12-23 13:50:02.133832"	136	5.93057745
"S201223"	"Response_Inhibition"	"LEFT"	"LEFT"	594.673400000033	533.3333344	n/a	n/a	n/a	n/a	n/a	n/a	n/a	"2020-12-23 13:50:02.675354"	"2020-12-23 13:50:03.478211"	137	5.93057745
"S201223"	"Response_Inhibition"	"RIGHT"	"RIGHT"	357.746166900069	1366.6666694	n/a	n/a	n/a	n/a	n/a	n/a	n/a	"2020-12-23 13:50:04.853058"	"2020-12-23 13:50:05.422122"	138	5.93057745
"S201223"	"Response_Inhibition"	"RIGHT"	"RIGHT"	669.197599999961	1050.0000021	n/a	n/a	n/a	n/a	n/a	n/a	n/a	"2020-12-23 13:50:06.481028"	"2020-12-23 13:50:07.358340"	139	5.93057745
"S201223"	"Response_Inhibition"	"RIGHT"	"RIGHT"	546.311400000036	733.3333348	n/a	n/a	n/a	n/a	n/a	n/a	n/a	"2020-12-23 13:50:08.100390"	"2020-12-23 13:50:08.854615"	140	5.93057745
"S201223"	"Response_Inhibition"	"RIGHT"	"RIGHT"	556.999700000006	1033.3333354	n/a	n/a	n/a	n/a	n/a	n/a	n/a	"2020-12-23 13:50:09.897324"	"2020-12-23 13:50:10.662988"	141	5.93057745
"S201223"	"Response_Inhibition"	"LEFT"	"LEFT"	884.177799999975	666.666668	n/a	n/a	n/a	n/a	n/a	n/a	n/a	"2020-12-23 13:50:11.338215"	"2020-12-23 13:50:12.430482"	142	5.93057745
"S201223"	"Response_Inhibition"	"RIGHT"	"RIGHT"	1010.61140000002	716.6666681	n/a	n/a	n/a	n/a	n/a	n/a	n/a	"2020-12-23 13:50:13.155607"	"2020-12-23 13:50:14.375489"	143	5.93057745
"S201223"	"Response_Inhibition"	"LEFT"	"LEFT"	776.119999999992	1183.3333357	n/a	n/a	n/a	n/a	n/a	n/a	n/a	"2020-12-23 13:50:15.567265"	"2020-12-23 13:50:16.551000"	144	5.93057745
"S201223"	"Response_Inhibition"	"RIGHT"	"RIGHT"	895.391600000039	1383.3333361	n/a	n/a	n/a	n/a	n/a	n/a	n/a	"2020-12-23 13:50:17.943021"	"2020-12-23 13:50:19.046598"	145	5.93057745
"S201223"	"Response_Inhibition"	"LEFT"	"Time_Max_Exceeded"	1500.09899999998	966.6666686	n/a	n/a	n/a	n/a	n/a	n/a	n/a	"2020-12-23 13:50:20.021909"	"2020-12-23 13:50:21.522622"	146	5.93057745
"S201223"	"Response_Inhibition"	"RIGHT"	"RIGHT"	595.151199999918	1000.000002	n/a	n/a	n/a	n/a	n/a	n/a	n/a	"2020-12-23 13:50:22.530978"	"2020-12-23 13:50:23.334524"	147	5.93057745
"S201223"	"Response_Inhibition"	"RIGHT"	"Time_Max_Exceeded"	1500.05766700001	866.6666684	n/a	n/a	n/a	n/a	n/a	n/a	n/a	"2020-12-23 13:50:24.209371"	"2020-12-23 13:50:25.713454"	148	5.93057745
"S201223"	"Response_Inhibition"	"LEFT"	"LEFT"	570.260200000007	1450.0000029	n/a	n/a	n/a	n/a	n/a	n/a	n/a	"2020-12-23 13:50:27.171641"	"2020-12-23 13:50:27.949713"	149	5.93057745
"S201223"	"Response_Inhibition"	"RIGHT"	"RIGHT"	409.627300000011	733.3333348	n/a	n/a	n/a	n/a	n/a	n/a	n/a	"2020-12-23 13:50:28.692894"	"2020-12-23 13:50:29.310309"	150	5.93057745
"S201223"	"Response_Inhibition"	"LEFT"	"Time_Max_Exceeded"	1500.05796709995	900.0000018	n/a	n/a	n/a	n/a	n/a	n/a	n/a	"2020-12-23 13:50:30.218942"	"2020-12-23 13:50:31.722685"	151	5.93057745
"S201223"	"Response_Inhibition"	"LEFT"	"LEFT"	795.828799999981	1150.0000023	n/a	n/a	n/a	n/a	n/a	n/a	n/a	"2020-12-23 13:50:32.882347"	"2020-12-23 13:50:33.885338"	152	5.93057745
"S201223"	"Response_Inhibition"	"RIGHT"	"RIGHT"	530.558699999915	1133.3333356	n/a	n/a	n/a	n/a	n/a	n/a	n/a	"2020-12-23 13:50:35.027749"	"2020-12-23 13:50:35.766538"	153	5.93057745
"S201223"	"Response_Inhibition"	"RIGHT"	"RIGHT"	866.410000000087	900.0000018	n/a	n/a	n/a	n/a	n/a	n/a	n/a	"2020-12-23 13:50:36.676251"	"2020-12-23 13:50:37.749725"	154	5.93057745
"S201223"	"Response_Inhibition"	"LEFT"	"LEFT"	694.048400000042	650.0000013	n/a	n/a	n/a	n/a	n/a	n/a	n/a	"2020-12-23 13:50:38.407966"	"2020-12-23 13:50:39.310555"	155	5.93057745
"S201223"	"Response_Inhibition"	"RIGHT"	"RIGHT"	551.170399999933	800.0000016	n/a	n/a	n/a	n/a	n/a	n/a	n/a	"2020-12-23 13:50:40.119550"	"2020-12-23 13:50:40.878621"	156	5.93057745
"S201223"	"Response_Inhibition"	"LEFT"	"LEFT"	558.18649999992	1216.6666691	n/a	n/a	n/a	n/a	n/a	n/a	n/a	"2020-12-23 13:50:42.103876"	"2020-12-23 13:50:42.869579"	157	5.93057745
"S201223"	"Response_Inhibition"	"RIGHT"	"Time_Max_Exceeded"	1500.05106690007	1200.0000024	n/a	n/a	n/a	n/a	n/a	n/a	n/a	"2020-12-23 13:50:44.077347"	"2020-12-23 13:50:45.581088"	158	5.93057745
"S201223"	"Response_Inhibition"	"RIGHT"	"RIGHT"	674.776100000031	916.6666685	n/a	n/a	n/a	n/a	n/a	n/a	n/a	"2020-12-23 13:50:46.507358"	"2020-12-23 13:50:47.390776"	159	5.93057745
"S201223"	"Response_Inhibition"	"RIGHT"	"Time_Max_Exceeded"	1500.0537668	1400.0000028	n/a	n/a	n/a	n/a	n/a	n/a	n/a	"2020-12-23 13:50:48.799074"	"2020-12-23 13:50:50.302535"	160	5.93057745
"S201223"	"Response_Selection"	"LEFT"	"LEFT"	355.688499999985	1266.6666692	n/a	n/a	n/a	n/a	n/a	n/a	n/a	"2020-12-23 13:42:54.594566"	"2020-12-23 13:42:55.158091"	1	2.7885176
"S201223"	"Response_Selection"	"RIGHT"	"RIGHT"	266.064699999959	533.3333344	n/a	n/a	n/a	n/a	n/a	n/a	n/a	"2020-12-23 13:42:55.699974"	"2020-12-23 13:42:56.174483"	2	2.7885176
"S201223"	"Response_Selection"	"RIGHT"	"RIGHT"	250.874699999997	500.000001	n/a	n/a	n/a	n/a	n/a	n/a	n/a	"2020-12-23 13:42:56.683029"	"2020-12-23 13:42:57.143735"	3	2.7885176
"S201223"	"Response_Selection"	"RIGHT"	"RIGHT"	280.252899999994	550.0000011	n/a	n/a	n/a	n/a	n/a	n/a	n/a	"2020-12-23 13:42:57.702214"	"2020-12-23 13:42:58.191087"	4	2.7885176
"S201223"	"Response_Selection"	"LEFT"	"LEFT"	243.166200000019	1066.6666688	n/a	n/a	n/a	n/a	n/a	n/a	n/a	"2020-12-23 13:42:59.267383"	"2020-12-23 13:42:59.718137"	5	2.7885176
"S201223"	"Response_Selection"	"LEFT"	"LEFT"	267.59229999999	1300.0000026	n/a	n/a	n/a	n/a	n/a	n/a	n/a	"2020-12-23 13:43:01.026574"	"2020-12-23 13:43:01.502960"	6	2.7885176
"S201223"	"Response_Selection"	"LEFT"	"LEFT"	274.455399999965	1500.000003	n/a	n/a	n/a	n/a	n/a	n/a	n/a	"2020-12-23 13:43:03.011560"	"2020-12-23 13:43:03.494542"	7	2.7885176
"S201223"	"Response_Selection"	"LEFT"	"LEFT"	314.383099999986	916.6666685	n/a	n/a	n/a	n/a	n/a	n/a	n/a	"2020-12-23 13:43:04.419678"	"2020-12-23 13:43:04.943064"	8	2.7885176
"S201223"	"Response_Selection"	"RIGHT"	"RIGHT"	276.627899999994	1250.0000025	n/a	n/a	n/a	n/a	n/a	n/a	n/a	"2020-12-23 13:43:06.201702"	"2020-12-23 13:43:06.685612"	9	2.7885176
"S201223"	"Response_Selection"	"LEFT"	"LEFT"	280.083600000012	800.0000016	n/a	n/a	n/a	n/a	n/a	n/a	n/a	"2020-12-23 13:43:07.494410"	"2020-12-23 13:43:07.982679"	10	2.7885176
"S201223"	"Response_Selection"	"LEFT"	"LEFT"	329.11329999996	750.0000015	n/a	n/a	n/a	n/a	n/a	n/a	n/a	"2020-12-23 13:43:08.741030"	"2020-12-23 13:43:09.279404"	11	2.7885176
"S201223"	"Response_Selection"	"RIGHT"	"RIGHT"	256.475799999976	916.6666685	n/a	n/a	n/a	n/a	n/a	n/a	n/a	"2020-12-23 13:43:10.205940"	"2020-12-23 13:43:10.669546"	12	2.7885176
"S201223"	"Response_Selection"	"RIGHT"	"RIGHT"	305.288799999971	1166.666669	n/a	n/a	n/a	n/a	n/a	n/a	n/a	"2020-12-23 13:43:11.844785"	"2020-12-23 13:43:12.357757"	13	2.7885176
"S201223"	"Response_Selection"	"LEFT"	"LEFT"	241.052700000012	1166.666669	n/a	n/a	n/a	n/a	n/a	n/a	n/a	"2020-12-23 13:43:13.533135"	"2020-12-23 13:43:13.982315"	14	2.7885176
"S201223"	"Response_Selection"	"RIGHT"	"RIGHT"	324.162999999999	650.0000013	n/a	n/a	n/a	n/a	n/a	n/a	n/a	"2020-12-23 13:43:14.642230"	"2020-12-23 13:43:15.174811"	15	2.7885176
"S201223"	"Response_Selection"	"LEFT"	"LEFT"	297.178299999985	533.3333344	n/a	n/a	n/a	n/a	n/a	n/a	n/a	"2020-12-23 13:43:15.717522"	"2020-12-23 13:43:16.222584"	16	2.7885176
"S201223"	"Response_Selection"	"RIGHT"	"RIGHT"	237.548000000004	833.333335	n/a	n/a	n/a	n/a	n/a	n/a	n/a	"2020-12-23 13:43:17.064809"	"2020-12-23 13:43:17.510635"	17	2.7885176
"S201223"	"Response_Selection"	"LEFT"	"LEFT"	271.389700000043	600.0000012	n/a	n/a	n/a	n/a	n/a	n/a	n/a	"2020-12-23 13:43:18.118583"	"2020-12-23 13:43:18.598553"	18	2.7885176
"S201223"	"Response_Selection"	"RIGHT"	"RIGHT"	265.658499999972	1133.3333356	n/a	n/a	n/a	n/a	n/a	n/a	n/a	"2020-12-23 13:43:19.741101"	"2020-12-23 13:43:20.214786"	19	2.7885176
"S201223"	"Response_Selection"	"LEFT"	"LEFT"	286.638700000026	583.3333345	n/a	n/a	n/a	n/a	n/a	n/a	n/a	"2020-12-23 13:43:20.807707"	"2020-12-23 13:43:21.302212"	20	2.7885176
"S201223"	"Response_Selection"	"LEFT"	"LEFT"	328.527000000008	1366.6666694	n/a	n/a	n/a	n/a	n/a	n/a	n/a	"2020-12-23 13:43:22.677355"	"2020-12-23 13:43:23.214497"	21	2.7885176
"S201223"	"Response_Selection"	"RIGHT"	"RIGHT"	244.979699999988	1450.0000029	n/a	n/a	n/a	n/a	n/a	n/a	n/a	"2020-12-23 13:43:24.673210"	"2020-12-23 13:43:25.126514"	22	2.7885176
"S201223"	"Response_Selection"	"RIGHT"	"RIGHT"	246.210599999984	1033.3333354	n/a	n/a	n/a	n/a	n/a	n/a	n/a	"2020-12-23 13:43:26.168240"	"2020-12-23 13:43:26.622912"	23	2.7885176
"S201223"	"Response_Selection"	"LEFT"	"LEFT"	301.269600000012	833.333335	n/a	n/a	n/a	n/a	n/a	n/a	n/a	"2020-12-23 13:43:27.465435"	"2020-12-23 13:43:27.974392"	24	2.7885176
"S201223"	"Response_Selection"	"LEFT"	"LEFT"	274.336199999993	733.3333348	n/a	n/a	n/a	n/a	n/a	n/a	n/a	"2020-12-23 13:43:28.715733"	"2020-12-23 13:43:29.198187"	25	2.7885176
"S201223"	"Response_Selection"	"LEFT"	"LEFT"	305.712900000003	1316.6666693	n/a	n/a	n/a	n/a	n/a	n/a	n/a	"2020-12-23 13:43:30.524229"	"2020-12-23 13:43:31.037516"	26	2.7885176
"S201223"	"Response_Selection"	"RIGHT"	"RIGHT"	272.636300000045	983.3333353	n/a	n/a	n/a	n/a	n/a	n/a	n/a	"2020-12-23 13:43:32.029965"	"2020-12-23 13:43:32.509744"	27	2.7885176
"S201223"	"Response_Selection"	"LEFT"	"LEFT"	312.656599999968	983.3333353	n/a	n/a	n/a	n/a	n/a	n/a	n/a	"2020-12-23 13:43:33.501132"	"2020-12-23 13:43:34.022836"	28	2.7885176
"S201223"	"Response_Selection"	"LEFT"	"LEFT"	296.734099999981	933.3333352	n/a	n/a	n/a	n/a	n/a	n/a	n/a	"2020-12-23 13:43:34.965778"	"2020-12-23 13:43:35.471331"	29	2.7885176
"S201223"	"Response_Selection"	"RIGHT"	"RIGHT"	249.933800000008	1116.6666689	n/a	n/a	n/a	n/a	n/a	n/a	n/a	"2020-12-23 13:43:36.596476"	"2020-12-23 13:43:37.054863"	30	2.7885176
"S201223"	"Response_Selection"	"RIGHT"	"RIGHT"	303.724400000021	583.3333345	n/a	n/a	n/a	n/a	n/a	n/a	n/a	"2020-12-23 13:43:37.647027"	"2020-12-23 13:43:38.158190"	31	2.7885176
"S201223"	"Response_Selection"	"LEFT"	"LEFT"	358.14529999999	1033.3333354	n/a	n/a	n/a	n/a	n/a	n/a	n/a	"2020-12-23 13:43:39.200008"	"2020-12-23 13:43:39.766823"	32	2.7885176
"S201223"	"Response_Selection"	"LEFT"	"LEFT"	260.679000000039	650.0000013	n/a	n/a	n/a	n/a	n/a	n/a	n/a	"2020-12-23 13:43:40.426096"	"2020-12-23 13:43:40.894865"	33	2.7885176
"S201223"	"Response_Selection"	"RIGHT"	"RIGHT"	235.537899999997	1083.3333355	n/a	n/a	n/a	n/a	n/a	n/a	n/a	"2020-12-23 13:43:41.986624"	"2020-12-23 13:43:42.429890"	34	2.7885176
"S201223"	"Response_Selection"	"RIGHT"	"RIGHT"	225.246400000003	966.6666686	n/a	n/a	n/a	n/a	n/a	n/a	n/a	"2020-12-23 13:43:43.404856"	"2020-12-23 13:43:43.838549"	35	2.7885176
"S201223"	"Response_Selection"	"RIGHT"	"RIGHT"	260.564100000011	1466.6666696	n/a	n/a	n/a	n/a	n/a	n/a	n/a	"2020-12-23 13:43:45.313515"	"2020-12-23 13:43:45.781303"	36	2.7885176
"S201223"	"Response_Selection"	"RIGHT"	"RIGHT"	356.561699999986	700.0000014	n/a	n/a	n/a	n/a	n/a	n/a	n/a	"2020-12-23 13:43:46.489387"	"2020-12-23 13:43:47.054824"	37	2.7885176
"S201223"	"Response_Selection"	"RIGHT"	"RIGHT"	254.231000000004	1216.6666691	n/a	n/a	n/a	n/a	n/a	n/a	n/a	"2020-12-23 13:43:48.279631"	"2020-12-23 13:43:48.741427"	38	2.7885176
"S201223"	"Response_Selection"	"LEFT"	"LEFT"	300.508499999978	700.0000014	n/a	n/a	n/a	n/a	n/a	n/a	n/a	"2020-12-23 13:43:49.449385"	"2020-12-23 13:43:49.958468"	39	2.7885176
"S201223"	"Response_Selection"	"LEFT"	"LEFT"	277.283400000044	1250.0000025	n/a	n/a	n/a	n/a	n/a	n/a	n/a	"2020-12-23 13:43:51.217244"	"2020-12-23 13:43:51.702412"	40	2.7885176
"S201223"	"Response_Selection"	"LEFT"	"LEFT"	278.939600000001	1016.6666687	n/a	n/a	n/a	n/a	n/a	n/a	n/a	"2020-12-23 13:43:52.727709"	"2020-12-23 13:43:53.214911"	41	2.7885176
"S201223"	"Response_Selection"	"LEFT"	"LEFT"	310.658899999964	1400.0000028	n/a	n/a	n/a	n/a	n/a	n/a	n/a	"2020-12-23 13:43:54.623623"	"2020-12-23 13:43:55.142929"	42	2.7885176
"S201223"	"Response_Selection"	"LEFT"	"LEFT"	302.235199999984	1416.6666695	n/a	n/a	n/a	n/a	n/a	n/a	n/a	"2020-12-23 13:43:56.567860"	"2020-12-23 13:43:57.078245"	43	2.7885176
"S201223"	"Response_Selection"	"RIGHT"	"RIGHT"	327.13769999998	800.0000016	n/a	n/a	n/a	n/a	n/a	n/a	n/a	"2020-12-23 13:43:57.887547"	"2020-12-23 13:43:58.422176"	44	2.7885176
"S201223"	"Response_Selection"	"LEFT"	"LEFT"	290.045499999962	1133.3333356	n/a	n/a	n/a	n/a	n/a	n/a	n/a	"2020-12-23 13:43:59.563835"	"2020-12-23 13:44:00.062321"	45	2.7885176
"S201223"	"Response_Selection"	"RIGHT"	"RIGHT"	292.498500000022	866.6666684	n/a	n/a	n/a	n/a	n/a	n/a	n/a	"2020-12-23 13:44:00.937358"	"2020-12-23 13:44:01.438543"	46	2.7885176
"S201223"	"Response_Selection"	"LEFT"	"LEFT"	246.992999999975	1200.0000024	n/a	n/a	n/a	n/a	n/a	n/a	n/a	"2020-12-23 13:44:02.647660"	"2020-12-23 13:44:03.101445"	47	2.7885176
"S201223"	"Response_Selection"	"RIGHT"	"RIGHT"	274.766100000022	733.3333348	n/a	n/a	n/a	n/a	n/a	n/a	n/a	"2020-12-23 13:44:03.843315"	"2020-12-23 13:44:04.326615"	48	2.7885176
"S201223"	"Response_Selection"	"LEFT"	"LEFT"	273.129500000039	550.0000011	n/a	n/a	n/a	n/a	n/a	n/a	n/a	"2020-12-23 13:44:04.884989"	"2020-12-23 13:44:05.366195"	49	2.7885176
"S201223"	"Response_Selection"	"LEFT"	"LEFT"	332.694899999979	866.6666684	n/a	n/a	n/a	n/a	n/a	n/a	n/a	"2020-12-23 13:44:06.241541"	"2020-12-23 13:44:06.782385"	50	2.7885176
"S201223"	"Response_Selection"	"RIGHT"	"RIGHT"	292.929300000026	1066.6666688	n/a	n/a	n/a	n/a	n/a	n/a	n/a	"2020-12-23 13:44:07.857736"	"2020-12-23 13:44:08.357181"	51	2.7885176
"S201223"	"Response_Selection"	"RIGHT"	"RIGHT"	352.812900000004	783.3333349	n/a	n/a	n/a	n/a	n/a	n/a	n/a	"2020-12-23 13:44:09.149679"	"2020-12-23 13:44:09.710541"	52	2.7885176
"S201223"	"Response_Selection"	"LEFT"	"LEFT"	355.048000000011	1083.3333355	n/a	n/a	n/a	n/a	n/a	n/a	n/a	"2020-12-23 13:44:10.803135"	"2020-12-23 13:44:11.366301"	53	2.7885176
"S201223"	"Response_Selection"	"RIGHT"	"RIGHT"	306.134499999985	933.3333352	n/a	n/a	n/a	n/a	n/a	n/a	n/a	"2020-12-23 13:44:12.308281"	"2020-12-23 13:44:12.821944"	54	2.7885176
"S201223"	"Response_Selection"	"RIGHT"	"RIGHT"	315.836199999978	1500.000003	n/a	n/a	n/a	n/a	n/a	n/a	n/a	"2020-12-23 13:44:14.330752"	"2020-12-23 13:44:14.854483"	55	2.7885176
"S201223"	"Response_Selection"	"RIGHT"	"RIGHT"	535.448000000031	600.0000012	n/a	n/a	n/a	n/a	n/a	n/a	n/a	"2020-12-23 13:44:15.462605"	"2020-12-23 13:44:16.206648"	56	2.7885176
"S201223"	"Response_Selection"	"RIGHT"	"RIGHT"	401.185499999997	1350.0000027	n/a	n/a	n/a	n/a	n/a	n/a	n/a	"2020-12-23 13:44:17.564685"	"2020-12-23 13:44:18.174044"	57	2.7885176
"S201223"	"Response_Selection"	"RIGHT"	"RIGHT"	252.513800000031	883.3333351	n/a	n/a	n/a	n/a	n/a	n/a	n/a	"2020-12-23 13:44:19.065442"	"2020-12-23 13:44:19.526216"	58	2.7885176
"S201223"	"Response_Selection"	"RIGHT"	"RIGHT"	243.620399999998	1300.0000026	n/a	n/a	n/a	n/a	n/a	n/a	n/a	"2020-12-23 13:44:20.834488"	"2020-12-23 13:44:21.286976"	59	2.7885176
"S201223"	"Response_Selection"	"RIGHT"	"RIGHT"	280.646999999988	750.0000015	n/a	n/a	n/a	n/a	n/a	n/a	n/a	"2020-12-23 13:44:22.045457"	"2020-12-23 13:44:22.534255"	60	2.7885176
"S201223"	"Response_Selection"	"RIGHT"	"RIGHT"	272.877100000017	1366.6666694	n/a	n/a	n/a	n/a	n/a	n/a	n/a	"2020-12-23 13:44:23.909366"	"2020-12-23 13:44:24.390245"	61	2.7885176
"S201223"	"Response_Selection"	"LEFT"	"LEFT"	317.036900000005	1450.0000029	n/a	n/a	n/a	n/a	n/a	n/a	n/a	"2020-12-23 13:44:25.849619"	"2020-12-23 13:44:26.374871"	62	2.7885176
"S201223"	"Response_Selection"	"RIGHT"	"RIGHT"	363.37960000003	683.3333347	n/a	n/a	n/a	n/a	n/a	n/a	n/a	"2020-12-23 13:44:27.066637"	"2020-12-23 13:44:27.638108"	63	2.7885176
"S201223"	"Response_Selection"	"RIGHT"	"RIGHT"	262.810800000011	1416.6666695	n/a	n/a	n/a	n/a	n/a	n/a	n/a	"2020-12-23 13:44:29.063859"	"2020-12-23 13:44:29.534402"	64	2.7885176
"S201223"	"Response_Selection"	"LEFT"	"LEFT"	302.275699999996	633.3333346	n/a	n/a	n/a	n/a	n/a	n/a	n/a	"2020-12-23 13:44:30.176317"	"2020-12-23 13:44:30.686939"	65	2.7885176
"S201223"	"Response_Selection"	"LEFT"	"LEFT"	350.401300000044	1216.6666691	n/a	n/a	n/a	n/a	n/a	n/a	n/a	"2020-12-23 13:44:31.912035"	"2020-12-23 13:44:32.470261"	66	2.7885176
"S201223"	"Response_Selection"	"RIGHT"	"RIGHT"	331.000500000016	1316.6666693	n/a	n/a	n/a	n/a	n/a	n/a	n/a	"2020-12-23 13:44:33.795267"	"2020-12-23 13:44:34.334855"	67	2.7885176
"S201223"	"Response_Selection"	"LEFT"	"LEFT"	304.788099999996	1350.0000027	n/a	n/a	n/a	n/a	n/a	n/a	n/a	"2020-12-23 13:44:35.693709"	"2020-12-23 13:44:36.206341"	68	2.7885176
"S201223"	"Response_Selection"	"LEFT"	"LEFT"	317.104299999983	1466.6666696	n/a	n/a	n/a	n/a	n/a	n/a	n/a	"2020-12-23 13:44:37.681288"	"2020-12-23 13:44:38.206881"	69	2.7885176
"S201223"	"Response_Selection"	"LEFT"	"LEFT"	303.395499999965	783.3333349	n/a	n/a	n/a	n/a	n/a	n/a	n/a	"2020-12-23 13:44:38.998907"	"2020-12-23 13:44:39.509697"	70	2.7885176
"S201223"	"Response_Selection"	"RIGHT"	"RIGHT"	310.493599999973	633.3333346	n/a	n/a	n/a	n/a	n/a	n/a	n/a	"2020-12-23 13:44:40.151548"	"2020-12-23 13:44:40.671269"	71	2.7885176
"S201223"	"Response_Selection"	"LEFT"	"LEFT"	290.782100000001	683.3333347	n/a	n/a	n/a	n/a	n/a	n/a	n/a	"2020-12-23 13:44:41.363735"	"2020-12-23 13:44:41.863588"	72	2.7885176
"S201223"	"Response_Selection"	"RIGHT"	"RIGHT"	251.187100000038	1266.6666692	n/a	n/a	n/a	n/a	n/a	n/a	n/a	"2020-12-23 13:44:43.139342"	"2020-12-23 13:44:43.598418"	73	2.7885176
"S201223"	"Response_Selection"	"RIGHT"	"RIGHT"	302.628500000026	1016.6666687	n/a	n/a	n/a	n/a	n/a	n/a	n/a	"2020-12-23 13:44:44.624091"	"2020-12-23 13:44:45.134724"	74	2.7885176
"S201223"	"Response_Selection"	"LEFT"	"LEFT"	280.39339999998	966.6666686	n/a	n/a	n/a	n/a	n/a	n/a	n/a	"2020-12-23 13:44:46.110126"	"2020-12-23 13:44:46.598361"	75	2.7885176
"S201223"	"Response_Selection"	"LEFT"	"LEFT"	274.736200000007	1116.6666689	n/a	n/a	n/a	n/a	n/a	n/a	n/a	"2020-12-23 13:44:47.723961"	"2020-12-23 13:44:48.206152"	76	2.7885176
"S201223"	"Response_Selection"	"RIGHT"	"RIGHT"	294.630600000005	1400.0000028	n/a	n/a	n/a	n/a	n/a	n/a	n/a	"2020-12-23 13:44:49.615730"	"2020-12-23 13:44:50.117422"	77	2.7885176
"S201223"	"Response_Selection"	"RIGHT"	"RIGHT"	248.264000000006	1200.0000024	n/a	n/a	n/a	n/a	n/a	n/a	n/a	"2020-12-23 13:44:51.326001"	"2020-12-23 13:44:51.782387"	78	2.7885176
"S201223"	"Response_Selection"	"LEFT"	"LEFT"	475.386000000015	500.000001	n/a	n/a	n/a	n/a	n/a	n/a	n/a	"2020-12-23 13:44:52.291601"	"2020-12-23 13:44:52.974158"	79	2.7885176
"S201223"	"Response_Selection"	"LEFT"	"LEFT"	316.327200000046	883.3333351	n/a	n/a	n/a	n/a	n/a	n/a	n/a	"2020-12-23 13:44:53.865705"	"2020-12-23 13:44:54.390128"	80	2.7885176
