"Participant"	"Task"	"Stimulus_Side"	"Response"	"RT"	"ITI"	"Previous_Response"	"Previous_RT"	"Stop_Signal"	"Stop_Signal_RT"	"Conflict"	"Cue_Response"	"Cue_Response_RT"	"Trial_Onset"	"Trial_End"	"Trial_Order"	"Duration"
"S200207"	"Conflict_Resolution"	"LEFT"	"LEFT"	1065.6596	1466.6666696	n/a	n/a	n/a	n/a	"True"	n/a	n/a	"2020-02-07 11:45:31.307815"	"2020-02-07 11:45:32.582271"	1	6.24245513333333
"S200207"	"Conflict_Resolution"	"LEFT"	"LEFT"	527.809100000013	1316.6666693	n/a	n/a	n/a	n/a	"True"	n/a	n/a	"2020-02-07 11:45:33.918561"	"2020-02-07 11:45:34.654636"	2	6.24245513333333
"S200207"	"Conflict_Resolution"	"LEFT"	"LEFT"	547.468399999957	1416.6666695	n/a	n/a	n/a	n/a	"False"	n/a	n/a	"2020-02-07 11:45:36.090250"	"2020-02-07 11:45:36.846261"	3	6.24245513333333
"S200207"	"Conflict_Resolution"	"LEFT"	"LEFT"	615.173899999945	733.3333348	n/a	n/a	n/a	n/a	"True"	n/a	n/a	"2020-02-07 11:45:37.599263"	"2020-02-07 11:45:38.422364"	4	6.24245513333333
"S200207"	"Conflict_Resolution"	"RIGHT"	"RIGHT"	382.653900000037	983.3333353	n/a	n/a	n/a	n/a	"False"	n/a	n/a	"2020-02-07 11:45:39.423402"	"2020-02-07 11:45:40.014365"	5	6.24245513333333
"S200207"	"Conflict_Resolution"	"RIGHT"	"RIGHT"	375.03270000002	1283.3333359	n/a	n/a	n/a	n/a	"False"	n/a	n/a	"2020-02-07 11:45:41.319357"	"2020-02-07 11:45:41.901844"	6	6.24245513333333
"S200207"	"Conflict_Resolution"	"LEFT"	"LEFT"	401.208200000042	716.6666681	n/a	n/a	n/a	n/a	"False"	n/a	n/a	"2020-02-07 11:45:42.636207"	"2020-02-07 11:45:43.245895"	7	6.24245513333333
"S200207"	"Conflict_Resolution"	"LEFT"	"LEFT"	397.865499999966	1366.6666694	n/a	n/a	n/a	n/a	"False"	n/a	n/a	"2020-02-07 11:45:44.632086"	"2020-02-07 11:45:45.237043"	8	6.24245513333333
"S200207"	"Conflict_Resolution"	"RIGHT"	"RIGHT"	573.402200000032	1216.6666691	n/a	n/a	n/a	n/a	"True"	n/a	n/a	"2020-02-07 11:45:46.472390"	"2020-02-07 11:45:47.254682"	9	6.24245513333333
"S200207"	"Conflict_Resolution"	"RIGHT"	"RIGHT"	424.040499999933	700.0000014	n/a	n/a	n/a	n/a	"True"	n/a	n/a	"2020-02-07 11:45:47.973785"	"2020-02-07 11:45:48.605971"	10	6.24245513333333
"S200207"	"Conflict_Resolution"	"RIGHT"	"RIGHT"	398.407399999996	1316.6666693	n/a	n/a	n/a	n/a	"True"	n/a	n/a	"2020-02-07 11:45:49.943878"	"2020-02-07 11:45:50.550409"	11	6.24245513333333
"S200207"	"Conflict_Resolution"	"LEFT"	"LEFT"	364.18500000002	1200.0000024	n/a	n/a	n/a	n/a	"False"	n/a	n/a	"2020-02-07 11:45:51.769331"	"2020-02-07 11:45:52.341106"	12	6.24245513333333
"S200207"	"Conflict_Resolution"	"LEFT"	"RIGHT"	333.925700000009	633.3333346	n/a	n/a	n/a	n/a	"False"	n/a	n/a	"2020-02-07 11:45:52.991455"	"2020-02-07 11:45:53.534479"	13	6.24245513333333
"S200207"	"Conflict_Resolution"	"RIGHT"	"RIGHT"	370.92419999999	850.0000017	n/a	n/a	n/a	n/a	"False"	n/a	n/a	"2020-02-07 11:45:54.402735"	"2020-02-07 11:45:54.982142"	14	6.24245513333333
"S200207"	"Conflict_Resolution"	"LEFT"	"LEFT"	452.020599999969	816.6666683	n/a	n/a	n/a	n/a	"True"	n/a	n/a	"2020-02-07 11:45:55.818251"	"2020-02-07 11:45:56.477848"	15	6.24245513333333
"S200207"	"Conflict_Resolution"	"LEFT"	"LEFT"	362.528399999974	1266.6666692	n/a	n/a	n/a	n/a	"False"	n/a	n/a	"2020-02-07 11:45:57.763281"	"2020-02-07 11:45:58.333293"	16	6.24245513333333
"S200207"	"Conflict_Resolution"	"LEFT"	"LEFT"	414.835400000015	1166.666669	n/a	n/a	n/a	n/a	"False"	n/a	n/a	"2020-02-07 11:45:59.518955"	"2020-02-07 11:46:00.142447"	17	6.24245513333333
"S200207"	"Conflict_Resolution"	"LEFT"	"LEFT"	502.740900000049	1150.0000023	n/a	n/a	n/a	n/a	"True"	n/a	n/a	"2020-02-07 11:46:01.311117"	"2020-02-07 11:46:02.021023"	18	6.24245513333333
"S200207"	"Conflict_Resolution"	"LEFT"	"LEFT"	382.483699999966	966.6666686	n/a	n/a	n/a	n/a	"False"	n/a	n/a	"2020-02-07 11:46:03.008003"	"2020-02-07 11:46:03.597034"	19	6.24245513333333
"S200207"	"Conflict_Resolution"	"RIGHT"	"RIGHT"	489.673400000015	950.0000019	n/a	n/a	n/a	n/a	"True"	n/a	n/a	"2020-02-07 11:46:04.564502"	"2020-02-07 11:46:05.261801"	20	6.24245513333333
"S200207"	"Conflict_Resolution"	"LEFT"	"LEFT"	388.125700000046	1066.6666688	n/a	n/a	n/a	n/a	"False"	n/a	n/a	"2020-02-07 11:46:06.345559"	"2020-02-07 11:46:06.942297"	21	6.24245513333333
"S200207"	"Conflict_Resolution"	"RIGHT"	"RIGHT"	304.721799999925	1316.6666693	n/a	n/a	n/a	n/a	"False"	n/a	n/a	"2020-02-07 11:46:08.276687"	"2020-02-07 11:46:08.790476"	22	6.24245513333333
"S200207"	"Conflict_Resolution"	"RIGHT"	"RIGHT"	372.535399999947	1416.6666695	n/a	n/a	n/a	n/a	"False"	n/a	n/a	"2020-02-07 11:46:10.225303"	"2020-02-07 11:46:10.806474"	23	6.24245513333333
"S200207"	"Conflict_Resolution"	"RIGHT"	"LEFT"	485.643199999913	800.0000016	n/a	n/a	n/a	n/a	"True"	n/a	n/a	"2020-02-07 11:46:11.623826"	"2020-02-07 11:46:12.317721"	24	6.24245513333333
"S200207"	"Conflict_Resolution"	"RIGHT"	"RIGHT"	652.118500000029	1433.3333362	n/a	n/a	n/a	n/a	"True"	n/a	n/a	"2020-02-07 11:46:13.769768"	"2020-02-07 11:46:14.630687"	25	6.24245513333333
"S200207"	"Conflict_Resolution"	"LEFT"	"LEFT"	375.848499999961	866.6666684	n/a	n/a	n/a	n/a	"False"	n/a	n/a	"2020-02-07 11:46:15.518163"	"2020-02-07 11:46:16.101133"	26	6.24245513333333
"S200207"	"Conflict_Resolution"	"RIGHT"	"RIGHT"	369.026700000063	950.0000019	n/a	n/a	n/a	n/a	"False"	n/a	n/a	"2020-02-07 11:46:17.068984"	"2020-02-07 11:46:17.646236"	27	6.24245513333333
"S200207"	"Conflict_Resolution"	"LEFT"	"LEFT"	496.238400000038	1100.0000022	n/a	n/a	n/a	n/a	"True"	n/a	n/a	"2020-02-07 11:46:18.765645"	"2020-02-07 11:46:19.470038"	28	6.24245513333333
"S200207"	"Conflict_Resolution"	"RIGHT"	"RIGHT"	405.992400000059	1366.6666694	n/a	n/a	n/a	n/a	"False"	n/a	n/a	"2020-02-07 11:46:20.856220"	"2020-02-07 11:46:21.469460"	29	6.24245513333333
"S200207"	"Conflict_Resolution"	"LEFT"	"RIGHT"	449.113499999953	916.6666685	n/a	n/a	n/a	n/a	"False"	n/a	n/a	"2020-02-07 11:46:22.405062"	"2020-02-07 11:46:23.062599"	30	6.24245513333333
"S200207"	"Conflict_Resolution"	"RIGHT"	"RIGHT"	382.532800000035	783.3333349	n/a	n/a	n/a	n/a	"False"	n/a	n/a	"2020-02-07 11:46:23.863044"	"2020-02-07 11:46:24.453687"	31	6.24245513333333
"S200207"	"Conflict_Resolution"	"RIGHT"	"RIGHT"	362.479099999973	650.0000013	n/a	n/a	n/a	n/a	"False"	n/a	n/a	"2020-02-07 11:46:25.123866"	"2020-02-07 11:46:25.694467"	32	6.24245513333333
"S200207"	"Conflict_Resolution"	"LEFT"	"LEFT"	394.416699999965	1050.0000021	n/a	n/a	n/a	n/a	"False"	n/a	n/a	"2020-02-07 11:46:26.763295"	"2020-02-07 11:46:27.365746"	33	6.24245513333333
"S200207"	"Conflict_Resolution"	"LEFT"	"RIGHT"	365.340100000026	1166.666669	n/a	n/a	n/a	n/a	"True"	n/a	n/a	"2020-02-07 11:46:28.553062"	"2020-02-07 11:46:29.126267"	34	6.24245513333333
"S200207"	"Conflict_Resolution"	"RIGHT"	"RIGHT"	395.206200000075	1033.3333354	n/a	n/a	n/a	n/a	"False"	n/a	n/a	"2020-02-07 11:46:30.179214"	"2020-02-07 11:46:30.782202"	35	6.24245513333333
"S200207"	"Conflict_Resolution"	"LEFT"	"LEFT"	372.005300000069	1216.6666691	n/a	n/a	n/a	n/a	"True"	n/a	n/a	"2020-02-07 11:46:32.017993"	"2020-02-07 11:46:32.598625"	36	6.24245513333333
"S200207"	"Conflict_Resolution"	"RIGHT"	"RIGHT"	440.881499999932	683.3333347	n/a	n/a	n/a	n/a	"True"	n/a	n/a	"2020-02-07 11:46:33.301443"	"2020-02-07 11:46:33.950363"	37	6.24245513333333
"S200207"	"Conflict_Resolution"	"RIGHT"	"RIGHT"	587.187900000004	1466.6666696	n/a	n/a	n/a	n/a	"True"	n/a	n/a	"2020-02-07 11:46:35.434643"	"2020-02-07 11:46:36.230489"	38	6.24245513333333
"S200207"	"Conflict_Resolution"	"LEFT"	"LEFT"	638.507699999991	966.6666686	n/a	n/a	n/a	n/a	"True"	n/a	n/a	"2020-02-07 11:46:37.215466"	"2020-02-07 11:46:38.062443"	39	6.24245513333333
"S200207"	"Conflict_Resolution"	"LEFT"	"LEFT"	526.481600000011	566.6666678	n/a	n/a	n/a	n/a	"False"	n/a	n/a	"2020-02-07 11:46:38.647076"	"2020-02-07 11:46:39.381796"	40	6.24245513333333
"S200207"	"Conflict_Resolution"	"RIGHT"	"LEFT"	404.649199999994	1000.000002	n/a	n/a	n/a	n/a	"True"	n/a	n/a	"2020-02-07 11:46:40.401674"	"2020-02-07 11:46:41.014656"	41	6.24245513333333
"S200207"	"Conflict_Resolution"	"LEFT"	"LEFT"	402.372499999956	1450.0000029	n/a	n/a	n/a	n/a	"False"	n/a	n/a	"2020-02-07 11:46:42.483940"	"2020-02-07 11:46:43.094418"	42	6.24245513333333
"S200207"	"Conflict_Resolution"	"RIGHT"	"RIGHT"	446.519700000067	1150.0000023	n/a	n/a	n/a	n/a	"True"	n/a	n/a	"2020-02-07 11:46:44.263096"	"2020-02-07 11:46:44.918614"	43	6.24245513333333
"S200207"	"Conflict_Resolution"	"LEFT"	"LEFT"	441.202699999963	1250.0000025	n/a	n/a	n/a	n/a	"False"	n/a	n/a	"2020-02-07 11:46:46.188847"	"2020-02-07 11:46:46.837058"	44	6.24245513333333
"S200207"	"Conflict_Resolution"	"LEFT"	"LEFT"	628.79190000001	1050.0000021	n/a	n/a	n/a	n/a	"True"	n/a	n/a	"2020-02-07 11:46:47.905461"	"2020-02-07 11:46:48.742042"	45	6.24245513333333
"S200207"	"Conflict_Resolution"	"LEFT"	"LEFT"	397.637400000008	583.3333345	n/a	n/a	n/a	n/a	"True"	n/a	n/a	"2020-02-07 11:46:49.344413"	"2020-02-07 11:46:49.950139"	46	6.24245513333333
"S200207"	"Conflict_Resolution"	"LEFT"	"LEFT"	464.170700000068	916.6666685	n/a	n/a	n/a	n/a	"True"	n/a	n/a	"2020-02-07 11:46:50.885717"	"2020-02-07 11:46:51.558377"	47	6.24245513333333
"S200207"	"Conflict_Resolution"	"LEFT"	"LEFT"	470.857600000045	1350.0000027	n/a	n/a	n/a	n/a	"True"	n/a	n/a	"2020-02-07 11:46:52.926777"	"2020-02-07 11:46:53.606174"	48	6.24245513333333
"S200207"	"Conflict_Resolution"	"LEFT"	"LEFT"	405.19119999999	1400.0000028	n/a	n/a	n/a	n/a	"True"	n/a	n/a	"2020-02-07 11:46:55.024683"	"2020-02-07 11:46:55.637064"	49	6.24245513333333
"S200207"	"Conflict_Resolution"	"RIGHT"	"RIGHT"	448.933000000011	533.3333344	n/a	n/a	n/a	n/a	"True"	n/a	n/a	"2020-02-07 11:46:56.189544"	"2020-02-07 11:46:56.846142"	50	6.24245513333333
"S200207"	"Conflict_Resolution"	"RIGHT"	"RIGHT"	552.640500000052	733.3333348	n/a	n/a	n/a	n/a	"True"	n/a	n/a	"2020-02-07 11:46:57.597382"	"2020-02-07 11:46:58.358001"	51	6.24245513333333
"S200207"	"Conflict_Resolution"	"LEFT"	"LEFT"	340.824600000019	1000.000002	n/a	n/a	n/a	n/a	"False"	n/a	n/a	"2020-02-07 11:46:59.377551"	"2020-02-07 11:46:59.925479"	52	6.24245513333333
"S200207"	"Conflict_Resolution"	"RIGHT"	"RIGHT"	554.043299999989	1133.3333356	n/a	n/a	n/a	n/a	"True"	n/a	n/a	"2020-02-07 11:47:01.076094"	"2020-02-07 11:47:01.838219"	53	6.24245513333333
"S200207"	"Conflict_Resolution"	"LEFT"	"LEFT"	367.016799999988	950.0000019	n/a	n/a	n/a	n/a	"False"	n/a	n/a	"2020-02-07 11:47:02.807357"	"2020-02-07 11:47:03.381507"	54	6.24245513333333
"S200207"	"Conflict_Resolution"	"LEFT"	"LEFT"	369.137600000045	516.6666677	n/a	n/a	n/a	n/a	"False"	n/a	n/a	"2020-02-07 11:47:03.916739"	"2020-02-07 11:47:04.494287"	55	6.24245513333333
"S200207"	"Conflict_Resolution"	"LEFT"	"LEFT"	399.100699999963	1150.0000023	n/a	n/a	n/a	n/a	"False"	n/a	n/a	"2020-02-07 11:47:05.662815"	"2020-02-07 11:47:06.268848"	56	6.24245513333333
"S200207"	"Conflict_Resolution"	"LEFT"	"RIGHT"	395.073800000091	1116.6666689	n/a	n/a	n/a	n/a	"True"	n/a	n/a	"2020-02-07 11:47:07.402991"	"2020-02-07 11:47:08.006406"	57	6.24245513333333
"S200207"	"Conflict_Resolution"	"RIGHT"	"RIGHT"	601.336500000002	1083.3333355	n/a	n/a	n/a	n/a	"True"	n/a	n/a	"2020-02-07 11:47:09.108401"	"2020-02-07 11:47:09.917878"	58	6.24245513333333
"S200207"	"Conflict_Resolution"	"RIGHT"	"RIGHT"	658.742099999927	500.000001	n/a	n/a	n/a	n/a	"True"	n/a	n/a	"2020-02-07 11:47:10.435514"	"2020-02-07 11:47:11.302188"	59	6.24245513333333
"S200207"	"Conflict_Resolution"	"RIGHT"	"RIGHT"	417.290500000036	1083.3333355	n/a	n/a	n/a	n/a	"False"	n/a	n/a	"2020-02-07 11:47:12.404327"	"2020-02-07 11:47:13.030247"	60	6.24245513333333
"S200207"	"Conflict_Resolution"	"RIGHT"	"RIGHT"	356.943999999999	1433.3333362	n/a	n/a	n/a	n/a	"False"	n/a	n/a	"2020-02-07 11:47:14.480827"	"2020-02-07 11:47:15.046550"	61	6.24245513333333
"S200207"	"Conflict_Resolution"	"LEFT"	"LEFT"	479.497300000048	1316.6666693	n/a	n/a	n/a	n/a	"False"	n/a	n/a	"2020-02-07 11:47:16.382594"	"2020-02-07 11:47:17.068989"	62	6.24245513333333
"S200207"	"Conflict_Resolution"	"RIGHT"	"RIGHT"	496.764800000051	933.3333352	n/a	n/a	n/a	n/a	"True"	n/a	n/a	"2020-02-07 11:47:18.021725"	"2020-02-07 11:47:18.726191"	63	6.24245513333333
"S200207"	"Conflict_Resolution"	"RIGHT"	"RIGHT"	405.483000000004	783.3333349	n/a	n/a	n/a	n/a	"True"	n/a	n/a	"2020-02-07 11:47:19.528226"	"2020-02-07 11:47:20.141111"	64	6.24245513333333
"S200207"	"Conflict_Resolution"	"RIGHT"	"RIGHT"	528.584200000068	1333.333336	n/a	n/a	n/a	n/a	"True"	n/a	n/a	"2020-02-07 11:47:21.493584"	"2020-02-07 11:47:22.230656"	65	6.24245513333333
"S200207"	"Conflict_Resolution"	"RIGHT"	"RIGHT"	385.640599999988	1033.3333354	n/a	n/a	n/a	n/a	"True"	n/a	n/a	"2020-02-07 11:47:23.284803"	"2020-02-07 11:47:23.877873"	66	6.24245513333333
"S200207"	"Conflict_Resolution"	"RIGHT"	"RIGHT"	306.474600000001	1266.6666692	n/a	n/a	n/a	n/a	"True"	n/a	n/a	"2020-02-07 11:47:25.163580"	"2020-02-07 11:47:25.677992"	67	6.24245513333333
"S200207"	"Conflict_Resolution"	"LEFT"	"LEFT"	615.525400000024	533.3333344	n/a	n/a	n/a	n/a	"False"	n/a	n/a	"2020-02-07 11:47:26.230709"	"2020-02-07 11:47:27.054520"	68	6.24245513333333
"S200207"	"Conflict_Resolution"	"LEFT"	"RIGHT"	377.94539999993	1266.6666692	n/a	n/a	n/a	n/a	"True"	n/a	n/a	"2020-02-07 11:47:28.339739"	"2020-02-07 11:47:28.925120"	69	6.24245513333333
"S200207"	"Conflict_Resolution"	"RIGHT"	"RIGHT"	353.442200000018	1100.0000022	n/a	n/a	n/a	n/a	"False"	n/a	n/a	"2020-02-07 11:47:30.044443"	"2020-02-07 11:47:30.606585"	70	6.24245513333333
"S200207"	"Conflict_Resolution"	"LEFT"	"LEFT"	379.144800000063	1016.6666687	n/a	n/a	n/a	n/a	"False"	n/a	n/a	"2020-02-07 11:47:31.642915"	"2020-02-07 11:47:32.230550"	71	6.24245513333333
"S200207"	"Conflict_Resolution"	"RIGHT"	"RIGHT"	372.834699999999	1183.3333357	n/a	n/a	n/a	n/a	"False"	n/a	n/a	"2020-02-07 11:47:33.433321"	"2020-02-07 11:47:34.013881"	72	6.24245513333333
"S200207"	"Conflict_Resolution"	"RIGHT"	"RIGHT"	579.822199999967	1233.3333358	n/a	n/a	n/a	n/a	"True"	n/a	n/a	"2020-02-07 11:47:35.266248"	"2020-02-07 11:47:36.053752"	73	6.24245513333333
"S200207"	"Conflict_Resolution"	"LEFT"	"LEFT"	468.144199999983	1416.6666695	n/a	n/a	n/a	n/a	"True"	n/a	n/a	"2020-02-07 11:47:37.489748"	"2020-02-07 11:47:38.166245"	74	6.24245513333333
"S200207"	"Conflict_Resolution"	"RIGHT"	"RIGHT"	674.94720000002	833.333335	n/a	n/a	n/a	n/a	"True"	n/a	n/a	"2020-02-07 11:47:39.019632"	"2020-02-07 11:47:39.903298"	75	6.24245513333333
"S200207"	"Conflict_Resolution"	"RIGHT"	"RIGHT"	678.215099999989	1366.6666694	n/a	n/a	n/a	n/a	"True"	n/a	n/a	"2020-02-07 11:47:41.288327"	"2020-02-07 11:47:42.175133"	76	6.24245513333333
"S200207"	"Conflict_Resolution"	"RIGHT"	"RIGHT"	838.323700000046	550.0000011	n/a	n/a	n/a	n/a	"False"	n/a	n/a	"2020-02-07 11:47:42.743452"	"2020-02-07 11:47:43.789781"	77	6.24245513333333
"S200207"	"Conflict_Resolution"	"RIGHT"	"RIGHT"	357.133599999997	600.0000012	n/a	n/a	n/a	n/a	"False"	n/a	n/a	"2020-02-07 11:47:44.409270"	"2020-02-07 11:47:44.972912"	78	6.24245513333333
"S200207"	"Conflict_Resolution"	"RIGHT"	"RIGHT"	378.95519999995	683.3333347	n/a	n/a	n/a	n/a	"False"	n/a	n/a	"2020-02-07 11:47:45.674605"	"2020-02-07 11:47:46.261852"	79	6.24245513333333
"S200207"	"Conflict_Resolution"	"LEFT"	"RIGHT"	297.742599999992	683.3333347	n/a	n/a	n/a	n/a	"False"	n/a	n/a	"2020-02-07 11:47:46.964387"	"2020-02-07 11:47:47.470206"	80	6.24245513333333
"S200207"	"Conflict_Resolution"	"RIGHT"	"RIGHT"	457.750400000009	1483.3333363	n/a	n/a	n/a	n/a	"True"	n/a	n/a	"2020-02-07 11:47:48.973381"	"2020-02-07 11:47:49.637714"	81	6.24245513333333
"S200207"	"Conflict_Resolution"	"RIGHT"	"RIGHT"	393.045599999937	883.3333351	n/a	n/a	n/a	n/a	"True"	n/a	n/a	"2020-02-07 11:47:50.541340"	"2020-02-07 11:47:51.141858"	82	6.24245513333333
"S200207"	"Conflict_Resolution"	"LEFT"	"LEFT"	480.860499999949	950.0000019	n/a	n/a	n/a	n/a	"True"	n/a	n/a	"2020-02-07 11:47:52.109646"	"2020-02-07 11:47:52.798574"	83	6.24245513333333
"S200207"	"Conflict_Resolution"	"RIGHT"	"RIGHT"	351.839199999972	1333.333336	n/a	n/a	n/a	n/a	"False"	n/a	n/a	"2020-02-07 11:47:54.150453"	"2020-02-07 11:47:54.710596"	84	6.24245513333333
"S200207"	"Conflict_Resolution"	"RIGHT"	"RIGHT"	399.995200000035	900.0000018	n/a	n/a	n/a	n/a	"False"	n/a	n/a	"2020-02-07 11:47:55.629735"	"2020-02-07 11:47:56.237173"	85	6.24245513333333
"S200207"	"Conflict_Resolution"	"LEFT"	"LEFT"	419.76509999995	900.0000018	n/a	n/a	n/a	n/a	"False"	n/a	n/a	"2020-02-07 11:47:57.154320"	"2020-02-07 11:47:57.781712"	86	6.24245513333333
"S200207"	"Conflict_Resolution"	"LEFT"	"LEFT"	354.083600000081	666.666668	n/a	n/a	n/a	n/a	"True"	n/a	n/a	"2020-02-07 11:47:58.468487"	"2020-02-07 11:47:59.029986"	87	6.24245513333333
"S200207"	"Conflict_Resolution"	"RIGHT"	"RIGHT"	373.562300000003	1383.3333361	n/a	n/a	n/a	n/a	"False"	n/a	n/a	"2020-02-07 11:48:00.432812"	"2020-02-07 11:48:01.016282"	88	6.24245513333333
"S200207"	"Conflict_Resolution"	"RIGHT"	"RIGHT"	344.508099999985	500.000001	n/a	n/a	n/a	n/a	"False"	n/a	n/a	"2020-02-07 11:48:01.533479"	"2020-02-07 11:48:02.086256"	89	6.24245513333333
"S200207"	"Conflict_Resolution"	"RIGHT"	"RIGHT"	318.903899999896	1150.0000023	n/a	n/a	n/a	n/a	"False"	n/a	n/a	"2020-02-07 11:48:03.255589"	"2020-02-07 11:48:03.783049"	90	6.24245513333333
"S200207"	"Conflict_Resolution"	"LEFT"	"RIGHT"	528.879699999834	683.3333347	n/a	n/a	n/a	n/a	"True"	n/a	n/a	"2020-02-07 11:48:04.485210"	"2020-02-07 11:48:05.222088"	91	6.24245513333333
"S200207"	"Conflict_Resolution"	"LEFT"	"LEFT"	430.256999999983	766.6666682	n/a	n/a	n/a	n/a	"False"	n/a	n/a	"2020-02-07 11:48:06.008151"	"2020-02-07 11:48:06.646480"	92	6.24245513333333
"S200207"	"Conflict_Resolution"	"LEFT"	"LEFT"	479.970400000184	516.6666677	n/a	n/a	n/a	n/a	"True"	n/a	n/a	"2020-02-07 11:48:07.182595"	"2020-02-07 11:48:07.870500"	93	6.24245513333333
"S200207"	"Conflict_Resolution"	"LEFT"	"LEFT"	502.71029999999	533.3333344	n/a	n/a	n/a	n/a	"True"	n/a	n/a	"2020-02-07 11:48:08.423881"	"2020-02-07 11:48:09.134012"	94	6.24245513333333
"S200207"	"Conflict_Resolution"	"LEFT"	"LEFT"	392.37920000005	1116.6666689	n/a	n/a	n/a	n/a	"False"	n/a	n/a	"2020-02-07 11:48:10.270129"	"2020-02-07 11:48:10.869196"	95	6.24245513333333
"S200207"	"Conflict_Resolution"	"LEFT"	"RIGHT"	333.722999999964	1200.0000024	n/a	n/a	n/a	n/a	"True"	n/a	n/a	"2020-02-07 11:48:12.088941"	"2020-02-07 11:48:12.630089"	96	6.24245513333333
"S200207"	"Conflict_Resolution"	"RIGHT"	"RIGHT"	425.86039999992	1483.3333363	n/a	n/a	n/a	n/a	"False"	n/a	n/a	"2020-02-07 11:48:14.132134"	"2020-02-07 11:48:14.766703"	97	6.24245513333333
"S200207"	"Conflict_Resolution"	"LEFT"	"LEFT"	531.852500000014	1000.000002	n/a	n/a	n/a	n/a	"True"	n/a	n/a	"2020-02-07 11:48:15.786253"	"2020-02-07 11:48:16.526343"	98	6.24245513333333
"S200207"	"Conflict_Resolution"	"LEFT"	"LEFT"	375.671600000032	733.3333348	n/a	n/a	n/a	n/a	"False"	n/a	n/a	"2020-02-07 11:48:17.278917"	"2020-02-07 11:48:17.861043"	99	6.24245513333333
"S200207"	"Conflict_Resolution"	"RIGHT"	"RIGHT"	382.34680000005	750.0000015	n/a	n/a	n/a	n/a	"False"	n/a	n/a	"2020-02-07 11:48:18.631793"	"2020-02-07 11:48:19.222214"	100	6.24245513333333
"S200207"	"Conflict_Resolution"	"LEFT"	"LEFT"	453.338400000121	583.3333345	n/a	n/a	n/a	n/a	"False"	n/a	n/a	"2020-02-07 11:48:19.825201"	"2020-02-07 11:48:20.485406"	101	6.24245513333333
"S200207"	"Conflict_Resolution"	"RIGHT"	"RIGHT"	613.386900000023	600.0000012	n/a	n/a	n/a	n/a	"True"	n/a	n/a	"2020-02-07 11:48:21.104707"	"2020-02-07 11:48:21.926228"	102	6.24245513333333
"S200207"	"Conflict_Resolution"	"LEFT"	"LEFT"	350.780900000018	1350.0000027	n/a	n/a	n/a	n/a	"False"	n/a	n/a	"2020-02-07 11:48:23.295738"	"2020-02-07 11:48:23.854232"	103	6.24245513333333
"S200207"	"Conflict_Resolution"	"RIGHT"	"RIGHT"	330.594000000019	1000.000002	n/a	n/a	n/a	n/a	"False"	n/a	n/a	"2020-02-07 11:48:24.875774"	"2020-02-07 11:48:25.413778"	104	6.24245513333333
"S200207"	"Conflict_Resolution"	"LEFT"	"LEFT"	434.685899999977	1066.6666688	n/a	n/a	n/a	n/a	"True"	n/a	n/a	"2020-02-07 11:48:26.499042"	"2020-02-07 11:48:27.141921"	105	6.24245513333333
"S200207"	"Conflict_Resolution"	"RIGHT"	"RIGHT"	357.971700000007	800.0000016	n/a	n/a	n/a	n/a	"False"	n/a	n/a	"2020-02-07 11:48:27.959863"	"2020-02-07 11:48:28.526486"	106	6.24245513333333
"S200207"	"Conflict_Resolution"	"LEFT"	"LEFT"	468.173400000069	1016.6666687	n/a	n/a	n/a	n/a	"True"	n/a	n/a	"2020-02-07 11:48:29.562431"	"2020-02-07 11:48:30.238254"	107	6.24245513333333
"S200207"	"Conflict_Resolution"	"LEFT"	"LEFT"	352.546200000006	1300.0000026	n/a	n/a	n/a	n/a	"False"	n/a	n/a	"2020-02-07 11:48:31.557899"	"2020-02-07 11:48:32.118047"	108	6.24245513333333
"S200207"	"Conflict_Resolution"	"RIGHT"	"LEFT"	409.475899999961	1100.0000022	n/a	n/a	n/a	n/a	"True"	n/a	n/a	"2020-02-07 11:48:33.236496"	"2020-02-07 11:48:33.852936"	109	6.24245513333333
"S200207"	"Conflict_Resolution"	"RIGHT"	"RIGHT"	384.150900000122	550.0000011	n/a	n/a	n/a	n/a	"True"	n/a	n/a	"2020-02-07 11:48:34.421622"	"2020-02-07 11:48:35.014027"	110	6.24245513333333
"S200207"	"Conflict_Resolution"	"LEFT"	"LEFT"	417.563199999904	1100.0000022	n/a	n/a	n/a	n/a	"False"	n/a	n/a	"2020-02-07 11:48:36.132337"	"2020-02-07 11:48:36.758704"	111	6.24245513333333
"S200207"	"Conflict_Resolution"	"RIGHT"	"RIGHT"	529.964099999916	650.0000013	n/a	n/a	n/a	n/a	"True"	n/a	n/a	"2020-02-07 11:48:37.428317"	"2020-02-07 11:48:38.166658"	112	6.24245513333333
"S200207"	"Conflict_Resolution"	"LEFT"	"LEFT"	965.306099999907	783.3333349	n/a	n/a	n/a	n/a	"True"	n/a	n/a	"2020-02-07 11:48:38.969060"	"2020-02-07 11:48:40.142161"	113	6.24245513333333
"S200207"	"Conflict_Resolution"	"LEFT"	"LEFT"	528.789599999982	900.0000018	n/a	n/a	n/a	n/a	"True"	n/a	n/a	"2020-02-07 11:48:41.061283"	"2020-02-07 11:48:41.800108"	114	6.24245513333333
"S200207"	"Conflict_Resolution"	"RIGHT"	"RIGHT"	394.057400000065	1216.6666691	n/a	n/a	n/a	n/a	"False"	n/a	n/a	"2020-02-07 11:48:43.035646"	"2020-02-07 11:48:43.638261"	115	6.24245513333333
"S200207"	"Conflict_Resolution"	"LEFT"	"LEFT"	474.770400000125	1450.0000029	n/a	n/a	n/a	n/a	"True"	n/a	n/a	"2020-02-07 11:48:45.107371"	"2020-02-07 11:48:45.790144"	116	6.24245513333333
"S200207"	"Conflict_Resolution"	"RIGHT"	"RIGHT"	471.254499999986	1183.3333357	n/a	n/a	n/a	n/a	"True"	n/a	n/a	"2020-02-07 11:48:46.990606"	"2020-02-07 11:48:47.670382"	117	6.24245513333333
"S200207"	"Conflict_Resolution"	"LEFT"	"LEFT"	499.873100000059	633.3333346	n/a	n/a	n/a	n/a	"True"	n/a	n/a	"2020-02-07 11:48:48.321982"	"2020-02-07 11:48:49.029201"	118	6.24245513333333
"S200207"	"Conflict_Resolution"	"RIGHT"	"RIGHT"	844.075299999986	1050.0000021	n/a	n/a	n/a	n/a	"True"	n/a	n/a	"2020-02-07 11:48:50.097942"	"2020-02-07 11:48:51.150822"	119	6.24245513333333
"S200207"	"Conflict_Resolution"	"LEFT"	"LEFT"	388.686000000007	1216.6666691	n/a	n/a	n/a	n/a	"False"	n/a	n/a	"2020-02-07 11:48:52.385632"	"2020-02-07 11:48:52.981035"	120	6.24245513333333
"S200207"	"Conflict_Resolution"	"LEFT"	"LEFT"	496.941899999911	1366.6666694	n/a	n/a	n/a	n/a	"True"	n/a	n/a	"2020-02-07 11:48:54.365249"	"2020-02-07 11:48:55.070361"	121	6.24245513333333
"S200207"	"Conflict_Resolution"	"RIGHT"	"RIGHT"	479.130199999872	533.3333344	n/a	n/a	n/a	n/a	"False"	n/a	n/a	"2020-02-07 11:48:55.622867"	"2020-02-07 11:48:56.311647"	122	6.24245513333333
"S200207"	"Conflict_Resolution"	"LEFT"	"LEFT"	402.095099999997	1466.6666696	n/a	n/a	n/a	n/a	"False"	n/a	n/a	"2020-02-07 11:48:57.796070"	"2020-02-07 11:48:58.405185"	123	6.24245513333333
"S200207"	"Conflict_Resolution"	"RIGHT"	"RIGHT"	368.516900000031	1133.3333356	n/a	n/a	n/a	n/a	"False"	n/a	n/a	"2020-02-07 11:48:59.557713"	"2020-02-07 11:49:00.133246"	124	6.24245513333333
"S200207"	"Conflict_Resolution"	"RIGHT"	"LEFT"	362.473099999988	900.0000018	n/a	n/a	n/a	n/a	"True"	n/a	n/a	"2020-02-07 11:49:01.052208"	"2020-02-07 11:49:01.621731"	125	6.24245513333333
"S200207"	"Conflict_Resolution"	"RIGHT"	"RIGHT"	765.82570000005	1416.6666695	n/a	n/a	n/a	n/a	"True"	n/a	n/a	"2020-02-07 11:49:03.056139"	"2020-02-07 11:49:04.029902"	126	6.24245513333333
"S200207"	"Conflict_Resolution"	"RIGHT"	"RIGHT"	355.85089999995	633.3333346	n/a	n/a	n/a	n/a	"False"	n/a	n/a	"2020-02-07 11:49:04.682850"	"2020-02-07 11:49:05.246352"	127	6.24245513333333
"S200207"	"Conflict_Resolution"	"LEFT"	"LEFT"	380.41649999991	816.6666683	n/a	n/a	n/a	n/a	"False"	n/a	n/a	"2020-02-07 11:49:06.082268"	"2020-02-07 11:49:06.670317"	128	6.24245513333333
"S200207"	"Conflict_Resolution"	"RIGHT"	"RIGHT"	334.643899999946	733.3333348	n/a	n/a	n/a	n/a	"False"	n/a	n/a	"2020-02-07 11:49:07.423495"	"2020-02-07 11:49:07.965785"	129	6.24245513333333
"S200207"	"Conflict_Resolution"	"RIGHT"	"LEFT"	587.403200000153	1283.3333359	n/a	n/a	n/a	n/a	"True"	n/a	n/a	"2020-02-07 11:49:09.266943"	"2020-02-07 11:49:10.061721"	130	6.24245513333333
"S200207"	"Conflict_Resolution"	"RIGHT"	"RIGHT"	333.998600000086	583.3333345	n/a	n/a	n/a	n/a	"False"	n/a	n/a	"2020-02-07 11:49:10.664081"	"2020-02-07 11:49:11.206437"	131	6.24245513333333
"S200207"	"Conflict_Resolution"	"LEFT"	"RIGHT"	316.075599999976	616.6666679	n/a	n/a	n/a	n/a	"True"	n/a	n/a	"2020-02-07 11:49:11.842461"	"2020-02-07 11:49:12.366094"	132	6.24245513333333
"S200207"	"Conflict_Resolution"	"LEFT"	"LEFT"	554.952500000127	850.0000017	n/a	n/a	n/a	n/a	"True"	n/a	n/a	"2020-02-07 11:49:13.235599"	"2020-02-07 11:49:13.998289"	133	6.24245513333333
"S200207"	"Conflict_Resolution"	"RIGHT"	"RIGHT"	402.344100000164	1266.6666692	n/a	n/a	n/a	n/a	"False"	n/a	n/a	"2020-02-07 11:49:15.284352"	"2020-02-07 11:49:15.895330"	134	6.24245513333333
"S200207"	"Conflict_Resolution"	"LEFT"	"LEFT"	399.276399999962	716.6666681	n/a	n/a	n/a	n/a	"True"	n/a	n/a	"2020-02-07 11:49:16.631041"	"2020-02-07 11:49:17.238139"	135	6.24245513333333
"S200207"	"Conflict_Resolution"	"LEFT"	"LEFT"	409.47529999994	866.6666684	n/a	n/a	n/a	n/a	"True"	n/a	n/a	"2020-02-07 11:49:18.124422"	"2020-02-07 11:49:18.742368"	136	6.24245513333333
"S200207"	"Conflict_Resolution"	"RIGHT"	"RIGHT"	538.430500000004	1050.0000021	n/a	n/a	n/a	n/a	"False"	n/a	n/a	"2020-02-07 11:49:19.811453"	"2020-02-07 11:49:20.558042"	137	6.24245513333333
"S200207"	"Conflict_Resolution"	"LEFT"	"LEFT"	449.312700000064	1300.0000026	n/a	n/a	n/a	n/a	"True"	n/a	n/a	"2020-02-07 11:49:21.876955"	"2020-02-07 11:49:22.534100"	138	6.24245513333333
"S200207"	"Conflict_Resolution"	"RIGHT"	"RIGHT"	902.071299999989	1383.3333361	n/a	n/a	n/a	n/a	"True"	n/a	n/a	"2020-02-07 11:49:23.935913"	"2020-02-07 11:49:25.046700"	139	6.24245513333333
"S200207"	"Conflict_Resolution"	"LEFT"	"LEFT"	426.13080000001	850.0000017	n/a	n/a	n/a	n/a	"False"	n/a	n/a	"2020-02-07 11:49:25.916372"	"2020-02-07 11:49:26.549867"	140	6.24245513333333
"S200207"	"Conflict_Resolution"	"RIGHT"	"RIGHT"	393.330599999899	933.3333352	n/a	n/a	n/a	n/a	"False"	n/a	n/a	"2020-02-07 11:49:27.501020"	"2020-02-07 11:49:28.102200"	141	6.24245513333333
"S200207"	"Conflict_Resolution"	"RIGHT"	"RIGHT"	461.692099999937	583.3333345	n/a	n/a	n/a	n/a	"True"	n/a	n/a	"2020-02-07 11:49:28.704807"	"2020-02-07 11:49:29.373055"	142	6.24245513333333
"S200207"	"Conflict_Resolution"	"LEFT"	"LEFT"	378.04570000003	666.666668	n/a	n/a	n/a	n/a	"False"	n/a	n/a	"2020-02-07 11:49:30.060348"	"2020-02-07 11:49:30.645717"	143	6.24245513333333
"S200207"	"Conflict_Resolution"	"LEFT"	"RIGHT"	456.380900000113	566.6666678	n/a	n/a	n/a	n/a	"True"	n/a	n/a	"2020-02-07 11:49:31.229619"	"2020-02-07 11:49:31.894189"	144	6.24245513333333
"S200207"	"Conflict_Resolution"	"LEFT"	"LEFT"	442.584599999918	1500.000003	n/a	n/a	n/a	n/a	"False"	n/a	n/a	"2020-02-07 11:49:33.411876"	"2020-02-07 11:49:34.062161"	145	6.24245513333333
"S200207"	"Conflict_Resolution"	"RIGHT"	"RIGHT"	393.134099999997	700.0000014	n/a	n/a	n/a	n/a	"False"	n/a	n/a	"2020-02-07 11:49:34.781207"	"2020-02-07 11:49:35.381852"	146	6.24245513333333
"S200207"	"Conflict_Resolution"	"RIGHT"	"RIGHT"	555.878900000152	633.3333346	n/a	n/a	n/a	n/a	"True"	n/a	n/a	"2020-02-07 11:49:36.034611"	"2020-02-07 11:49:36.798630"	147	6.24245513333333
"S200207"	"Conflict_Resolution"	"RIGHT"	"RIGHT"	487.296900000047	750.0000015	n/a	n/a	n/a	n/a	"True"	n/a	n/a	"2020-02-07 11:49:37.566600"	"2020-02-07 11:49:38.262207"	148	6.24245513333333
"S200207"	"Conflict_Resolution"	"LEFT"	"LEFT"	489.511499999935	1500.000003	n/a	n/a	n/a	n/a	"True"	n/a	n/a	"2020-02-07 11:49:39.780490"	"2020-02-07 11:49:40.478374"	149	6.24245513333333
"S200207"	"Conflict_Resolution"	"RIGHT"	"RIGHT"	442.343400000027	1466.6666696	n/a	n/a	n/a	n/a	"False"	n/a	n/a	"2020-02-07 11:49:41.963734"	"2020-02-07 11:49:42.614500"	150	6.24245513333333
"S200207"	"Conflict_Resolution"	"LEFT"	"LEFT"	432.610000000068	1250.0000025	n/a	n/a	n/a	n/a	"True"	n/a	n/a	"2020-02-07 11:49:43.885105"	"2020-02-07 11:49:44.527390"	151	6.24245513333333
"S200207"	"Conflict_Resolution"	"RIGHT"	"RIGHT"	354.065100000071	1233.3333358	n/a	n/a	n/a	n/a	"False"	n/a	n/a	"2020-02-07 11:49:45.780022"	"2020-02-07 11:49:46.342468"	152	6.24245513333333
"S200207"	"Conflict_Resolution"	"RIGHT"	"LEFT"	482.466400000021	850.0000017	n/a	n/a	n/a	n/a	"True"	n/a	n/a	"2020-02-07 11:49:47.211527"	"2020-02-07 11:49:47.901878"	153	6.24245513333333
"S200207"	"Conflict_Resolution"	"LEFT"	"LEFT"	453.934000000118	783.3333349	n/a	n/a	n/a	n/a	"False"	n/a	n/a	"2020-02-07 11:49:48.704061"	"2020-02-07 11:49:49.365898"	154	6.24245513333333
"S200207"	"Conflict_Resolution"	"RIGHT"	"RIGHT"	305.790399999978	883.3333351	n/a	n/a	n/a	n/a	"False"	n/a	n/a	"2020-02-07 11:49:50.268597"	"2020-02-07 11:49:50.782268"	155	6.24245513333333
"S200207"	"Conflict_Resolution"	"LEFT"	"LEFT"	332.804900000156	1400.0000028	n/a	n/a	n/a	n/a	"False"	n/a	n/a	"2020-02-07 11:49:52.201657"	"2020-02-07 11:49:52.742826"	156	6.24245513333333
"S200207"	"Conflict_Resolution"	"RIGHT"	"RIGHT"	354.77190000006	833.333335	n/a	n/a	n/a	n/a	"False"	n/a	n/a	"2020-02-07 11:49:53.595877"	"2020-02-07 11:49:54.158388"	157	6.24245513333333
"S200207"	"Conflict_Resolution"	"LEFT"	"LEFT"	518.48659999996	766.6666682	n/a	n/a	n/a	n/a	"True"	n/a	n/a	"2020-02-07 11:49:54.943563"	"2020-02-07 11:49:55.669766"	158	6.24245513333333
"S200207"	"Conflict_Resolution"	"LEFT"	"LEFT"	437.869500000033	616.6666679	n/a	n/a	n/a	n/a	"False"	n/a	n/a	"2020-02-07 11:49:56.303798"	"2020-02-07 11:49:56.949854"	159	6.24245513333333
"S200207"	"Conflict_Resolution"	"RIGHT"	"RIGHT"	397.413300000153	983.3333353	n/a	n/a	n/a	n/a	"True"	n/a	n/a	"2020-02-07 11:49:57.952227"	"2020-02-07 11:49:58.557993"	160	6.24245513333333
"S200207"	"Processing_Speed"	"RIGHT"	"DOWN"	1557.11769999999	1266.6666692	""	n/a	n/a	n/a	n/a	n/a	n/a	"2020-02-07 11:33:39.016154"	"2020-02-07 11:33:40.792163"	1	2.30171066666667
"S200207"	"Processing_Speed"	"LEFT"	"DOWN"	471.69599999998	1116.6666689	""	n/a	n/a	n/a	n/a	n/a	n/a	"2020-02-07 11:33:41.917169"	"2020-02-07 11:33:42.597565"	2	2.30171066666667
"S200207"	"Processing_Speed"	"RIGHT"	"DOWN"	491.822400000018	633.3333346	""	n/a	n/a	n/a	n/a	n/a	n/a	"2020-02-07 11:33:43.241663"	"2020-02-07 11:33:43.941457"	3	2.30171066666667
"S200207"	"Processing_Speed"	"LEFT"	"DOWN"	899.445100000008	883.3333351	""	n/a	n/a	n/a	n/a	n/a	n/a	"2020-02-07 11:33:44.833660"	"2020-02-07 11:33:45.940076"	4	2.30171066666667
"S200207"	"Processing_Speed"	"RIGHT"	"DOWN"	490.4765	1150.0000023	""	n/a	n/a	n/a	n/a	n/a	n/a	"2020-02-07 11:33:47.099053"	"2020-02-07 11:33:47.796780"	5	2.30171066666667
"S200207"	"Processing_Speed"	"LEFT"	"DOWN"	285.338599999989	1466.6666696	""	n/a	n/a	n/a	n/a	n/a	n/a	"2020-02-07 11:33:49.272348"	"2020-02-07 11:33:49.765301"	6	2.30171066666667
"S200207"	"Processing_Speed"	"RIGHT"	"DOWN"	329.962799999976	733.3333348	""	n/a	n/a	n/a	n/a	n/a	n/a	"2020-02-07 11:33:50.507368"	"2020-02-07 11:33:51.045067"	7	2.30171066666667
"S200207"	"Processing_Speed"	"RIGHT"	"DOWN"	272.994200000028	566.6666678	""	n/a	n/a	n/a	n/a	n/a	n/a	"2020-02-07 11:33:51.620528"	"2020-02-07 11:33:52.100839"	8	2.30171066666667
"S200207"	"Processing_Speed"	"LEFT"	"DOWN"	246.271900000011	633.3333346	""	n/a	n/a	n/a	n/a	n/a	n/a	"2020-02-07 11:33:52.743302"	"2020-02-07 11:33:53.197016"	9	2.30171066666667
"S200207"	"Processing_Speed"	"RIGHT"	"DOWN"	210.974599999986	916.6666685	""	n/a	n/a	n/a	n/a	n/a	n/a	"2020-02-07 11:33:54.122118"	"2020-02-07 11:33:54.540749"	10	2.30171066666667
"S200207"	"Processing_Speed"	"RIGHT"	"DOWN"	380.85670000001	666.666668	""	n/a	n/a	n/a	n/a	n/a	n/a	"2020-02-07 11:33:55.216005"	"2020-02-07 11:33:55.804022"	11	2.30171066666667
"S200207"	"Processing_Speed"	"LEFT"	"DOWN"	264.03959999999	1016.6666687	""	n/a	n/a	n/a	n/a	n/a	n/a	"2020-02-07 11:33:56.829272"	"2020-02-07 11:33:57.300279"	12	2.30171066666667
"S200207"	"Processing_Speed"	"LEFT"	"DOWN"	324.393299999997	700.0000014	""	n/a	n/a	n/a	n/a	n/a	n/a	"2020-02-07 11:33:58.008797"	"2020-02-07 11:33:58.541215"	13	2.30171066666667
"S200207"	"Processing_Speed"	"RIGHT"	"DOWN"	238.866599999994	816.6666683	""	n/a	n/a	n/a	n/a	n/a	n/a	"2020-02-07 11:33:59.366000"	"2020-02-07 11:33:59.811858"	14	2.30171066666667
"S200207"	"Processing_Speed"	"RIGHT"	"DOWN"	252.661700000004	1500.000003	""	n/a	n/a	n/a	n/a	n/a	n/a	"2020-02-07 11:34:01.320198"	"2020-02-07 11:34:01.780026"	15	2.30171066666667
"S200207"	"Processing_Speed"	"LEFT"	"DOWN"	337.572100000017	1366.6666694	""	n/a	n/a	n/a	n/a	n/a	n/a	"2020-02-07 11:34:03.155958"	"2020-02-07 11:34:03.702349"	16	2.30171066666667
"S200207"	"Processing_Speed"	"RIGHT"	"DOWN"	221.717600000005	1016.6666687	""	n/a	n/a	n/a	n/a	n/a	n/a	"2020-02-07 11:34:04.727170"	"2020-02-07 11:34:05.156103"	17	2.30171066666667
"S200207"	"Processing_Speed"	"LEFT"	"DOWN"	243.666499999989	1300.0000026	""	n/a	n/a	n/a	n/a	n/a	n/a	"2020-02-07 11:34:06.465859"	"2020-02-07 11:34:06.917534"	18	2.30171066666667
"S200207"	"Processing_Speed"	"RIGHT"	"DOWN"	219.820200000015	883.3333351	""	n/a	n/a	n/a	n/a	n/a	n/a	"2020-02-07 11:34:07.809120"	"2020-02-07 11:34:08.237582"	19	2.30171066666667
"S200207"	"Processing_Speed"	"LEFT"	"DOWN"	244.169400000004	1266.6666692	""	n/a	n/a	n/a	n/a	n/a	n/a	"2020-02-07 11:34:09.513098"	"2020-02-07 11:34:09.963910"	20	2.30171066666667
"S200207"	"Processing_Speed"	"RIGHT"	"DOWN"	217.404099999982	983.3333353	""	n/a	n/a	n/a	n/a	n/a	n/a	"2020-02-07 11:34:10.956087"	"2020-02-07 11:34:11.380955"	21	2.30171066666667
"S200207"	"Processing_Speed"	"RIGHT"	"DOWN"	386.327100000017	1116.6666689	""	n/a	n/a	n/a	n/a	n/a	n/a	"2020-02-07 11:34:12.506282"	"2020-02-07 11:34:13.101361"	22	2.30171066666667
"S200207"	"Processing_Speed"	"LEFT"	"DOWN"	202.194200000008	733.3333348	""	n/a	n/a	n/a	n/a	n/a	n/a	"2020-02-07 11:34:13.842886"	"2020-02-07 11:34:14.252974"	23	2.30171066666667
"S200207"	"Processing_Speed"	"RIGHT"	"DOWN"	274.922500000002	1333.333336	""	n/a	n/a	n/a	n/a	n/a	n/a	"2020-02-07 11:34:15.594291"	"2020-02-07 11:34:16.078571"	24	2.30171066666667
"S200207"	"Processing_Speed"	"LEFT"	"DOWN"	214.511999999985	783.3333349	""	n/a	n/a	n/a	n/a	n/a	n/a	"2020-02-07 11:34:16.870621"	"2020-02-07 11:34:17.293321"	25	2.30171066666667
"S200207"	"Processing_Speed"	"LEFT"	"DOWN"	228.416100000004	666.666668	""	n/a	n/a	n/a	n/a	n/a	n/a	"2020-02-07 11:34:17.968958"	"2020-02-07 11:34:18.404982"	26	2.30171066666667
"S200207"	"Processing_Speed"	"RIGHT"	"DOWN"	224.675199999979	783.3333349	""	n/a	n/a	n/a	n/a	n/a	n/a	"2020-02-07 11:34:19.196748"	"2020-02-07 11:34:19.629591"	27	2.30171066666667
"S200207"	"Processing_Speed"	"LEFT"	"DOWN"	298.825799999975	1500.000003	""	n/a	n/a	n/a	n/a	n/a	n/a	"2020-02-07 11:34:21.138728"	"2020-02-07 11:34:21.645020"	28	2.30171066666667
"S200207"	"Processing_Speed"	"RIGHT"	"DOWN"	231.604199999992	1400.0000028	""	n/a	n/a	n/a	n/a	n/a	n/a	"2020-02-07 11:34:23.053254"	"2020-02-07 11:34:23.493634"	29	2.30171066666667
"S200207"	"Processing_Speed"	"LEFT"	"DOWN"	247.903199999996	1150.0000023	""	n/a	n/a	n/a	n/a	n/a	n/a	"2020-02-07 11:34:24.653397"	"2020-02-07 11:34:25.109590"	30	2.30171066666667
"S200207"	"Processing_Speed"	"LEFT"	"DOWN"	296.767500000016	950.0000019	""	n/a	n/a	n/a	n/a	n/a	n/a	"2020-02-07 11:34:26.068765"	"2020-02-07 11:34:26.573208"	31	2.30171066666667
"S200207"	"Processing_Speed"	"LEFT"	"DOWN"	265.925299999992	533.3333344	""	n/a	n/a	n/a	n/a	n/a	n/a	"2020-02-07 11:34:27.115422"	"2020-02-07 11:34:27.588157"	32	2.30171066666667
"S200207"	"Processing_Speed"	"LEFT"	"DOWN"	296.65270000001	983.3333353	""	n/a	n/a	n/a	n/a	n/a	n/a	"2020-02-07 11:34:28.580322"	"2020-02-07 11:34:29.085581"	33	2.30171066666667
"S200207"	"Processing_Speed"	"LEFT"	"DOWN"	301.137600000004	850.0000017	""	n/a	n/a	n/a	n/a	n/a	n/a	"2020-02-07 11:34:29.944449"	"2020-02-07 11:34:30.453033"	34	2.30171066666667
"S200207"	"Processing_Speed"	"RIGHT"	"DOWN"	283.72920000001	500.000001	""	n/a	n/a	n/a	n/a	n/a	n/a	"2020-02-07 11:34:30.961377"	"2020-02-07 11:34:31.453433"	35	2.30171066666667
"S200207"	"Processing_Speed"	"LEFT"	"DOWN"	253.286599999996	1433.3333362	""	n/a	n/a	n/a	n/a	n/a	n/a	"2020-02-07 11:34:32.895836"	"2020-02-07 11:34:33.357632"	36	2.30171066666667
"S200207"	"Processing_Speed"	"RIGHT"	"DOWN"	245.827199999979	1433.3333362	""	n/a	n/a	n/a	n/a	n/a	n/a	"2020-02-07 11:34:34.799468"	"2020-02-07 11:34:35.253252"	37	2.30171066666667
"S200207"	"Processing_Speed"	"RIGHT"	"DOWN"	256.114800000006	1183.3333357	""	n/a	n/a	n/a	n/a	n/a	n/a	"2020-02-07 11:34:36.445364"	"2020-02-07 11:34:36.908139"	38	2.30171066666667
"S200207"	"Processing_Speed"	"RIGHT"	"DOWN"	475.121300000012	533.3333344	""	n/a	n/a	n/a	n/a	n/a	n/a	"2020-02-07 11:34:37.450010"	"2020-02-07 11:34:38.134035"	39	2.30171066666667
"S200207"	"Processing_Speed"	"LEFT"	"DOWN"	223.499199999992	1183.3333357	""	n/a	n/a	n/a	n/a	n/a	n/a	"2020-02-07 11:34:39.326077"	"2020-02-07 11:34:39.757563"	40	2.30171066666667
"S200207"	"Processing_Speed"	"LEFT"	"DOWN"	230.430600000005	1216.6666691	""	n/a	n/a	n/a	n/a	n/a	n/a	"2020-02-07 11:34:40.982879"	"2020-02-07 11:34:41.421326"	41	2.30171066666667
"S200207"	"Processing_Speed"	"LEFT"	"DOWN"	255.565100000013	1400.0000028	""	n/a	n/a	n/a	n/a	n/a	n/a	"2020-02-07 11:34:42.829957"	"2020-02-07 11:34:43.292848"	42	2.30171066666667
"S200207"	"Processing_Speed"	"RIGHT"	"DOWN"	237.826200000001	850.0000017	""	n/a	n/a	n/a	n/a	n/a	n/a	"2020-02-07 11:34:44.151204"	"2020-02-07 11:34:44.596780"	43	2.30171066666667
"S200207"	"Processing_Speed"	"RIGHT"	"DOWN"	308.909499999999	1300.0000026	"DOWN"	-368.625	n/a	n/a	n/a	n/a	n/a	"2020-02-07 11:34:45.905439"	"2020-02-07 11:34:46.420726"	44	2.30171066666667
"S200207"	"Processing_Speed"	"RIGHT"	"DOWN"	267.490100000003	700.0000014	""	n/a	n/a	n/a	n/a	n/a	n/a	"2020-02-07 11:34:47.129602"	"2020-02-07 11:34:47.605181"	45	2.30171066666667
"S200207"	"Processing_Speed"	"LEFT"	"DOWN"	245.505900000012	1050.0000021	""	n/a	n/a	n/a	n/a	n/a	n/a	"2020-02-07 11:34:48.663270"	"2020-02-07 11:34:49.115774"	46	2.30171066666667
"S200207"	"Processing_Speed"	"RIGHT"	"DOWN"	354.240499999975	1366.6666694	"DOWN"	-281.461	n/a	n/a	n/a	n/a	n/a	"2020-02-07 11:34:50.490805"	"2020-02-07 11:34:51.053849"	47	2.30171066666667
"S200207"	"Processing_Speed"	"RIGHT"	"DOWN"	302.848699999998	600.0000012	""	n/a	n/a	n/a	n/a	n/a	n/a	"2020-02-07 11:34:51.662728"	"2020-02-07 11:34:52.173346"	48	2.30171066666667
"S200207"	"Processing_Speed"	"LEFT"	"DOWN"	251.925600000021	1083.3333355	""	n/a	n/a	n/a	n/a	n/a	n/a	"2020-02-07 11:34:53.265074"	"2020-02-07 11:34:53.725048"	49	2.30171066666667
"S200207"	"Processing_Speed"	"RIGHT"	"DOWN"	236.094399999985	1083.3333355	""	n/a	n/a	n/a	n/a	n/a	n/a	"2020-02-07 11:34:54.817194"	"2020-02-07 11:34:55.259716"	50	2.30171066666667
"S200207"	"Processing_Speed"	"RIGHT"	"DOWN"	862.829499999975	1050.0000021	"DOWN"	-53.363	n/a	n/a	n/a	n/a	n/a	"2020-02-07 11:34:56.318426"	"2020-02-07 11:34:57.388235"	51	2.30171066666667
"S200207"	"Processing_Speed"	"LEFT"	"DOWN"	315.601800000024	916.6666685	""	n/a	n/a	n/a	n/a	n/a	n/a	"2020-02-07 11:34:58.313472"	"2020-02-07 11:34:58.837156"	52	2.30171066666667
"S200207"	"Processing_Speed"	"RIGHT"	"DOWN"	209.659500000015	950.0000019	""	n/a	n/a	n/a	n/a	n/a	n/a	"2020-02-07 11:34:59.795754"	"2020-02-07 11:35:00.213904"	53	2.30171066666667
"S200207"	"Processing_Speed"	"LEFT"	"DOWN"	281.492700000001	1333.333336	""	n/a	n/a	n/a	n/a	n/a	n/a	"2020-02-07 11:35:01.555748"	"2020-02-07 11:35:02.045396"	54	2.30171066666667
"S200207"	"Processing_Speed"	"LEFT"	"DOWN"	384.717800000004	566.6666678	""	n/a	n/a	n/a	n/a	n/a	n/a	"2020-02-07 11:35:02.620730"	"2020-02-07 11:35:03.213526"	55	2.30171066666667
"S200207"	"Processing_Speed"	"RIGHT"	"DOWN"	276.230199999986	1466.6666696	""	n/a	n/a	n/a	n/a	n/a	n/a	"2020-02-07 11:35:04.689369"	"2020-02-07 11:35:05.173107"	56	2.30171066666667
"S200207"	"Processing_Speed"	"LEFT"	"DOWN"	270.564100000001	816.6666683	""	n/a	n/a	n/a	n/a	n/a	n/a	"2020-02-07 11:35:05.998966"	"2020-02-07 11:35:06.476777"	57	2.30171066666667
"S200207"	"Processing_Speed"	"RIGHT"	"DOWN"	255.221900000009	1216.6666691	""	n/a	n/a	n/a	n/a	n/a	n/a	"2020-02-07 11:35:07.702188"	"2020-02-07 11:35:08.165612"	58	2.30171066666667
"S200207"	"Processing_Speed"	"LEFT"	"DOWN"	290.760599999999	500.000001	""	n/a	n/a	n/a	n/a	n/a	n/a	"2020-02-07 11:35:08.674299"	"2020-02-07 11:35:09.173389"	59	2.30171066666667
"S200207"	"Processing_Speed"	"LEFT"	"DOWN"	287.471299999993	600.0000012	""	n/a	n/a	n/a	n/a	n/a	n/a	"2020-02-07 11:35:09.781719"	"2020-02-07 11:35:10.276889"	60	2.30171066666667
"S200207"	"Response_Inhibition"	"RIGHT"	"Time_Max_Exceeded"	1500.05346699997	1050.0000021	""	n/a	n/a	n/a	n/a	n/a	n/a	"2020-02-07 11:38:53.205849"	"2020-02-07 11:38:54.708675"	1	5.66144516666667
"S200207"	"Response_Inhibition"	"RIGHT"	"RIGHT"	479.067000000043	1000.000002	""	n/a	n/a	n/a	n/a	n/a	n/a	"2020-02-07 11:38:55.718852"	"2020-02-07 11:38:56.405601"	2	5.66144516666667
"S200207"	"Response_Inhibition"	"LEFT"	"Time_Max_Exceeded"	1500.0588334	1466.6666696	""	n/a	n/a	n/a	n/a	n/a	n/a	"2020-02-07 11:38:57.881128"	"2020-02-07 11:38:59.384506"	3	5.66144516666667
"S200207"	"Response_Inhibition"	"LEFT"	"LEFT"	530.820899999981	1016.6666687	""	n/a	n/a	n/a	n/a	n/a	n/a	"2020-02-07 11:39:00.410433"	"2020-02-07 11:39:01.149658"	4	5.66144516666667
"S200207"	"Response_Inhibition"	"RIGHT"	"RIGHT"	467.455599999994	916.6666685	""	n/a	n/a	n/a	n/a	n/a	n/a	"2020-02-07 11:39:02.074957"	"2020-02-07 11:39:02.750254"	5	5.66144516666667
"S200207"	"Response_Inhibition"	"LEFT"	"LEFT"	359.733099999971	1366.6666694	""	n/a	n/a	n/a	n/a	n/a	n/a	"2020-02-07 11:39:04.125481"	"2020-02-07 11:39:04.694184"	6	5.66144516666667
"S200207"	"Response_Inhibition"	"RIGHT"	"RIGHT"	416.493333799987	1483.3333363	""	n/a	n/a	n/a	n/a	n/a	n/a	"2020-02-07 11:39:06.185622"	"2020-02-07 11:39:06.813629"	7	5.66144516666667
"S200207"	"Response_Inhibition"	"LEFT"	"LEFT"	418.702199999984	1116.6666689	""	n/a	n/a	n/a	n/a	n/a	n/a	"2020-02-07 11:39:07.939066"	"2020-02-07 11:39:08.565411"	8	5.66144516666667
"S200207"	"Response_Inhibition"	"RIGHT"	"RIGHT"	298.186799999996	1333.333336	""	n/a	n/a	n/a	n/a	n/a	n/a	"2020-02-07 11:39:09.907107"	"2020-02-07 11:39:10.412755"	9	5.66144516666667
"S200207"	"Response_Inhibition"	"LEFT"	"LEFT"	355.389800500012	1216.6666691	""	n/a	n/a	n/a	n/a	n/a	n/a	"2020-02-07 11:39:11.639274"	"2020-02-07 11:39:12.204949"	10	5.66144516666667
"S200207"	"Response_Inhibition"	"LEFT"	"LEFT"	496.332500499994	716.6666681	""	n/a	n/a	n/a	n/a	n/a	n/a	"2020-02-07 11:39:12.930313"	"2020-02-07 11:39:13.637138"	11	5.66144516666667
"S200207"	"Response_Inhibition"	"RIGHT"	"RIGHT"	1019.97679999999	1100.0000022	""	n/a	n/a	n/a	n/a	n/a	n/a	"2020-02-07 11:39:14.745629"	"2020-02-07 11:39:15.973087"	12	5.66144516666667
"S200207"	"Response_Inhibition"	"RIGHT"	"RIGHT"	393.364899999995	1350.0000027	""	n/a	n/a	n/a	n/a	n/a	n/a	"2020-02-07 11:39:17.331637"	"2020-02-07 11:39:17.933025"	13	5.66144516666667
"S200207"	"Response_Inhibition"	"RIGHT"	"RIGHT"	347.910000000013	1500.000003	""	n/a	n/a	n/a	n/a	n/a	n/a	"2020-02-07 11:39:19.441526"	"2020-02-07 11:39:19.997075"	14	5.66144516666667
"S200207"	"Response_Inhibition"	"LEFT"	"LEFT"	331.861899999979	1300.0000026	""	n/a	n/a	n/a	n/a	n/a	n/a	"2020-02-07 11:39:21.305400"	"2020-02-07 11:39:21.845002"	15	5.66144516666667
"S200207"	"Response_Inhibition"	"RIGHT"	"RIGHT"	317.056700000023	1233.3333358	""	n/a	n/a	n/a	n/a	n/a	n/a	"2020-02-07 11:39:23.088482"	"2020-02-07 11:39:23.613630"	16	5.66144516666667
"S200207"	"Response_Inhibition"	"LEFT"	"LEFT"	333.243900000014	850.0000017	""	n/a	n/a	n/a	n/a	n/a	n/a	"2020-02-07 11:39:24.472042"	"2020-02-07 11:39:25.013630"	17	5.66144516666667
"S200207"	"Response_Inhibition"	"RIGHT"	"RIGHT"	253.309300000012	833.333335	""	n/a	n/a	n/a	n/a	n/a	n/a	"2020-02-07 11:39:25.855983"	"2020-02-07 11:39:26.318403"	18	5.66144516666667
"S200207"	"Response_Inhibition"	"RIGHT"	"RIGHT"	383.577699999989	583.3333345	""	n/a	n/a	n/a	n/a	n/a	n/a	"2020-02-07 11:39:26.909778"	"2020-02-07 11:39:27.502588"	19	5.66144516666667
"S200207"	"Response_Inhibition"	"RIGHT"	"RIGHT"	339.119699999969	1283.3333359	""	n/a	n/a	n/a	n/a	n/a	n/a	"2020-02-07 11:39:28.794506"	"2020-02-07 11:39:29.341649"	20	5.66144516666667
"S200207"	"Response_Inhibition"	"RIGHT"	"RIGHT"	338.902500000017	716.6666681	""	n/a	n/a	n/a	n/a	n/a	n/a	"2020-02-07 11:39:30.067005"	"2020-02-07 11:39:30.614528"	21	5.66144516666667
"S200207"	"Response_Inhibition"	"LEFT"	"LEFT"	277.192200000059	1033.3333354	""	n/a	n/a	n/a	n/a	n/a	n/a	"2020-02-07 11:39:31.656548"	"2020-02-07 11:39:32.140747"	22	5.66144516666667
"S200207"	"Response_Inhibition"	"RIGHT"	"RIGHT"	249.241900000015	566.6666678	""	n/a	n/a	n/a	n/a	n/a	n/a	"2020-02-07 11:39:32.716176"	"2020-02-07 11:39:33.173087"	23	5.66144516666667
"S200207"	"Response_Inhibition"	"RIGHT"	"RIGHT"	297.724399999993	1150.0000023	""	n/a	n/a	n/a	n/a	n/a	n/a	"2020-02-07 11:39:34.331845"	"2020-02-07 11:39:34.837527"	24	5.66144516666667
"S200207"	"Response_Inhibition"	"RIGHT"	"RIGHT"	251.892100099895	800.0000016	""	n/a	n/a	n/a	n/a	n/a	n/a	"2020-02-07 11:39:35.646662"	"2020-02-07 11:39:36.110408"	25	5.66144516666667
"S200207"	"Response_Inhibition"	"LEFT"	"LEFT"	439.255400000093	1183.3333357	""	n/a	n/a	n/a	n/a	n/a	n/a	"2020-02-07 11:39:37.302073"	"2020-02-07 11:39:37.950433"	26	5.66144516666667
"S200207"	"Response_Inhibition"	"LEFT"	"LEFT"	370.211300000051	1500.000003	""	n/a	n/a	n/a	n/a	n/a	n/a	"2020-02-07 11:39:39.459411"	"2020-02-07 11:39:40.036835"	27	5.66144516666667
"S200207"	"Response_Inhibition"	"RIGHT"	"RIGHT"	332.99199999999	1466.6666696	""	n/a	n/a	n/a	n/a	n/a	n/a	"2020-02-07 11:39:41.512870"	"2020-02-07 11:39:42.054377"	28	5.66144516666667
"S200207"	"Response_Inhibition"	"LEFT"	"LEFT"	376.190100000031	733.3333348	""	n/a	n/a	n/a	n/a	n/a	n/a	"2020-02-07 11:39:42.797242"	"2020-02-07 11:39:43.381755"	29	5.66144516666667
"S200207"	"Response_Inhibition"	"LEFT"	"LEFT"	419.709200000057	1083.3333355	""	n/a	n/a	n/a	n/a	n/a	n/a	"2020-02-07 11:39:44.474156"	"2020-02-07 11:39:45.101501"	30	5.66144516666667
"S200207"	"Response_Inhibition"	"RIGHT"	"RIGHT"	290.390099999968	733.3333348	""	n/a	n/a	n/a	n/a	n/a	n/a	"2020-02-07 11:39:45.843344"	"2020-02-07 11:39:46.341346"	31	5.66144516666667
"S200207"	"Response_Inhibition"	"RIGHT"	"RIGHT"	333.319500000016	1266.6666692	""	n/a	n/a	n/a	n/a	n/a	n/a	"2020-02-07 11:39:47.616217"	"2020-02-07 11:39:48.157007"	32	5.66144516666667
"S200207"	"Response_Inhibition"	"LEFT"	"LEFT"	270.952400000056	1233.3333358	""	n/a	n/a	n/a	n/a	n/a	n/a	"2020-02-07 11:39:49.398451"	"2020-02-07 11:39:49.878215"	33	5.66144516666667
"S200207"	"Response_Inhibition"	"RIGHT"	"RIGHT"	266.93320000004	1100.0000022	""	n/a	n/a	n/a	n/a	n/a	n/a	"2020-02-07 11:39:50.986443"	"2020-02-07 11:39:51.462199"	34	5.66144516666667
"S200207"	"Response_Inhibition"	"LEFT"	"LEFT"	420.458899999971	1466.6666696	""	n/a	n/a	n/a	n/a	n/a	n/a	"2020-02-07 11:39:52.937326"	"2020-02-07 11:39:53.565959"	35	5.66144516666667
"S200207"	"Response_Inhibition"	"LEFT"	"Time_Max_Exceeded"	1500.05426670001	833.333335	""	n/a	n/a	n/a	n/a	n/a	n/a	"2020-02-07 11:39:54.407895"	"2020-02-07 11:39:55.911895"	36	5.66144516666667
"S200207"	"Response_Inhibition"	"RIGHT"	"RIGHT"	319.114400000103	1150.0000023	""	n/a	n/a	n/a	n/a	n/a	n/a	"2020-02-07 11:39:57.070505"	"2020-02-07 11:39:57.598278"	37	5.66144516666667
"S200207"	"Response_Inhibition"	"LEFT"	"LEFT"	328.303300000016	766.6666682	""	n/a	n/a	n/a	n/a	n/a	n/a	"2020-02-07 11:39:58.373020"	"2020-02-07 11:39:58.910498"	38	5.66144516666667
"S200207"	"Response_Inhibition"	"RIGHT"	"LEFT"	285.446800099977	950.0000019	""	n/a	n/a	n/a	n/a	n/a	n/a	"2020-02-07 11:39:59.869066"	"2020-02-07 11:40:00.364936"	39	5.66144516666667
"S200207"	"Response_Inhibition"	"LEFT"	"LEFT"	336.511600300017	1316.6666693	""	n/a	n/a	n/a	n/a	n/a	n/a	"2020-02-07 11:40:01.689627"	"2020-02-07 11:40:02.237607"	40	5.66144516666667
"S200207"	"Response_Inhibition"	"LEFT"	"LEFT"	532.77920000005	1266.6666692	""	n/a	n/a	n/a	n/a	n/a	n/a	"2020-02-07 11:40:03.512465"	"2020-02-07 11:40:04.252736"	41	5.66144516666667
"S200207"	"Response_Inhibition"	"LEFT"	"LEFT"	338.298099999975	950.0000019	""	n/a	n/a	n/a	n/a	n/a	n/a	"2020-02-07 11:40:05.211462"	"2020-02-07 11:40:05.757003"	42	5.66144516666667
"S200207"	"Response_Inhibition"	"LEFT"	"LEFT"	280.955500000005	783.3333349	""	n/a	n/a	n/a	n/a	n/a	n/a	"2020-02-07 11:40:06.548605"	"2020-02-07 11:40:07.037437"	43	5.66144516666667
"S200207"	"Response_Inhibition"	"LEFT"	"LEFT"	282.363199999963	1133.3333356	""	n/a	n/a	n/a	n/a	n/a	n/a	"2020-02-07 11:40:08.179706"	"2020-02-07 11:40:08.668892"	44	5.66144516666667
"S200207"	"Response_Inhibition"	"LEFT"	"LEFT"	285.470300000043	666.666668	""	n/a	n/a	n/a	n/a	n/a	n/a	"2020-02-07 11:40:09.344633"	"2020-02-07 11:40:09.836819"	45	5.66144516666667
"S200207"	"Response_Inhibition"	"RIGHT"	"RIGHT"	487.013499999989	616.6666679	""	n/a	n/a	n/a	n/a	n/a	n/a	"2020-02-07 11:40:10.462795"	"2020-02-07 11:40:11.156928"	46	5.66144516666667
"S200207"	"Response_Inhibition"	"LEFT"	"LEFT"	295.182899999986	633.3333346	""	n/a	n/a	n/a	n/a	n/a	n/a	"2020-02-07 11:40:11.798391"	"2020-02-07 11:40:12.302202"	47	5.66144516666667
"S200207"	"Response_Inhibition"	"RIGHT"	"RIGHT"	270.769933499955	1300.0000026	""	n/a	n/a	n/a	n/a	n/a	n/a	"2020-02-07 11:40:13.612147"	"2020-02-07 11:40:14.092938"	48	5.66144516666667
"S200207"	"Response_Inhibition"	"LEFT"	"LEFT"	431.501600000047	1416.6666695	""	n/a	n/a	n/a	n/a	n/a	n/a	"2020-02-07 11:40:15.518220"	"2020-02-07 11:40:16.158185"	49	5.66144516666667
"S200207"	"Response_Inhibition"	"LEFT"	"LEFT"	339.276800199971	616.6666679	""	n/a	n/a	n/a	n/a	n/a	n/a	"2020-02-07 11:40:16.782714"	"2020-02-07 11:40:17.333537"	50	5.66144516666667
"S200207"	"Response_Inhibition"	"RIGHT"	"Time_Max_Exceeded"	1500.05560040006	1016.6666687	""	n/a	n/a	n/a	n/a	n/a	n/a	"2020-02-07 11:40:18.358482"	"2020-02-07 11:40:19.861962"	51	5.66144516666667
"S200207"	"Response_Inhibition"	"LEFT"	"LEFT"	346.793400200001	1000.000002	""	n/a	n/a	n/a	n/a	n/a	n/a	"2020-02-07 11:40:20.871864"	"2020-02-07 11:40:21.429940"	52	5.66144516666667
"S200207"	"Response_Inhibition"	"RIGHT"	"Time_Max_Exceeded"	1500.06260000009	1133.3333356	""	n/a	n/a	n/a	n/a	n/a	n/a	"2020-02-07 11:40:22.571227"	"2020-02-07 11:40:24.072216"	53	5.66144516666667
"S200207"	"Response_Inhibition"	"LEFT"	"Time_Max_Exceeded"	1500.05490010005	633.3333346	"RIGHT"	-472.848	n/a	n/a	n/a	n/a	n/a	"2020-02-07 11:40:24.714579"	"2020-02-07 11:40:26.217938"	54	5.66144516666667
"S200207"	"Response_Inhibition"	"LEFT"	"LEFT"	452.927999999929	1333.333336	""	n/a	n/a	n/a	n/a	n/a	n/a	"2020-02-07 11:40:27.560846"	"2020-02-07 11:40:28.220842"	55	5.66144516666667
"S200207"	"Response_Inhibition"	"LEFT"	"LEFT"	409.023200500092	1100.0000022	""	n/a	n/a	n/a	n/a	n/a	n/a	"2020-02-07 11:40:29.328820"	"2020-02-07 11:40:29.948857"	56	5.66144516666667
"S200207"	"Response_Inhibition"	"RIGHT"	"RIGHT"	1042.92029999999	533.3333344	""	n/a	n/a	n/a	n/a	n/a	n/a	"2020-02-07 11:40:30.490924"	"2020-02-07 11:40:31.741401"	57	5.66144516666667
"S200207"	"Response_Inhibition"	"RIGHT"	"Time_Max_Exceeded"	1500.04850029996	783.3333349	""	n/a	n/a	n/a	n/a	n/a	n/a	"2020-02-07 11:40:32.533358"	"2020-02-07 11:40:34.036489"	58	5.66144516666667
"S200207"	"Response_Inhibition"	"RIGHT"	"RIGHT"	828.700099999992	1083.3333355	""	n/a	n/a	n/a	n/a	n/a	n/a	"2020-02-07 11:40:35.129201"	"2020-02-07 11:40:36.165729"	59	5.66144516666667
"S200207"	"Response_Inhibition"	"RIGHT"	"RIGHT"	360.649800000033	966.6666686	""	n/a	n/a	n/a	n/a	n/a	n/a	"2020-02-07 11:40:37.141259"	"2020-02-07 11:40:37.709347"	60	5.66144516666667
"S200207"	"Response_Inhibition"	"RIGHT"	"RIGHT"	362.149199999976	516.6666677	""	n/a	n/a	n/a	n/a	n/a	n/a	"2020-02-07 11:40:38.235035"	"2020-02-07 11:40:38.806615"	61	5.66144516666667
"S200207"	"Response_Inhibition"	"RIGHT"	"RIGHT"	477.021067200028	1366.6666694	""	n/a	n/a	n/a	n/a	n/a	n/a	"2020-02-07 11:40:40.181565"	"2020-02-07 11:40:40.869656"	62	5.66144516666667
"S200207"	"Response_Inhibition"	"LEFT"	"LEFT"	882.236200000079	700.0000014	""	n/a	n/a	n/a	n/a	n/a	n/a	"2020-02-07 11:40:41.579522"	"2020-02-07 11:40:42.669685"	63	5.66144516666667
"S200207"	"Response_Inhibition"	"RIGHT"	"Time_Max_Exceeded"	1500.05743360006	683.3333347	""	n/a	n/a	n/a	n/a	n/a	n/a	"2020-02-07 11:40:43.361991"	"2020-02-07 11:40:44.865442"	64	5.66144516666667
"S200207"	"Response_Inhibition"	"LEFT"	"LEFT"	472.134700000083	1266.6666692	""	n/a	n/a	n/a	n/a	n/a	n/a	"2020-02-07 11:40:46.141390"	"2020-02-07 11:40:46.821668"	65	5.66144516666667
"S200207"	"Response_Inhibition"	"RIGHT"	"Time_Max_Exceeded"	1500.0510334	983.3333353	""	n/a	n/a	n/a	n/a	n/a	n/a	"2020-02-07 11:40:47.813753"	"2020-02-07 11:40:49.317226"	66	5.66144516666667
"S200207"	"Response_Inhibition"	"RIGHT"	"RIGHT"	568.636100000049	583.3333345	""	n/a	n/a	n/a	n/a	n/a	n/a	"2020-02-07 11:40:49.908819"	"2020-02-07 11:40:50.686349"	67	5.66144516666667
"S200207"	"Response_Inhibition"	"RIGHT"	"RIGHT"	486.995999999976	1400.0000028	""	n/a	n/a	n/a	n/a	n/a	n/a	"2020-02-07 11:40:52.094442"	"2020-02-07 11:40:52.789363"	68	5.66144516666667
"S200207"	"Response_Inhibition"	"LEFT"	"LEFT"	359.537100000011	1200.0000024	""	n/a	n/a	n/a	n/a	n/a	n/a	"2020-02-07 11:40:53.997683"	"2020-02-07 11:40:54.566518"	69	5.66144516666667
"S200207"	"Response_Inhibition"	"LEFT"	"LEFT"	584.061499999962	1166.666669	""	n/a	n/a	n/a	n/a	n/a	n/a	"2020-02-07 11:40:55.741270"	"2020-02-07 11:40:56.534531"	70	5.66144516666667
"S200207"	"Response_Inhibition"	"RIGHT"	"Time_Max_Exceeded"	1500.05930040004	1183.3333357	""	n/a	n/a	n/a	n/a	n/a	n/a	"2020-02-07 11:40:57.726423"	"2020-02-07 11:40:59.229535"	71	5.66144516666667
"S200207"	"Response_Inhibition"	"RIGHT"	"RIGHT"	436.840333700013	1166.666669	""	n/a	n/a	n/a	n/a	n/a	n/a	"2020-02-07 11:41:00.405210"	"2020-02-07 11:41:01.053909"	72	5.66144516666667
"S200207"	"Response_Inhibition"	"RIGHT"	"Time_Max_Exceeded"	1500.05573389998	1116.6666689	""	n/a	n/a	n/a	n/a	n/a	n/a	"2020-02-07 11:41:02.179791"	"2020-02-07 11:41:03.683181"	73	5.66144516666667
"S200207"	"Response_Inhibition"	"LEFT"	"Time_Max_Exceeded"	1500.05043380005	1433.3333362	""	n/a	n/a	n/a	n/a	n/a	n/a	"2020-02-07 11:41:05.125953"	"2020-02-07 11:41:06.629338"	74	5.66144516666667
"S200207"	"Response_Inhibition"	"LEFT"	"LEFT"	821.194399999968	1050.0000021	""	n/a	n/a	n/a	n/a	n/a	n/a	"2020-02-07 11:41:07.688908"	"2020-02-07 11:41:08.717576"	75	5.66144516666667
"S200207"	"Response_Inhibition"	"RIGHT"	"RIGHT"	1080.76199999994	766.6666682	""	n/a	n/a	n/a	n/a	n/a	n/a	"2020-02-07 11:41:09.492535"	"2020-02-07 11:41:10.782676"	76	5.66144516666667
"S200207"	"Response_Inhibition"	"LEFT"	"LEFT"	537.00409999999	533.3333344	""	n/a	n/a	n/a	n/a	n/a	n/a	"2020-02-07 11:41:11.324849"	"2020-02-07 11:41:12.070455"	77	5.66144516666667
"S200207"	"Response_Inhibition"	"LEFT"	"LEFT"	669.830100000013	1416.6666695	""	n/a	n/a	n/a	n/a	n/a	n/a	"2020-02-07 11:41:13.495755"	"2020-02-07 11:41:14.373466"	78	5.66144516666667
"S200207"	"Response_Inhibition"	"RIGHT"	"RIGHT"	549.03539999998	650.0000013	""	n/a	n/a	n/a	n/a	n/a	n/a	"2020-02-07 11:41:15.033172"	"2020-02-07 11:41:15.790391"	79	5.66144516666667
"S200207"	"Response_Inhibition"	"RIGHT"	"RIGHT"	378.195000000005	933.3333352	""	n/a	n/a	n/a	n/a	n/a	n/a	"2020-02-07 11:41:16.732135"	"2020-02-07 11:41:17.318423"	80	5.66144516666667
"S200207"	"Response_Inhibition"	"RIGHT"	"RIGHT"	552.744200000006	550.0000011	""	n/a	n/a	n/a	n/a	n/a	n/a	"2020-02-07 11:41:17.876883"	"2020-02-07 11:41:18.638367"	81	5.66144516666667
"S200207"	"Response_Inhibition"	"LEFT"	"LEFT"	395.916866800047	566.6666678	""	n/a	n/a	n/a	n/a	n/a	n/a	"2020-02-07 11:41:19.214972"	"2020-02-07 11:41:19.822316"	82	5.66144516666667
"S200207"	"Response_Inhibition"	"RIGHT"	"RIGHT"	559.360599999991	783.3333349	""	n/a	n/a	n/a	n/a	n/a	n/a	"2020-02-07 11:41:20.614390"	"2020-02-07 11:41:21.382098"	83	5.66144516666667
"S200207"	"Response_Inhibition"	"LEFT"	"Time_Max_Exceeded"	1500.04893360002	783.3333349	""	n/a	n/a	n/a	n/a	n/a	n/a	"2020-02-07 11:41:22.173542"	"2020-02-07 11:41:23.677284"	84	5.66144516666667
"S200207"	"Response_Inhibition"	"RIGHT"	"Time_Max_Exceeded"	1500.06276700007	633.3333346	""	n/a	n/a	n/a	n/a	n/a	n/a	"2020-02-07 11:41:24.318774"	"2020-02-07 11:41:25.822908"	85	5.66144516666667
"S200207"	"Response_Inhibition"	"RIGHT"	"RIGHT"	625.332200000003	1316.6666693	""	n/a	n/a	n/a	n/a	n/a	n/a	"2020-02-07 11:41:27.148025"	"2020-02-07 11:41:27.983439"	86	5.66144516666667
"S200207"	"Response_Inhibition"	"LEFT"	"LEFT"	464.925033700035	1250.0000025	""	n/a	n/a	n/a	n/a	n/a	n/a	"2020-02-07 11:41:29.241365"	"2020-02-07 11:41:29.916944"	87	5.66144516666667
"S200207"	"Response_Inhibition"	"RIGHT"	"RIGHT"	903.439000000049	816.6666683	""	n/a	n/a	n/a	n/a	n/a	n/a	"2020-02-07 11:41:30.742347"	"2020-02-07 11:41:31.853085"	88	5.66144516666667
"S200207"	"Response_Inhibition"	"LEFT"	"LEFT"	552.763000000027	583.3333345	""	n/a	n/a	n/a	n/a	n/a	n/a	"2020-02-07 11:41:32.444411"	"2020-02-07 11:41:33.206087"	89	5.66144516666667
"S200207"	"Response_Inhibition"	"LEFT"	"LEFT"	385.603967099925	1050.0000021	""	n/a	n/a	n/a	n/a	n/a	n/a	"2020-02-07 11:41:34.265188"	"2020-02-07 11:41:34.861642"	90	5.66144516666667
"S200207"	"Response_Inhibition"	"RIGHT"	"Time_Max_Exceeded"	1500.04973349993	1250.0000025	""	n/a	n/a	n/a	n/a	n/a	n/a	"2020-02-07 11:41:36.120653"	"2020-02-07 11:41:37.623516"	91	5.66144516666667
"S200207"	"Response_Inhibition"	"LEFT"	"LEFT"	665.472399999999	1066.6666688	""	n/a	n/a	n/a	n/a	n/a	n/a	"2020-02-07 11:41:38.699919"	"2020-02-07 11:41:39.574263"	92	5.66144516666667
"S200207"	"Response_Inhibition"	"LEFT"	"Time_Max_Exceeded"	1500.04593389994	900.0000018	""	n/a	n/a	n/a	n/a	n/a	n/a	"2020-02-07 11:41:40.482377"	"2020-02-07 11:41:41.985971"	93	5.66144516666667
"S200207"	"Response_Inhibition"	"LEFT"	"Time_Max_Exceeded"	1500.10356700004	1283.3333359	""	n/a	n/a	n/a	n/a	n/a	n/a	"2020-02-07 11:41:43.277436"	"2020-02-07 11:41:44.781363"	94	5.66144516666667
"S200207"	"Response_Inhibition"	"RIGHT"	"RIGHT"	695.197600000029	1216.6666691	""	n/a	n/a	n/a	n/a	n/a	n/a	"2020-02-07 11:41:46.006781"	"2020-02-07 11:41:46.909610"	95	5.66144516666667
"S200207"	"Response_Inhibition"	"RIGHT"	"RIGHT"	478.643099999999	1416.6666695	""	n/a	n/a	n/a	n/a	n/a	n/a	"2020-02-07 11:41:48.334948"	"2020-02-07 11:41:49.020808"	96	5.66144516666667
"S200207"	"Response_Inhibition"	"RIGHT"	"RIGHT"	391.177300000095	1033.3333354	""	n/a	n/a	n/a	n/a	n/a	n/a	"2020-02-07 11:41:50.062753"	"2020-02-07 11:41:50.661724"	97	5.66144516666667
"S200207"	"Response_Inhibition"	"LEFT"	"Time_Max_Exceeded"	1500.05726689998	850.0000017	""	n/a	n/a	n/a	n/a	n/a	n/a	"2020-02-07 11:41:51.520471"	"2020-02-07 11:41:53.023373"	98	5.66144516666667
"S200207"	"Response_Inhibition"	"LEFT"	"LEFT"	728.646400000002	900.0000018	""	n/a	n/a	n/a	n/a	n/a	n/a	"2020-02-07 11:41:53.933336"	"2020-02-07 11:41:54.868840"	99	5.66144516666667
"S200207"	"Response_Inhibition"	"LEFT"	"LEFT"	474.457899999948	550.0000011	""	n/a	n/a	n/a	n/a	n/a	n/a	"2020-02-07 11:41:55.427105"	"2020-02-07 11:41:56.108913"	100	5.66144516666667
"S200207"	"Response_Inhibition"	"LEFT"	"LEFT"	372.920600000043	683.3333347	""	n/a	n/a	n/a	n/a	n/a	n/a	"2020-02-07 11:41:56.801125"	"2020-02-07 11:41:57.381739"	101	5.66144516666667
"S200207"	"Response_Inhibition"	"LEFT"	"LEFT"	954.667399999948	500.000001	""	n/a	n/a	n/a	n/a	n/a	n/a	"2020-02-07 11:41:57.891251"	"2020-02-07 11:41:59.053051"	102	5.66144516666667
"S200207"	"Response_Inhibition"	"RIGHT"	"RIGHT"	508.92250000004	883.3333351	""	n/a	n/a	n/a	n/a	n/a	n/a	"2020-02-07 11:41:59.945236"	"2020-02-07 11:42:00.662424"	103	5.66144516666667
"S200207"	"Response_Inhibition"	"RIGHT"	"RIGHT"	350.137399999994	1216.6666691	""	n/a	n/a	n/a	n/a	n/a	n/a	"2020-02-07 11:42:01.887544"	"2020-02-07 11:42:02.444822"	104	5.66144516666667
"S200207"	"Response_Inhibition"	"RIGHT"	"RIGHT"	377.181300299984	900.0000018	""	n/a	n/a	n/a	n/a	n/a	n/a	"2020-02-07 11:42:03.352910"	"2020-02-07 11:42:03.941714"	105	5.66144516666667
"S200207"	"Response_Inhibition"	"RIGHT"	"Time_Max_Exceeded"	1500.05720039997	533.3333344	""	n/a	n/a	n/a	n/a	n/a	n/a	"2020-02-07 11:42:04.484902"	"2020-02-07 11:42:05.987538"	106	5.66144516666667
"S200207"	"Response_Inhibition"	"RIGHT"	"RIGHT"	641.954300000066	1366.6666694	""	n/a	n/a	n/a	n/a	n/a	n/a	"2020-02-07 11:42:07.363637"	"2020-02-07 11:42:08.212866"	107	5.66144516666667
"S200207"	"Response_Inhibition"	"LEFT"	"LEFT"	509.634899999924	866.6666684	""	n/a	n/a	n/a	n/a	n/a	n/a	"2020-02-07 11:42:09.088282"	"2020-02-07 11:42:09.804957"	108	5.66144516666667
"S200207"	"Response_Inhibition"	"LEFT"	"LEFT"	668.974300000059	683.3333347	""	n/a	n/a	n/a	n/a	n/a	n/a	"2020-02-07 11:42:10.496695"	"2020-02-07 11:42:11.374513"	109	5.66144516666667
"S200207"	"Response_Inhibition"	"RIGHT"	"RIGHT"	563.668099999973	683.3333347	""	n/a	n/a	n/a	n/a	n/a	n/a	"2020-02-07 11:42:12.066338"	"2020-02-07 11:42:12.838494"	110	5.66144516666667
"S200207"	"Response_Inhibition"	"RIGHT"	"RIGHT"	447.528467200002	700.0000014	""	n/a	n/a	n/a	n/a	n/a	n/a	"2020-02-07 11:42:13.547446"	"2020-02-07 11:42:14.205738"	111	5.66144516666667
"S200207"	"Response_Inhibition"	"LEFT"	"Time_Max_Exceeded"	1500.07180059993	533.3333344	""	n/a	n/a	n/a	n/a	n/a	n/a	"2020-02-07 11:42:14.747327"	"2020-02-07 11:42:16.250981"	112	5.66144516666667
"S200207"	"Response_Inhibition"	"LEFT"	"LEFT"	591.33410000004	883.3333351	""	n/a	n/a	n/a	n/a	n/a	n/a	"2020-02-07 11:42:17.142337"	"2020-02-07 11:42:17.940960"	113	5.66144516666667
"S200207"	"Response_Inhibition"	"RIGHT"	"RIGHT"	388.19383359995	1433.3333362	""	n/a	n/a	n/a	n/a	n/a	n/a	"2020-02-07 11:42:19.382490"	"2020-02-07 11:42:19.980890"	114	5.66144516666667
"S200207"	"Response_Inhibition"	"LEFT"	"Time_Max_Exceeded"	1500.0557668	1383.3333361	""	n/a	n/a	n/a	n/a	n/a	n/a	"2020-02-07 11:42:21.372848"	"2020-02-07 11:42:22.875498"	115	5.66144516666667
"S200207"	"Response_Inhibition"	"LEFT"	"LEFT"	496.363300000098	800.0000016	""	n/a	n/a	n/a	n/a	n/a	n/a	"2020-02-07 11:42:23.685315"	"2020-02-07 11:42:24.390479"	116	5.66144516666667
"S200207"	"Response_Inhibition"	"LEFT"	"LEFT"	370.304999999917	1483.3333363	""	n/a	n/a	n/a	n/a	n/a	n/a	"2020-02-07 11:42:25.883756"	"2020-02-07 11:42:26.460847"	117	5.66144516666667
"S200207"	"Response_Inhibition"	"LEFT"	"LEFT"	378.537199999982	950.0000019	""	n/a	n/a	n/a	n/a	n/a	n/a	"2020-02-07 11:42:27.419466"	"2020-02-07 11:42:28.006566"	118	5.66144516666667
"S200207"	"Response_Inhibition"	"LEFT"	"LEFT"	493.634533699913	1350.0000027	""	n/a	n/a	n/a	n/a	n/a	n/a	"2020-02-07 11:42:29.365420"	"2020-02-07 11:42:30.070514"	119	5.66144516666667
"S200207"	"Response_Inhibition"	"RIGHT"	"Time_Max_Exceeded"	1500.04826720003	866.6666684	""	n/a	n/a	n/a	n/a	n/a	n/a	"2020-02-07 11:42:30.945796"	"2020-02-07 11:42:32.448585"	120	5.66144516666667
"S200207"	"Response_Inhibition"	"RIGHT"	"RIGHT"	601.197899999988	666.666668	""	n/a	n/a	n/a	n/a	n/a	n/a	"2020-02-07 11:42:33.124621"	"2020-02-07 11:42:33.934032"	121	5.66144516666667
"S200207"	"Response_Inhibition"	"RIGHT"	"Time_Max_Exceeded"	1500.05546669994	1066.6666688	""	n/a	n/a	n/a	n/a	n/a	n/a	"2020-02-07 11:42:35.009098"	"2020-02-07 11:42:36.512627"	122	5.66144516666667
"S200207"	"Response_Inhibition"	"RIGHT"	"RIGHT"	827.826900000105	1000.000002	""	n/a	n/a	n/a	n/a	n/a	n/a	"2020-02-07 11:42:37.522158"	"2020-02-07 11:42:38.558610"	123	5.66144516666667
"S200207"	"Response_Inhibition"	"RIGHT"	"RIGHT"	552.417999999989	950.0000019	""	n/a	n/a	n/a	n/a	n/a	n/a	"2020-02-07 11:42:39.517564"	"2020-02-07 11:42:40.279079"	124	5.66144516666667
"S200207"	"Response_Inhibition"	"LEFT"	"LEFT"	567.050300000005	583.3333345	""	n/a	n/a	n/a	n/a	n/a	n/a	"2020-02-07 11:42:40.871164"	"2020-02-07 11:42:41.645105"	125	5.66144516666667
"S200207"	"Response_Inhibition"	"RIGHT"	"RIGHT"	346.401566799994	1466.6666696	""	n/a	n/a	n/a	n/a	n/a	n/a	"2020-02-07 11:42:43.120009"	"2020-02-07 11:42:43.677657"	126	5.66144516666667
"S200207"	"Response_Inhibition"	"RIGHT"	"RIGHT"	743.685300000038	1200.0000024	""	n/a	n/a	n/a	n/a	n/a	n/a	"2020-02-07 11:42:44.885912"	"2020-02-07 11:42:45.838183"	127	5.66144516666667
"S200207"	"Response_Inhibition"	"RIGHT"	"RIGHT"	414.580799999953	1416.6666695	""	n/a	n/a	n/a	n/a	n/a	n/a	"2020-02-07 11:42:47.263564"	"2020-02-07 11:42:47.884948"	128	5.66144516666667
"S200207"	"Response_Inhibition"	"RIGHT"	"Time_Max_Exceeded"	1500.04760019999	500.000001	""	n/a	n/a	n/a	n/a	n/a	n/a	"2020-02-07 11:42:48.393314"	"2020-02-07 11:42:49.896558"	129	5.66144516666667
"S200207"	"Response_Inhibition"	"LEFT"	"LEFT"	484.600300000011	983.3333353	""	n/a	n/a	n/a	n/a	n/a	n/a	"2020-02-07 11:42:50.889544"	"2020-02-07 11:42:51.582245"	130	5.66144516666667
"S200207"	"Response_Inhibition"	"LEFT"	"LEFT"	410.213300000009	516.6666677	""	n/a	n/a	n/a	n/a	n/a	n/a	"2020-02-07 11:42:52.107368"	"2020-02-07 11:42:52.725368"	131	5.66144516666667
"S200207"	"Response_Inhibition"	"LEFT"	"LEFT"	343.968700000005	600.0000012	""	n/a	n/a	n/a	n/a	n/a	n/a	"2020-02-07 11:42:53.333543"	"2020-02-07 11:42:53.885087"	132	5.66144516666667
"S200207"	"Response_Inhibition"	"LEFT"	"LEFT"	400.391799999966	1400.0000028	""	n/a	n/a	n/a	n/a	n/a	n/a	"2020-02-07 11:42:55.293606"	"2020-02-07 11:42:55.901014"	133	5.66144516666667
"S200207"	"Response_Inhibition"	"RIGHT"	"Time_Max_Exceeded"	1500.04933340002	1266.6666692	""	n/a	n/a	n/a	n/a	n/a	n/a	"2020-02-07 11:42:57.175784"	"2020-02-07 11:42:58.678976"	134	5.66144516666667
"S200207"	"Response_Inhibition"	"LEFT"	"LEFT"	449.332200000072	1100.0000022	""	n/a	n/a	n/a	n/a	n/a	n/a	"2020-02-07 11:42:59.788627"	"2020-02-07 11:43:00.446592"	135	5.66144516666667
"S200207"	"Response_Inhibition"	"LEFT"	"LEFT"	294.501967100061	933.3333352	""	n/a	n/a	n/a	n/a	n/a	n/a	"2020-02-07 11:43:01.388169"	"2020-02-07 11:43:01.892862"	136	5.66144516666667
"S200207"	"Response_Inhibition"	"LEFT"	"LEFT"	520.890399999985	1000.000002	""	n/a	n/a	n/a	n/a	n/a	n/a	"2020-02-07 11:43:02.900901"	"2020-02-07 11:43:03.630213"	137	5.66144516666667
"S200207"	"Response_Inhibition"	"RIGHT"	"RIGHT"	474.608900000021	900.0000018	""	n/a	n/a	n/a	n/a	n/a	n/a	"2020-02-07 11:43:04.539331"	"2020-02-07 11:43:05.220963"	138	5.66144516666667
"S200207"	"Response_Inhibition"	"LEFT"	"LEFT"	547.427599999992	1316.6666693	""	n/a	n/a	n/a	n/a	n/a	n/a	"2020-02-07 11:43:06.546676"	"2020-02-07 11:43:07.302441"	139	5.66144516666667
"S200207"	"Response_Inhibition"	"RIGHT"	"RIGHT"	340.025299999979	1450.0000029	""	n/a	n/a	n/a	n/a	n/a	n/a	"2020-02-07 11:43:08.762004"	"2020-02-07 11:43:09.309095"	140	5.66144516666667
"S200207"	"Response_Inhibition"	"LEFT"	"LEFT"	379.170700000032	916.6666685	""	n/a	n/a	n/a	n/a	n/a	n/a	"2020-02-07 11:43:10.234234"	"2020-02-07 11:43:10.820844"	141	5.66144516666667
"S200207"	"Response_Inhibition"	"RIGHT"	"Time_Max_Exceeded"	1500.05396689998	1383.3333361	""	n/a	n/a	n/a	n/a	n/a	n/a	"2020-02-07 11:43:12.213059"	"2020-02-07 11:43:13.716339"	142	5.66144516666667
"S200207"	"Response_Inhibition"	"RIGHT"	"RIGHT"	470.806300000049	1050.0000021	""	n/a	n/a	n/a	n/a	n/a	n/a	"2020-02-07 11:43:14.774961"	"2020-02-07 11:43:15.453122"	143	5.66144516666667
"S200207"	"Response_Inhibition"	"LEFT"	"LEFT"	311.346966900073	1150.0000023	""	n/a	n/a	n/a	n/a	n/a	n/a	"2020-02-07 11:43:16.611653"	"2020-02-07 11:43:17.134256"	144	5.66144516666667
"S200207"	"Response_Inhibition"	"LEFT"	"LEFT"	448.409499999912	1366.6666694	""	n/a	n/a	n/a	n/a	n/a	n/a	"2020-02-07 11:43:18.509147"	"2020-02-07 11:43:19.165030"	145	5.66144516666667
"S200207"	"Response_Inhibition"	"RIGHT"	"Time_Max_Exceeded"	1500.0625667	733.3333348	""	n/a	n/a	n/a	n/a	n/a	n/a	"2020-02-07 11:43:19.906347"	"2020-02-07 11:43:21.410502"	146	5.66144516666667
"S200207"	"Response_Inhibition"	"RIGHT"	"LEFT"	524.848099999986	1316.6666693	""	n/a	n/a	n/a	n/a	n/a	n/a	"2020-02-07 11:43:22.736744"	"2020-02-07 11:43:23.470577"	147	5.66144516666667
"S200207"	"Response_Inhibition"	"LEFT"	"LEFT"	496.069299999931	966.6666686	""	n/a	n/a	n/a	n/a	n/a	n/a	"2020-02-07 11:43:24.445569"	"2020-02-07 11:43:25.149723"	148	5.66144516666667
"S200207"	"Response_Inhibition"	"RIGHT"	"RIGHT"	766.198900000063	633.3333346	""	n/a	n/a	n/a	n/a	n/a	n/a	"2020-02-07 11:43:25.791882"	"2020-02-07 11:43:26.765779"	149	5.66144516666667
"S200207"	"Response_Inhibition"	"LEFT"	"LEFT"	334.97669999997	1216.6666691	""	n/a	n/a	n/a	n/a	n/a	n/a	"2020-02-07 11:43:27.990762"	"2020-02-07 11:43:28.532721"	150	5.66144516666667
"S200207"	"Response_Inhibition"	"LEFT"	"LEFT"	375.065199999995	816.6666683	""	n/a	n/a	n/a	n/a	n/a	n/a	"2020-02-07 11:43:29.358683"	"2020-02-07 11:43:29.941159"	151	5.66144516666667
"S200207"	"Response_Inhibition"	"RIGHT"	"RIGHT"	537.390899999991	750.0000015	""	n/a	n/a	n/a	n/a	n/a	n/a	"2020-02-07 11:43:30.700867"	"2020-02-07 11:43:31.445000"	152	5.66144516666667
"S200207"	"Response_Inhibition"	"LEFT"	"LEFT"	298.502600000006	750.0000015	""	n/a	n/a	n/a	n/a	n/a	n/a	"2020-02-07 11:43:32.203664"	"2020-02-07 11:43:32.710608"	153	5.66144516666667
"S200207"	"Response_Inhibition"	"RIGHT"	"RIGHT"	323.47029999994	850.0000017	""	n/a	n/a	n/a	n/a	n/a	n/a	"2020-02-07 11:43:33.570674"	"2020-02-07 11:43:34.101819"	154	5.66144516666667
"S200207"	"Response_Inhibition"	"LEFT"	"LEFT"	302.616433800007	1150.0000023	""	n/a	n/a	n/a	n/a	n/a	n/a	"2020-02-07 11:43:35.259816"	"2020-02-07 11:43:35.774474"	155	5.66144516666667
"S200207"	"Response_Inhibition"	"LEFT"	"LEFT"	457.759699999997	733.3333348	""	n/a	n/a	n/a	n/a	n/a	n/a	"2020-02-07 11:43:36.516327"	"2020-02-07 11:43:37.182172"	156	5.66144516666667
"S200207"	"Response_Inhibition"	"LEFT"	"LEFT"	373.230700000022	650.0000013	""	n/a	n/a	n/a	n/a	n/a	n/a	"2020-02-07 11:43:37.840822"	"2020-02-07 11:43:38.421190"	157	5.66144516666667
"S200207"	"Response_Inhibition"	"RIGHT"	"RIGHT"	318.499299999985	850.0000017	""	n/a	n/a	n/a	n/a	n/a	n/a	"2020-02-07 11:43:39.279475"	"2020-02-07 11:43:39.805029"	158	5.66144516666667
"S200207"	"Response_Inhibition"	"RIGHT"	"Time_Max_Exceeded"	1500.05910000004	600.0000012	""	n/a	n/a	n/a	n/a	n/a	n/a	"2020-02-07 11:43:40.413607"	"2020-02-07 11:43:41.913367"	159	5.66144516666667
"S200207"	"Response_Inhibition"	"LEFT"	"LEFT"	344.889200000011	1450.0000029	""	n/a	n/a	n/a	n/a	n/a	n/a	"2020-02-07 11:43:43.372820"	"2020-02-07 11:43:43.926376"	160	5.66144516666667
"S200207"	"Response_Selection"	"LEFT"	"LEFT"	373.269499999992	1033.3333354	""	n/a	n/a	n/a	n/a	n/a	n/a	"2020-02-07 11:36:03.903636"	"2020-02-07 11:36:04.485536"	1	2.8666695
"S200207"	"Response_Selection"	"LEFT"	"LEFT"	357.658099999981	933.3333352	""	n/a	n/a	n/a	n/a	n/a	n/a	"2020-02-07 11:36:05.431325"	"2020-02-07 11:36:05.998245"	2	2.8666695
"S200207"	"Response_Selection"	"LEFT"	"LEFT"	320.094600000004	550.0000011	""	n/a	n/a	n/a	n/a	n/a	n/a	"2020-02-07 11:36:06.557247"	"2020-02-07 11:36:07.084954"	3	2.8666695
"S200207"	"Response_Selection"	"LEFT"	"LEFT"	302.424599999995	1216.6666691	""	n/a	n/a	n/a	n/a	n/a	n/a	"2020-02-07 11:36:08.311293"	"2020-02-07 11:36:08.821496"	4	2.8666695
"S200207"	"Response_Selection"	"RIGHT"	"LEFT"	299.067200000025	883.3333351	""	n/a	n/a	n/a	n/a	n/a	n/a	"2020-02-07 11:36:09.714562"	"2020-02-07 11:36:10.221498"	5	2.8666695
"S200207"	"Response_Selection"	"LEFT"	"LEFT"	320.935599999984	1350.0000027	""	n/a	n/a	n/a	n/a	n/a	n/a	"2020-02-07 11:36:11.580858"	"2020-02-07 11:36:12.110074"	6	2.8666695
"S200207"	"Response_Selection"	"LEFT"	"LEFT"	297.636499999953	1133.3333356	""	n/a	n/a	n/a	n/a	n/a	n/a	"2020-02-07 11:36:13.251945"	"2020-02-07 11:36:13.757595"	7	2.8666695
"S200207"	"Response_Selection"	"RIGHT"	"RIGHT"	307.330100000001	500.000001	""	n/a	n/a	n/a	n/a	n/a	n/a	"2020-02-07 11:36:14.265786"	"2020-02-07 11:36:14.781392"	8	2.8666695
"S200207"	"Response_Selection"	"RIGHT"	"RIGHT"	288.156599999979	783.3333349	""	n/a	n/a	n/a	n/a	n/a	n/a	"2020-02-07 11:36:15.573454"	"2020-02-07 11:36:16.070600"	9	2.8666695
"S200207"	"Response_Selection"	"RIGHT"	"RIGHT"	266.491099999996	683.3333347	""	n/a	n/a	n/a	n/a	n/a	n/a	"2020-02-07 11:36:16.762548"	"2020-02-07 11:36:17.236931"	10	2.8666695
"S200207"	"Response_Selection"	"RIGHT"	"RIGHT"	257.854199999997	750.0000015	""	n/a	n/a	n/a	n/a	n/a	n/a	"2020-02-07 11:36:17.995261"	"2020-02-07 11:36:18.460830"	11	2.8666695
"S200207"	"Response_Selection"	"RIGHT"	"RIGHT"	272.809499999994	983.3333353	""	n/a	n/a	n/a	n/a	n/a	n/a	"2020-02-07 11:36:19.452229"	"2020-02-07 11:36:19.932711"	12	2.8666695
"S200207"	"Response_Selection"	"LEFT"	"LEFT"	285.46769999997	1066.6666688	""	n/a	n/a	n/a	n/a	n/a	n/a	"2020-02-07 11:36:21.008313"	"2020-02-07 11:36:21.500920"	13	2.8666695
"S200207"	"Response_Selection"	"LEFT"	"LEFT"	318.616799999972	833.333335	""	n/a	n/a	n/a	n/a	n/a	n/a	"2020-02-07 11:36:22.342734"	"2020-02-07 11:36:22.869359"	14	2.8666695
"S200207"	"Response_Selection"	"RIGHT"	"RIGHT"	262.488700000006	1416.6666695	""	n/a	n/a	n/a	n/a	n/a	n/a	"2020-02-07 11:36:24.294498"	"2020-02-07 11:36:24.764849"	15	2.8666695
"S200207"	"Response_Selection"	"LEFT"	"LEFT"	292.842500000006	883.3333351	""	n/a	n/a	n/a	n/a	n/a	n/a	"2020-02-07 11:36:25.656793"	"2020-02-07 11:36:26.156936"	16	2.8666695
"S200207"	"Response_Selection"	"RIGHT"	"RIGHT"	239.867100000026	1200.0000024	""	n/a	n/a	n/a	n/a	n/a	n/a	"2020-02-07 11:36:27.365623"	"2020-02-07 11:36:27.813440"	17	2.8666695
"S200207"	"Response_Selection"	"RIGHT"	"RIGHT"	348.545000000001	1066.6666688	""	n/a	n/a	n/a	n/a	n/a	n/a	"2020-02-07 11:36:28.889034"	"2020-02-07 11:36:29.445578"	18	2.8666695
"S200207"	"Response_Selection"	"LEFT"	"LEFT"	291.654499999993	1500.000003	""	n/a	n/a	n/a	n/a	n/a	n/a	"2020-02-07 11:36:30.953849"	"2020-02-07 11:36:31.453548"	19	2.8666695
"S200207"	"Response_Selection"	"RIGHT"	"RIGHT"	236.478800000043	1266.6666692	""	n/a	n/a	n/a	n/a	n/a	n/a	"2020-02-07 11:36:32.728833"	"2020-02-07 11:36:33.173658"	20	2.8666695
"S200207"	"Response_Selection"	"LEFT"	"LEFT"	267.44739999998	1300.0000026	""	n/a	n/a	n/a	n/a	n/a	n/a	"2020-02-07 11:36:34.482142"	"2020-02-07 11:36:34.957327"	21	2.8666695
"S200207"	"Response_Selection"	"RIGHT"	"RIGHT"	245.564399999978	1250.0000025	""	n/a	n/a	n/a	n/a	n/a	n/a	"2020-02-07 11:36:36.215421"	"2020-02-07 11:36:36.668860"	22	2.8666695
"S200207"	"Response_Selection"	"RIGHT"	"RIGHT"	336.961799999983	1366.6666694	""	n/a	n/a	n/a	n/a	n/a	n/a	"2020-02-07 11:36:38.044708"	"2020-02-07 11:36:38.589358"	23	2.8666695
"S200207"	"Response_Selection"	"RIGHT"	"RIGHT"	405.116299999975	866.6666684	""	n/a	n/a	n/a	n/a	n/a	n/a	"2020-02-07 11:36:39.464219"	"2020-02-07 11:36:40.077349"	24	2.8666695
"S200207"	"Response_Selection"	"RIGHT"	"RIGHT"	258.963999999992	1116.6666689	""	n/a	n/a	n/a	n/a	n/a	n/a	"2020-02-07 11:36:41.202478"	"2020-02-07 11:36:41.668818"	25	2.8666695
"S200207"	"Response_Selection"	"RIGHT"	"RIGHT"	267.058700000007	916.6666685	""	n/a	n/a	n/a	n/a	n/a	n/a	"2020-02-07 11:36:42.594302"	"2020-02-07 11:36:43.069474"	26	2.8666695
"S200207"	"Response_Selection"	"LEFT"	"LEFT"	307.383899999991	500.000001	""	n/a	n/a	n/a	n/a	n/a	n/a	"2020-02-07 11:36:43.577711"	"2020-02-07 11:36:44.093315"	27	2.8666695
"S200207"	"Response_Selection"	"LEFT"	"LEFT"	316.154500000039	683.3333347	""	n/a	n/a	n/a	n/a	n/a	n/a	"2020-02-07 11:36:44.785546"	"2020-02-07 11:36:45.310209"	28	2.8666695
"S200207"	"Response_Selection"	"LEFT"	"LEFT"	301.394000000016	633.3333346	""	n/a	n/a	n/a	n/a	n/a	n/a	"2020-02-07 11:36:45.951499"	"2020-02-07 11:36:46.461702"	29	2.8666695
"S200207"	"Response_Selection"	"RIGHT"	"RIGHT"	243.107800000018	1500.000003	""	n/a	n/a	n/a	n/a	n/a	n/a	"2020-02-07 11:36:47.970235"	"2020-02-07 11:36:48.420762"	30	2.8666695
"S200207"	"Response_Selection"	"LEFT"	"LEFT"	333.179700000017	1266.6666692	""	n/a	n/a	n/a	n/a	n/a	n/a	"2020-02-07 11:36:49.695658"	"2020-02-07 11:36:50.236806"	31	2.8666695
"S200207"	"Response_Selection"	"RIGHT"	"RIGHT"	240.168900000015	800.0000016	""	n/a	n/a	n/a	n/a	n/a	n/a	"2020-02-07 11:36:51.045644"	"2020-02-07 11:36:51.492766"	32	2.8666695
"S200207"	"Response_Selection"	"LEFT"	"LEFT"	292.208199999948	1083.3333355	""	n/a	n/a	n/a	n/a	n/a	n/a	"2020-02-07 11:36:52.585360"	"2020-02-07 11:36:53.084912"	33	2.8666695
"S200207"	"Response_Selection"	"LEFT"	"RIGHT"	209.507599999995	966.6666686	""	n/a	n/a	n/a	n/a	n/a	n/a	"2020-02-07 11:36:54.059625"	"2020-02-07 11:36:54.477540"	34	2.8666695
"S200207"	"Response_Selection"	"RIGHT"	"RIGHT"	319.06429999998	1400.0000028	""	n/a	n/a	n/a	n/a	n/a	n/a	"2020-02-07 11:36:55.886074"	"2020-02-07 11:36:56.413490"	35	2.8666695
"S200207"	"Response_Selection"	"RIGHT"	"RIGHT"	258.084699999984	933.3333352	""	n/a	n/a	n/a	n/a	n/a	n/a	"2020-02-07 11:36:57.355007"	"2020-02-07 11:36:57.821589"	36	2.8666695
"S200207"	"Response_Selection"	"LEFT"	"LEFT"	378.082399999982	533.3333344	""	n/a	n/a	n/a	n/a	n/a	n/a	"2020-02-07 11:36:58.362947"	"2020-02-07 11:36:58.949412"	37	2.8666695
"S200207"	"Response_Selection"	"RIGHT"	"RIGHT"	281.061700000009	733.3333348	""	n/a	n/a	n/a	n/a	n/a	n/a	"2020-02-07 11:36:59.692669"	"2020-02-07 11:37:00.181112"	38	2.8666695
"S200207"	"Response_Selection"	"LEFT"	"LEFT"	258.512800000005	733.3333348	""	n/a	n/a	n/a	n/a	n/a	n/a	"2020-02-07 11:37:00.922368"	"2020-02-07 11:37:01.389668"	39	2.8666695
"S200207"	"Response_Selection"	"LEFT"	"LEFT"	319.151699999964	800.0000016	""	n/a	n/a	n/a	n/a	n/a	n/a	"2020-02-07 11:37:02.197888"	"2020-02-07 11:37:02.724910"	40	2.8666695
"S200207"	"Response_Selection"	"LEFT"	"LEFT"	319.746799999962	1400.0000028	"RIGHT"	-220.446	n/a	n/a	n/a	n/a	n/a	"2020-02-07 11:37:04.133676"	"2020-02-07 11:37:04.661390"	41	2.8666695
"S200207"	"Response_Selection"	"LEFT"	"LEFT"	320.780300000024	1366.6666694	""	n/a	n/a	n/a	n/a	n/a	n/a	"2020-02-07 11:37:06.036923"	"2020-02-07 11:37:06.565193"	42	2.8666695
"S200207"	"Response_Selection"	"RIGHT"	"RIGHT"	278.451200000006	833.333335	""	n/a	n/a	n/a	n/a	n/a	n/a	"2020-02-07 11:37:07.406816"	"2020-02-07 11:37:07.893053"	43	2.8666695
"S200207"	"Response_Selection"	"LEFT"	"LEFT"	303.999200000021	783.3333349	""	n/a	n/a	n/a	n/a	n/a	n/a	"2020-02-07 11:37:08.685080"	"2020-02-07 11:37:09.196756"	44	2.8666695
"S200207"	"Response_Selection"	"RIGHT"	"LEFT"	293.846900000005	1033.3333354	""	n/a	n/a	n/a	n/a	n/a	n/a	"2020-02-07 11:37:10.239652"	"2020-02-07 11:37:10.742321"	45	2.8666695
"S200207"	"Response_Selection"	"RIGHT"	"RIGHT"	337.961699999994	700.0000014	""	n/a	n/a	n/a	n/a	n/a	n/a	"2020-02-07 11:37:11.451561"	"2020-02-07 11:37:11.997576"	46	2.8666695
"S200207"	"Response_Selection"	"RIGHT"	"RIGHT"	254.545800000017	1016.6666687	""	n/a	n/a	n/a	n/a	n/a	n/a	"2020-02-07 11:37:13.022821"	"2020-02-07 11:37:13.485413"	47	2.8666695
"S200207"	"Response_Selection"	"LEFT"	"LEFT"	286.984099999984	1416.6666695	""	n/a	n/a	n/a	n/a	n/a	n/a	"2020-02-07 11:37:14.910290"	"2020-02-07 11:37:15.405048"	48	2.8666695
"S200207"	"Response_Selection"	"RIGHT"	"RIGHT"	283.147299999996	1316.6666693	""	n/a	n/a	n/a	n/a	n/a	n/a	"2020-02-07 11:37:16.730619"	"2020-02-07 11:37:17.221238"	49	2.8666695
"S200207"	"Response_Selection"	"RIGHT"	"RIGHT"	433.605899999975	550.0000011	""	n/a	n/a	n/a	n/a	n/a	n/a	"2020-02-07 11:37:17.779933"	"2020-02-07 11:37:18.421555"	50	2.8666695
"S200207"	"Response_Selection"	"RIGHT"	"RIGHT"	381.274900000051	650.0000013	""	n/a	n/a	n/a	n/a	n/a	n/a	"2020-02-07 11:37:19.079930"	"2020-02-07 11:37:19.669025"	51	2.8666695
"S200207"	"Response_Selection"	"RIGHT"	"RIGHT"	272.759199999996	583.3333345	""	n/a	n/a	n/a	n/a	n/a	n/a	"2020-02-07 11:37:20.261047"	"2020-02-07 11:37:20.741639"	52	2.8666695
"S200207"	"Response_Selection"	"LEFT"	"LEFT"	270.507899999984	1016.6666687	""	n/a	n/a	n/a	n/a	n/a	n/a	"2020-02-07 11:37:21.767259"	"2020-02-07 11:37:22.244970"	53	2.8666695
"S200207"	"Response_Selection"	"RIGHT"	"RIGHT"	314.525899999978	533.3333344	""	n/a	n/a	n/a	n/a	n/a	n/a	"2020-02-07 11:37:22.786618"	"2020-02-07 11:37:23.309582"	54	2.8666695
"S200207"	"Response_Selection"	"LEFT"	"LEFT"	318.392300000028	583.3333345	""	n/a	n/a	n/a	n/a	n/a	n/a	"2020-02-07 11:37:23.902541"	"2020-02-07 11:37:24.430453"	55	2.8666695
"S200207"	"Response_Selection"	"RIGHT"	"RIGHT"	291.170999999963	1083.3333355	""	n/a	n/a	n/a	n/a	n/a	n/a	"2020-02-07 11:37:25.522010"	"2020-02-07 11:37:26.020710"	56	2.8666695
"S200207"	"Response_Selection"	"RIGHT"	"RIGHT"	338.163000000009	1350.0000027	""	n/a	n/a	n/a	n/a	n/a	n/a	"2020-02-07 11:37:27.379216"	"2020-02-07 11:37:27.925301"	57	2.8666695
"S200207"	"Response_Selection"	"LEFT"	"LEFT"	328.720500000031	1166.666669	""	n/a	n/a	n/a	n/a	n/a	n/a	"2020-02-07 11:37:29.100798"	"2020-02-07 11:37:29.637368"	58	2.8666695
"S200207"	"Response_Selection"	"RIGHT"	"RIGHT"	333.408799999972	1450.0000029	""	n/a	n/a	n/a	n/a	n/a	n/a	"2020-02-07 11:37:31.096011"	"2020-02-07 11:37:31.637003"	59	2.8666695
"S200207"	"Response_Selection"	"LEFT"	"LEFT"	256.053500000007	1200.0000024	""	n/a	n/a	n/a	n/a	n/a	n/a	"2020-02-07 11:37:32.845376"	"2020-02-07 11:37:33.308885"	60	2.8666695
"S200207"	"Response_Selection"	"LEFT"	"LEFT"	341.162199999985	866.6666684	""	n/a	n/a	n/a	n/a	n/a	n/a	"2020-02-07 11:37:34.183645"	"2020-02-07 11:37:34.734140"	61	2.8666695
"S200207"	"Response_Selection"	"RIGHT"	"RIGHT"	288.03640000001	966.6666686	""	n/a	n/a	n/a	n/a	n/a	n/a	"2020-02-07 11:37:35.709274"	"2020-02-07 11:37:36.204759"	62	2.8666695
"S200207"	"Response_Selection"	"RIGHT"	"RIGHT"	310.843500000033	633.3333346	""	n/a	n/a	n/a	n/a	n/a	n/a	"2020-02-07 11:37:36.846052"	"2020-02-07 11:37:37.364718"	63	2.8666695
"S200207"	"Response_Selection"	"LEFT"	"LEFT"	297.109799999987	983.3333353	""	n/a	n/a	n/a	n/a	n/a	n/a	"2020-02-07 11:37:38.356547"	"2020-02-07 11:37:38.862196"	64	2.8666695
"S200207"	"Response_Selection"	"LEFT"	"LEFT"	305.788399999983	916.6666685	""	n/a	n/a	n/a	n/a	n/a	n/a	"2020-02-07 11:37:39.786961"	"2020-02-07 11:37:40.301605"	65	2.8666695
"S200207"	"Response_Selection"	"LEFT"	"LEFT"	398.855099999992	600.0000012	""	n/a	n/a	n/a	n/a	n/a	n/a	"2020-02-07 11:37:40.910625"	"2020-02-07 11:37:41.516721"	66	2.8666695
"S200207"	"Response_Selection"	"LEFT"	"LEFT"	276.355500000022	700.0000014	""	n/a	n/a	n/a	n/a	n/a	n/a	"2020-02-07 11:37:42.225399"	"2020-02-07 11:37:42.709344"	67	2.8666695
"S200207"	"Response_Selection"	"LEFT"	"LEFT"	265.447400000028	750.0000015	""	n/a	n/a	n/a	n/a	n/a	n/a	"2020-02-07 11:37:43.467804"	"2020-02-07 11:37:43.941571"	68	2.8666695
"S200207"	"Response_Selection"	"RIGHT"	"RIGHT"	279.118900000014	600.0000012	""	n/a	n/a	n/a	n/a	n/a	n/a	"2020-02-07 11:37:44.550647"	"2020-02-07 11:37:45.036915"	69	2.8666695
"S200207"	"Response_Selection"	"LEFT"	"LEFT"	301.101899999992	1250.0000025	""	n/a	n/a	n/a	n/a	n/a	n/a	"2020-02-07 11:37:46.296738"	"2020-02-07 11:37:46.805457"	70	2.8666695
"S200207"	"Response_Selection"	"LEFT"	"LEFT"	276.79310000002	1466.6666696	""	n/a	n/a	n/a	n/a	n/a	n/a	"2020-02-07 11:37:48.280730"	"2020-02-07 11:37:48.765429"	71	2.8666695
"S200207"	"Response_Selection"	"LEFT"	"LEFT"	282.875500000046	1316.6666693	""	n/a	n/a	n/a	n/a	n/a	n/a	"2020-02-07 11:37:50.090762"	"2020-02-07 11:37:50.581508"	72	2.8666695
"S200207"	"Response_Selection"	"LEFT"	"LEFT"	285.177000000033	650.0000013	""	n/a	n/a	n/a	n/a	n/a	n/a	"2020-02-07 11:37:51.239773"	"2020-02-07 11:37:51.733465"	73	2.8666695
"S200207"	"Response_Selection"	"RIGHT"	"RIGHT"	302.963499999976	1216.6666691	""	n/a	n/a	n/a	n/a	n/a	n/a	"2020-02-07 11:37:52.958709"	"2020-02-07 11:37:53.469084"	74	2.8666695
"S200207"	"Response_Selection"	"RIGHT"	"RIGHT"	276.08349999997	1300.0000026	""	n/a	n/a	n/a	n/a	n/a	n/a	"2020-02-07 11:37:54.777135"	"2020-02-07 11:37:55.260878"	75	2.8666695
"S200207"	"Response_Selection"	"LEFT"	"LEFT"	267.544199999975	1116.6666689	""	n/a	n/a	n/a	n/a	n/a	n/a	"2020-02-07 11:37:56.386310"	"2020-02-07 11:37:56.861023"	76	2.8666695
"S200207"	"Response_Selection"	"RIGHT"	"RIGHT"	282.42929999999	1133.3333356	""	n/a	n/a	n/a	n/a	n/a	n/a	"2020-02-07 11:37:58.002384"	"2020-02-07 11:37:58.494654"	77	2.8666695
"S200207"	"Response_Selection"	"RIGHT"	"RIGHT"	303.348799999981	1166.666669	""	n/a	n/a	n/a	n/a	n/a	n/a	"2020-02-07 11:37:59.670201"	"2020-02-07 11:38:00.181586"	78	2.8666695
"S200207"	"Response_Selection"	"LEFT"	"LEFT"	348.675200000002	1450.0000029	""	n/a	n/a	n/a	n/a	n/a	n/a	"2020-02-07 11:38:01.640575"	"2020-02-07 11:38:02.197067"	79	2.8666695
"S200207"	"Response_Selection"	"RIGHT"	"RIGHT"	293.288799999971	1466.6666696	""	n/a	n/a	n/a	n/a	n/a	n/a	"2020-02-07 11:38:03.671804"	"2020-02-07 11:38:04.173109"	80	2.8666695
