Participant	Task	Stimulus_Side	Response	RT	ITI	Previous_Response	Previous_RT	Trial_Onset	Trial_End	Trial_Order	Duration	Conflict	Cue_Response	Cue_Response_RT	Stop_Signal	Stop_Signal_RT
S200306	Conflict_Resolution	RIGHT	RIGHT	539.631200000031	1416.6666695	n/a	n/a	2020-03-06 13:49:05.624381	2020-03-06 13:49:06.371777	1	6.13418621666667	False	n/a	n/a	n/a	n/a
S200306	Conflict_Resolution	LEFT	LEFT	598.908199999983	1316.6666693	n/a	n/a	2020-03-06 13:49:07.709175	2020-03-06 13:49:08.515671	2	6.13418621666667	True	n/a	n/a	n/a	n/a
S200306	Conflict_Resolution	RIGHT	RIGHT	364.357499999983	800.0000016	n/a	n/a	2020-03-06 13:49:09.335335	2020-03-06 13:49:09.907932	3	6.13418621666667	False	n/a	n/a	n/a	n/a
S200306	Conflict_Resolution	RIGHT	RIGHT	410.740900000064	1083.3333355	n/a	n/a	2020-03-06 13:49:11.008839	2020-03-06 13:49:11.627560	4	6.13418621666667	False	n/a	n/a	n/a	n/a
S200306	Conflict_Resolution	LEFT	RIGHT	375.938200000064	916.6666685	n/a	n/a	2020-03-06 13:49:12.564365	2020-03-06 13:49:13.148311	5	6.13418621666667	False	n/a	n/a	n/a	n/a
S200306	Conflict_Resolution	RIGHT	RIGHT	448.968100000002	1283.3333359	n/a	n/a	2020-03-06 13:49:14.451282	2020-03-06 13:49:15.108331	6	6.13418621666667	False	n/a	n/a	n/a	n/a
S200306	Conflict_Resolution	LEFT	LEFT	346.535000000017	850.0000017	n/a	n/a	2020-03-06 13:49:15.977647	2020-03-06 13:49:16.531748	7	6.13418621666667	False	n/a	n/a	n/a	n/a
S200306	Conflict_Resolution	LEFT	LEFT	695.544499999983	1350.0000027	n/a	n/a	2020-03-06 13:49:17.900784	2020-03-06 13:49:18.803901	8	6.13418621666667	True	n/a	n/a	n/a	n/a
S200306	Conflict_Resolution	RIGHT	LEFT	476.414599999998	1000.000002	n/a	n/a	2020-03-06 13:49:19.823307	2020-03-06 13:49:20.506874	9	6.13418621666667	True	n/a	n/a	n/a	n/a
S200306	Conflict_Resolution	LEFT	LEFT	554.868700000043	1266.6666692	n/a	n/a	2020-03-06 13:49:21.793329	2020-03-06 13:49:22.556037	10	6.13418621666667	False	n/a	n/a	n/a	n/a
S200306	Conflict_Resolution	LEFT	LEFT	434.311900000012	1450.0000029	n/a	n/a	2020-03-06 13:49:24.025581	2020-03-06 13:49:24.668146	11	6.13418621666667	False	n/a	n/a	n/a	n/a
S200306	Conflict_Resolution	LEFT	LEFT	389.910800000052	1166.666669	n/a	n/a	2020-03-06 13:49:25.853507	2020-03-06 13:49:26.452355	12	6.13418621666667	False	n/a	n/a	n/a	n/a
S200306	Conflict_Resolution	RIGHT	RIGHT	609.023200000024	650.0000013	n/a	n/a	2020-03-06 13:49:27.123138	2020-03-06 13:49:27.941051	13	6.13418621666667	True	n/a	n/a	n/a	n/a
S200306	Conflict_Resolution	RIGHT	RIGHT	492.516900000055	600.0000012	n/a	n/a	2020-03-06 13:49:28.558676	2020-03-06 13:49:29.259834	14	6.13418621666667	True	n/a	n/a	n/a	n/a
S200306	Conflict_Resolution	RIGHT	RIGHT	441.85600000003	683.3333347	n/a	n/a	2020-03-06 13:49:29.962439	2020-03-06 13:49:30.612063	15	6.13418621666667	False	n/a	n/a	n/a	n/a
S200306	Conflict_Resolution	LEFT	LEFT	397.523799999931	583.3333345	n/a	n/a	2020-03-06 13:49:31.214072	2020-03-06 13:49:31.819982	16	6.13418621666667	False	n/a	n/a	n/a	n/a
S200306	Conflict_Resolution	RIGHT	RIGHT	437.057100000061	1033.3333354	n/a	n/a	2020-03-06 13:49:32.871198	2020-03-06 13:49:33.516316	17	6.13418621666667	False	n/a	n/a	n/a	n/a
S200306	Conflict_Resolution	LEFT	LEFT	396.950199999992	966.6666686	n/a	n/a	2020-03-06 13:49:34.503397	2020-03-06 13:49:35.108069	18	6.13418621666667	False	n/a	n/a	n/a	n/a
S200306	Conflict_Resolution	RIGHT	RIGHT	538.729799999942	633.3333346	n/a	n/a	2020-03-06 13:49:35.761517	2020-03-06 13:49:36.508716	19	6.13418621666667	True	n/a	n/a	n/a	n/a
S200306	Conflict_Resolution	LEFT	LEFT	559.033900000031	716.6666681	n/a	n/a	2020-03-06 13:49:37.244486	2020-03-06 13:49:38.011857	20	6.13418621666667	True	n/a	n/a	n/a	n/a
S200306	Conflict_Resolution	LEFT	LEFT	724.369700000011	1016.6666687	n/a	n/a	2020-03-06 13:49:39.047024	2020-03-06 13:49:39.978815	21	6.13418621666667	True	n/a	n/a	n/a	n/a
S200306	Conflict_Resolution	LEFT	LEFT	457.728799999927	1150.0000023	n/a	n/a	2020-03-06 13:49:41.146070	2020-03-06 13:49:41.811883	22	6.13418621666667	True	n/a	n/a	n/a	n/a
S200306	Conflict_Resolution	LEFT	LEFT	655.725599999982	1300.0000026	n/a	n/a	2020-03-06 13:49:43.132626	2020-03-06 13:49:43.995540	23	6.13418621666667	False	n/a	n/a	n/a	n/a
S200306	Conflict_Resolution	LEFT	LEFT	566.564900000003	533.3333344	n/a	n/a	2020-03-06 13:49:44.549672	2020-03-06 13:49:45.324428	24	6.13418621666667	True	n/a	n/a	n/a	n/a
S200306	Conflict_Resolution	RIGHT	LEFT	402.652900000021	1466.6666696	n/a	n/a	2020-03-06 13:49:46.808703	2020-03-06 13:49:47.421228	25	6.13418621666667	True	n/a	n/a	n/a	n/a
S200306	Conflict_Resolution	RIGHT	RIGHT	461.712899999952	983.3333353	n/a	n/a	2020-03-06 13:49:48.422084	2020-03-06 13:49:49.091769	26	6.13418621666667	False	n/a	n/a	n/a	n/a
S200306	Conflict_Resolution	RIGHT	RIGHT	407.046299999934	550.0000011	n/a	n/a	2020-03-06 13:49:49.661247	2020-03-06 13:49:50.276413	27	6.13418621666667	False	n/a	n/a	n/a	n/a
S200306	Conflict_Resolution	LEFT	LEFT	448.392799999965	1100.0000022	n/a	n/a	2020-03-06 13:49:51.395077	2020-03-06 13:49:52.052460	28	6.13418621666667	False	n/a	n/a	n/a	n/a
S200306	Conflict_Resolution	LEFT	LEFT	410.149100000012	1050.0000021	n/a	n/a	2020-03-06 13:49:53.122332	2020-03-06 13:49:53.739996	29	6.13418621666667	False	n/a	n/a	n/a	n/a
S200306	Conflict_Resolution	LEFT	LEFT	479.554499999949	733.3333348	n/a	n/a	2020-03-06 13:49:54.492590	2020-03-06 13:49:55.180414	30	6.13418621666667	True	n/a	n/a	n/a	n/a
S200306	Conflict_Resolution	RIGHT	RIGHT	545.424000000025	1100.0000022	n/a	n/a	2020-03-06 13:49:56.297920	2020-03-06 13:49:57.051614	31	6.13418621666667	True	n/a	n/a	n/a	n/a
S200306	Conflict_Resolution	LEFT	LEFT	461.931699999923	783.3333349	n/a	n/a	2020-03-06 13:49:57.854269	2020-03-06 13:49:58.522895	32	6.13418621666667	False	n/a	n/a	n/a	n/a
S200306	Conflict_Resolution	RIGHT	RIGHT	521.513200000072	700.0000014	n/a	n/a	2020-03-06 13:49:59.242281	2020-03-06 13:49:59.972062	33	6.13418621666667	False	n/a	n/a	n/a	n/a
S200306	Conflict_Resolution	RIGHT	RIGHT	592.232099999933	1316.6666693	n/a	n/a	2020-03-06 13:50:01.307297	2020-03-06 13:50:02.107581	34	6.13418621666667	True	n/a	n/a	n/a	n/a
S200306	Conflict_Resolution	RIGHT	LEFT	428.370699999959	1033.3333354	n/a	n/a	2020-03-06 13:50:03.159076	2020-03-06 13:50:03.796086	35	6.13418621666667	True	n/a	n/a	n/a	n/a
S200306	Conflict_Resolution	RIGHT	RIGHT	402.778800000078	1433.3333362	n/a	n/a	2020-03-06 13:50:05.249208	2020-03-06 13:50:05.860046	36	6.13418621666667	False	n/a	n/a	n/a	n/a
S200306	Conflict_Resolution	LEFT	LEFT	403.896799999984	1200.0000024	n/a	n/a	2020-03-06 13:50:07.079772	2020-03-06 13:50:07.692230	37	6.13418621666667	False	n/a	n/a	n/a	n/a
S200306	Conflict_Resolution	LEFT	LEFT	423.208399999908	900.0000018	n/a	n/a	2020-03-06 13:50:08.612551	2020-03-06 13:50:09.244284	38	6.13418621666667	False	n/a	n/a	n/a	n/a
S200306	Conflict_Resolution	RIGHT	RIGHT	509.076700000037	550.0000011	n/a	n/a	2020-03-06 13:50:09.814914	2020-03-06 13:50:10.531972	39	6.13418621666667	True	n/a	n/a	n/a	n/a
S200306	Conflict_Resolution	LEFT	LEFT	426.742999999988	683.3333347	n/a	n/a	2020-03-06 13:50:11.232552	2020-03-06 13:50:11.867824	40	6.13418621666667	False	n/a	n/a	n/a	n/a
S200306	Conflict_Resolution	LEFT	LEFT	598.274700000047	566.6666678	n/a	n/a	2020-03-06 13:50:12.453248	2020-03-06 13:50:13.259710	41	6.13418621666667	True	n/a	n/a	n/a	n/a
S200306	Conflict_Resolution	LEFT	LEFT	429.313400000069	1366.6666694	n/a	n/a	2020-03-06 13:50:14.645917	2020-03-06 13:50:15.283756	42	6.13418621666667	False	n/a	n/a	n/a	n/a
S200306	Conflict_Resolution	LEFT	LEFT	459.399300000086	816.6666683	n/a	n/a	2020-03-06 13:50:16.120613	2020-03-06 13:50:16.787922	43	6.13418621666667	False	n/a	n/a	n/a	n/a
S200306	Conflict_Resolution	LEFT	LEFT	513.903599999935	1066.6666688	n/a	n/a	2020-03-06 13:50:17.874298	2020-03-06 13:50:18.596154	44	6.13418621666667	True	n/a	n/a	n/a	n/a
S200306	Conflict_Resolution	RIGHT	RIGHT	501.955800000019	950.0000019	n/a	n/a	2020-03-06 13:50:19.565482	2020-03-06 13:50:20.275817	45	6.13418621666667	True	n/a	n/a	n/a	n/a
S200306	Conflict_Resolution	RIGHT	RIGHT	582.439499999964	1150.0000023	n/a	n/a	2020-03-06 13:50:21.445086	2020-03-06 13:50:22.236239	46	6.13418621666667	True	n/a	n/a	n/a	n/a
S200306	Conflict_Resolution	LEFT	LEFT	573.439500000063	583.3333345	n/a	n/a	2020-03-06 13:50:22.838406	2020-03-06 13:50:23.619985	47	6.13418621666667	True	n/a	n/a	n/a	n/a
S200306	Conflict_Resolution	LEFT	LEFT	400.635999999963	733.3333348	n/a	n/a	2020-03-06 13:50:24.370808	2020-03-06 13:50:24.980095	48	6.13418621666667	False	n/a	n/a	n/a	n/a
S200306	Conflict_Resolution	LEFT	LEFT	537.198100000069	1266.6666692	n/a	n/a	2020-03-06 13:50:26.266817	2020-03-06 13:50:27.011711	49	6.13418621666667	True	n/a	n/a	n/a	n/a
S200306	Conflict_Resolution	LEFT	LEFT	563.993199999913	616.6666679	n/a	n/a	2020-03-06 13:50:27.647370	2020-03-06 13:50:28.420164	50	6.13418621666667	True	n/a	n/a	n/a	n/a
S200306	Conflict_Resolution	LEFT	LEFT	856.743000000051	1500.000003	n/a	n/a	2020-03-06 13:50:29.939083	2020-03-06 13:50:31.003447	51	6.13418621666667	False	n/a	n/a	n/a	n/a
S200306	Conflict_Resolution	RIGHT	RIGHT	585.098199999948	1100.0000022	n/a	n/a	2020-03-06 13:50:32.122898	2020-03-06 13:50:32.915664	52	6.13418621666667	False	n/a	n/a	n/a	n/a
S200306	Conflict_Resolution	LEFT	LEFT	368.173599999977	1316.6666693	n/a	n/a	2020-03-06 13:50:34.251220	2020-03-06 13:50:34.828262	53	6.13418621666667	False	n/a	n/a	n/a	n/a
S200306	Conflict_Resolution	RIGHT	RIGHT	672.577100000012	900.0000018	n/a	n/a	2020-03-06 13:50:35.747489	2020-03-06 13:50:36.628401	54	6.13418621666667	True	n/a	n/a	n/a	n/a
S200306	Conflict_Resolution	LEFT	LEFT	427.88239999993	816.6666683	n/a	n/a	2020-03-06 13:50:37.464292	2020-03-06 13:50:38.099546	55	6.13418621666667	True	n/a	n/a	n/a	n/a
S200306	Conflict_Resolution	RIGHT	RIGHT	468.533100000059	783.3333349	n/a	n/a	2020-03-06 13:50:38.903626	2020-03-06 13:50:39.579590	56	6.13418621666667	True	n/a	n/a	n/a	n/a
S200306	Conflict_Resolution	LEFT	LEFT	505.687700000067	683.3333347	n/a	n/a	2020-03-06 13:50:40.282698	2020-03-06 13:50:40.995895	57	6.13418621666667	True	n/a	n/a	n/a	n/a
S200306	Conflict_Resolution	LEFT	LEFT	464.230400000019	1466.6666696	n/a	n/a	2020-03-06 13:50:42.483796	2020-03-06 13:50:43.155837	58	6.13418621666667	False	n/a	n/a	n/a	n/a
S200306	Conflict_Resolution	LEFT	LEFT	594.299199999909	1450.0000029	n/a	n/a	2020-03-06 13:50:44.625845	2020-03-06 13:50:45.428066	59	6.13418621666667	True	n/a	n/a	n/a	n/a
S200306	Conflict_Resolution	LEFT	LEFT	457.777300000089	1066.6666688	n/a	n/a	2020-03-06 13:50:46.513686	2020-03-06 13:50:47.180068	60	6.13418621666667	False	n/a	n/a	n/a	n/a
S200306	Conflict_Resolution	LEFT	LEFT	487.949000000071	950.0000019	n/a	n/a	2020-03-06 13:50:48.148161	2020-03-06 13:50:48.844832	61	6.13418621666667	False	n/a	n/a	n/a	n/a
S200306	Conflict_Resolution	RIGHT	RIGHT	518.575700000042	950.0000019	n/a	n/a	2020-03-06 13:50:49.812925	2020-03-06 13:50:50.539028	62	6.13418621666667	False	n/a	n/a	n/a	n/a
S200306	Conflict_Resolution	RIGHT	LEFT	439.683999999943	733.3333348	n/a	n/a	2020-03-06 13:50:51.291630	2020-03-06 13:50:51.940408	63	6.13418621666667	True	n/a	n/a	n/a	n/a
S200306	Conflict_Resolution	LEFT	LEFT	600.388700000053	916.6666685	n/a	n/a	2020-03-06 13:50:52.875963	2020-03-06 13:50:53.684396	64	6.13418621666667	True	n/a	n/a	n/a	n/a
S200306	Conflict_Resolution	LEFT	LEFT	890.403600000013	1000.000002	n/a	n/a	2020-03-06 13:50:54.704995	2020-03-06 13:50:55.803955	65	6.13418621666667	True	n/a	n/a	n/a	n/a
S200306	Conflict_Resolution	RIGHT	RIGHT	551.740300000006	750.0000015	n/a	n/a	2020-03-06 13:50:56.572151	2020-03-06 13:50:57.332064	66	6.13418621666667	True	n/a	n/a	n/a	n/a
S200306	Conflict_Resolution	RIGHT	RIGHT	775.000599999998	933.3333352	n/a	n/a	2020-03-06 13:50:58.284509	2020-03-06 13:50:59.267958	67	6.13418621666667	True	n/a	n/a	n/a	n/a
S200306	Conflict_Resolution	RIGHT	RIGHT	390.819500000021	1183.3333357	n/a	n/a	2020-03-06 13:51:00.468489	2020-03-06 13:51:01.066763	68	6.13418621666667	False	n/a	n/a	n/a	n/a
S200306	Conflict_Resolution	RIGHT	RIGHT	373.653300000001	650.0000013	n/a	n/a	2020-03-06 13:51:01.734330	2020-03-06 13:51:02.316360	69	6.13418621666667	False	n/a	n/a	n/a	n/a
S200306	Conflict_Resolution	LEFT	LEFT	505.935099999988	900.0000018	n/a	n/a	2020-03-06 13:51:03.234370	2020-03-06 13:51:03.948123	70	6.13418621666667	True	n/a	n/a	n/a	n/a
S200306	Conflict_Resolution	LEFT	LEFT	470.302800000013	1350.0000027	n/a	n/a	2020-03-06 13:51:05.317029	2020-03-06 13:51:05.994626	71	6.13418621666667	False	n/a	n/a	n/a	n/a
S200306	Conflict_Resolution	LEFT	LEFT	613.37960000003	616.6666679	n/a	n/a	2020-03-06 13:51:06.630135	2020-03-06 13:51:07.452504	72	6.13418621666667	False	n/a	n/a	n/a	n/a
S200306	Conflict_Resolution	RIGHT	RIGHT	570.302699999957	850.0000017	n/a	n/a	2020-03-06 13:51:08.321714	2020-03-06 13:51:09.099426	73	6.13418621666667	False	n/a	n/a	n/a	n/a
S200306	Conflict_Resolution	RIGHT	RIGHT	366.675900000018	1366.6666694	n/a	n/a	2020-03-06 13:51:10.485412	2020-03-06 13:51:11.059904	74	6.13418621666667	False	n/a	n/a	n/a	n/a
S200306	Conflict_Resolution	RIGHT	RIGHT	355.309000000034	833.333335	n/a	n/a	2020-03-06 13:51:11.912046	2020-03-06 13:51:12.475785	75	6.13418621666667	False	n/a	n/a	n/a	n/a
S200306	Conflict_Resolution	RIGHT	RIGHT	353.916700000013	1266.6666692	n/a	n/a	2020-03-06 13:51:13.761473	2020-03-06 13:51:14.324000	76	6.13418621666667	False	n/a	n/a	n/a	n/a
S200306	Conflict_Resolution	LEFT	LEFT	419.593899999995	1216.6666691	n/a	n/a	2020-03-06 13:51:15.560547	2020-03-06 13:51:16.186922	77	6.13418621666667	False	n/a	n/a	n/a	n/a
S200306	Conflict_Resolution	RIGHT	RIGHT	429.259999999999	600.0000012	n/a	n/a	2020-03-06 13:51:16.806118	2020-03-06 13:51:17.443959	78	6.13418621666667	False	n/a	n/a	n/a	n/a
S200306	Conflict_Resolution	LEFT	LEFT	459.722899999974	1200.0000024	n/a	n/a	2020-03-06 13:51:18.664521	2020-03-06 13:51:19.332403	79	6.13418621666667	True	n/a	n/a	n/a	n/a
S200306	Conflict_Resolution	RIGHT	RIGHT	585.081800000012	900.0000018	n/a	n/a	2020-03-06 13:51:20.251070	2020-03-06 13:51:21.043688	80	6.13418621666667	False	n/a	n/a	n/a	n/a
S200306	Conflict_Resolution	RIGHT	RIGHT	525.103899999976	1383.3333361	n/a	n/a	2020-03-06 13:51:22.446150	2020-03-06 13:51:23.180138	81	6.13418621666667	True	n/a	n/a	n/a	n/a
S200306	Conflict_Resolution	RIGHT	RIGHT	587.917099999913	800.0000016	n/a	n/a	2020-03-06 13:51:24.000254	2020-03-06 13:51:24.795477	82	6.13418621666667	True	n/a	n/a	n/a	n/a
S200306	Conflict_Resolution	RIGHT	RIGHT	582.957099999931	533.3333344	n/a	n/a	2020-03-06 13:51:25.349024	2020-03-06 13:51:26.139941	83	6.13418621666667	False	n/a	n/a	n/a	n/a
S200306	Conflict_Resolution	LEFT	LEFT	506.765599999994	1466.6666696	n/a	n/a	2020-03-06 13:51:27.624468	2020-03-06 13:51:28.339679	84	6.13418621666667	True	n/a	n/a	n/a	n/a
S200306	Conflict_Resolution	LEFT	LEFT	503.754599999979	566.6666678	n/a	n/a	2020-03-06 13:51:28.924307	2020-03-06 13:51:29.636125	85	6.13418621666667	False	n/a	n/a	n/a	n/a
S200306	Conflict_Resolution	LEFT	LEFT	588.470200000074	1216.6666691	n/a	n/a	2020-03-06 13:51:30.870989	2020-03-06 13:51:31.668075	86	6.13418621666667	True	n/a	n/a	n/a	n/a
S200306	Conflict_Resolution	LEFT	LEFT	621.86829999996	966.6666686	n/a	n/a	2020-03-06 13:51:32.653813	2020-03-06 13:51:33.483230	87	6.13418621666667	True	n/a	n/a	n/a	n/a
S200306	Conflict_Resolution	LEFT	LEFT	834.589100000017	1100.0000022	n/a	n/a	2020-03-06 13:51:34.601476	2020-03-06 13:51:35.643591	88	6.13418621666667	True	n/a	n/a	n/a	n/a
S200306	Conflict_Resolution	LEFT	LEFT	490.322300000003	1250.0000025	n/a	n/a	2020-03-06 13:51:36.913721	2020-03-06 13:51:37.611711	89	6.13418621666667	True	n/a	n/a	n/a	n/a
S200306	Conflict_Resolution	LEFT	LEFT	396.693500000083	1416.6666695	n/a	n/a	2020-03-06 13:51:39.046500	2020-03-06 13:51:39.650914	90	6.13418621666667	False	n/a	n/a	n/a	n/a
S200306	Conflict_Resolution	RIGHT	LEFT	435.897599999976	1216.6666691	n/a	n/a	2020-03-06 13:51:40.887997	2020-03-06 13:51:41.530673	91	6.13418621666667	True	n/a	n/a	n/a	n/a
S200306	Conflict_Resolution	RIGHT	RIGHT	434.427999999912	500.000001	n/a	n/a	2020-03-06 13:51:42.049246	2020-03-06 13:51:42.691541	92	6.13418621666667	False	n/a	n/a	n/a	n/a
S200306	Conflict_Resolution	LEFT	LEFT	541.390400000068	1416.6666695	n/a	n/a	2020-03-06 13:51:44.125850	2020-03-06 13:51:44.876863	93	6.13418621666667	True	n/a	n/a	n/a	n/a
S200306	Conflict_Resolution	RIGHT	RIGHT	414.989199999923	1316.6666693	n/a	n/a	2020-03-06 13:51:46.212281	2020-03-06 13:51:46.834579	94	6.13418621666667	False	n/a	n/a	n/a	n/a
S200306	Conflict_Resolution	RIGHT	RIGHT	604.277300000035	1233.3333358	n/a	n/a	2020-03-06 13:51:48.087385	2020-03-06 13:51:48.899548	95	6.13418621666667	True	n/a	n/a	n/a	n/a
S200306	Conflict_Resolution	RIGHT	RIGHT	657.684200000062	1483.3333363	n/a	n/a	2020-03-06 13:51:50.401756	2020-03-06 13:51:51.268461	96	6.13418621666667	True	n/a	n/a	n/a	n/a
S200306	Conflict_Resolution	LEFT	LEFT	431.04859999994	1150.0000023	n/a	n/a	2020-03-06 13:51:52.437052	2020-03-06 13:51:53.076334	97	6.13418621666667	False	n/a	n/a	n/a	n/a
S200306	Conflict_Resolution	LEFT	LEFT	510.419400000046	716.6666681	n/a	n/a	2020-03-06 13:51:53.813074	2020-03-06 13:51:54.532889	98	6.13418621666667	False	n/a	n/a	n/a	n/a
S200306	Conflict_Resolution	RIGHT	RIGHT	437.213300000053	783.3333349	n/a	n/a	2020-03-06 13:51:55.334838	2020-03-06 13:51:55.980385	99	6.13418621666667	False	n/a	n/a	n/a	n/a
S200306	Conflict_Resolution	RIGHT	RIGHT	503.741699999978	750.0000015	n/a	n/a	2020-03-06 13:51:56.748419	2020-03-06 13:51:57.459543	100	6.13418621666667	False	n/a	n/a	n/a	n/a
S200306	Conflict_Resolution	LEFT	LEFT	636.274399999934	633.3333346	n/a	n/a	2020-03-06 13:51:58.111302	2020-03-06 13:51:58.955555	101	6.13418621666667	True	n/a	n/a	n/a	n/a
S200306	Conflict_Resolution	RIGHT	RIGHT	549.245199999973	983.3333353	n/a	n/a	2020-03-06 13:51:59.958090	2020-03-06 13:52:00.716171	102	6.13418621666667	True	n/a	n/a	n/a	n/a
S200306	Conflict_Resolution	RIGHT	RIGHT	395.727299999976	1216.6666691	n/a	n/a	2020-03-06 13:52:01.952337	2020-03-06 13:52:02.558758	103	6.13418621666667	False	n/a	n/a	n/a	n/a
S200306	Conflict_Resolution	LEFT	LEFT	395.22599999998	766.6666682	n/a	n/a	2020-03-06 13:52:03.344465	2020-03-06 13:52:03.947570	104	6.13418621666667	False	n/a	n/a	n/a	n/a
S200306	Conflict_Resolution	RIGHT	RIGHT	501.807800000051	1366.6666694	n/a	n/a	2020-03-06 13:52:05.334023	2020-03-06 13:52:06.043958	105	6.13418621666667	True	n/a	n/a	n/a	n/a
S200306	Conflict_Resolution	RIGHT	RIGHT	571.531599999958	1416.6666695	n/a	n/a	2020-03-06 13:52:07.480431	2020-03-06 13:52:08.259725	106	6.13418621666667	True	n/a	n/a	n/a	n/a
S200306	Conflict_Resolution	LEFT	LEFT	465.93740000003	1050.0000021	n/a	n/a	2020-03-06 13:52:09.330093	2020-03-06 13:52:10.004300	107	6.13418621666667	True	n/a	n/a	n/a	n/a
S200306	Conflict_Resolution	LEFT	LEFT	605.374400000073	1166.666669	n/a	n/a	2020-03-06 13:52:11.190410	2020-03-06 13:52:12.004438	108	6.13418621666667	True	n/a	n/a	n/a	n/a
S200306	Conflict_Resolution	RIGHT	RIGHT	569.92809999997	850.0000017	n/a	n/a	2020-03-06 13:52:12.873473	2020-03-06 13:52:13.652443	109	6.13418621666667	True	n/a	n/a	n/a	n/a
S200306	Conflict_Resolution	RIGHT	RIGHT	526.905800000009	933.3333352	n/a	n/a	2020-03-06 13:52:14.604911	2020-03-06 13:52:15.339556	110	6.13418621666667	False	n/a	n/a	n/a	n/a
S200306	Conflict_Resolution	LEFT	LEFT	418.029300000057	666.666668	n/a	n/a	2020-03-06 13:52:16.025338	2020-03-06 13:52:16.651598	111	6.13418621666667	False	n/a	n/a	n/a	n/a
S200306	Conflict_Resolution	LEFT	LEFT	479.776900000047	533.3333344	n/a	n/a	2020-03-06 13:52:17.204168	2020-03-06 13:52:17.891561	112	6.13418621666667	False	n/a	n/a	n/a	n/a
S200306	Conflict_Resolution	RIGHT	RIGHT	436.397499999998	1050.0000021	n/a	n/a	2020-03-06 13:52:18.959154	2020-03-06 13:52:19.604358	113	6.13418621666667	False	n/a	n/a	n/a	n/a
S200306	Conflict_Resolution	RIGHT	RIGHT	407.320099999993	1333.333336	n/a	n/a	2020-03-06 13:52:20.956546	2020-03-06 13:52:21.572005	114	6.13418621666667	False	n/a	n/a	n/a	n/a
S200306	Conflict_Resolution	LEFT	LEFT	515.147500000012	666.666668	n/a	n/a	2020-03-06 13:52:22.256721	2020-03-06 13:52:22.979713	115	6.13418621666667	True	n/a	n/a	n/a	n/a
S200306	Conflict_Resolution	RIGHT	RIGHT	504.029599999967	700.0000014	n/a	n/a	2020-03-06 13:52:23.699632	2020-03-06 13:52:24.411158	116	6.13418621666667	True	n/a	n/a	n/a	n/a
S200306	Conflict_Resolution	LEFT	LEFT	412.012199999936	633.3333346	n/a	n/a	2020-03-06 13:52:25.063368	2020-03-06 13:52:25.682584	117	6.13418621666667	False	n/a	n/a	n/a	n/a
S200306	Conflict_Resolution	LEFT	LEFT	420.721099999923	866.6666684	n/a	n/a	2020-03-06 13:52:26.566862	2020-03-06 13:52:27.194787	118	6.13418621666667	False	n/a	n/a	n/a	n/a
S200306	Conflict_Resolution	LEFT	RIGHT	470.110000000091	1400.0000028	n/a	n/a	2020-03-06 13:52:28.614136	2020-03-06 13:52:29.290572	119	6.13418621666667	True	n/a	n/a	n/a	n/a
S200306	Conflict_Resolution	RIGHT	RIGHT	567.718000000013	533.3333344	n/a	n/a	2020-03-06 13:52:29.844258	2020-03-06 13:52:30.620230	120	6.13418621666667	True	n/a	n/a	n/a	n/a
S200306	Conflict_Resolution	LEFT	LEFT	434.55060000008	1250.0000025	n/a	n/a	2020-03-06 13:52:31.889631	2020-03-06 13:52:32.531799	121	6.13418621666667	False	n/a	n/a	n/a	n/a
S200306	Conflict_Resolution	LEFT	LEFT	496.782399999915	1300.0000026	n/a	n/a	2020-03-06 13:52:33.851081	2020-03-06 13:52:34.556399	122	6.13418621666667	True	n/a	n/a	n/a	n/a
S200306	Conflict_Resolution	RIGHT	RIGHT	692.743699999937	583.3333345	n/a	n/a	2020-03-06 13:52:35.158577	2020-03-06 13:52:36.059653	123	6.13418621666667	True	n/a	n/a	n/a	n/a
S200306	Conflict_Resolution	LEFT	LEFT	622.929500000055	950.0000019	n/a	n/a	2020-03-06 13:52:37.028470	2020-03-06 13:52:37.858546	124	6.13418621666667	True	n/a	n/a	n/a	n/a
S200306	Conflict_Resolution	RIGHT	RIGHT	672.799800000007	1333.333336	n/a	n/a	2020-03-06 13:52:39.211276	2020-03-06 13:52:40.091955	125	6.13418621666667	True	n/a	n/a	n/a	n/a
S200306	Conflict_Resolution	LEFT	LEFT	475.688999999988	850.0000017	n/a	n/a	2020-03-06 13:52:40.961282	2020-03-06 13:52:41.643617	126	6.13418621666667	True	n/a	n/a	n/a	n/a
S200306	Conflict_Resolution	LEFT	LEFT	396.718999999962	1000.000002	n/a	n/a	2020-03-06 13:52:42.663272	2020-03-06 13:52:43.268050	127	6.13418621666667	False	n/a	n/a	n/a	n/a
S200306	Conflict_Resolution	LEFT	LEFT	447.44280000009	766.6666682	n/a	n/a	2020-03-06 13:52:44.051815	2020-03-06 13:52:44.709387	128	6.13418621666667	True	n/a	n/a	n/a	n/a
S200306	Conflict_Resolution	LEFT	LEFT	422.094099999981	1116.6666689	n/a	n/a	2020-03-06 13:52:45.846006	2020-03-06 13:52:46.475594	129	6.13418621666667	True	n/a	n/a	n/a	n/a
S200306	Conflict_Resolution	RIGHT	RIGHT	594.701799999939	1433.3333362	n/a	n/a	2020-03-06 13:52:47.929182	2020-03-06 13:52:48.731817	130	6.13418621666667	True	n/a	n/a	n/a	n/a
S200306	Conflict_Resolution	RIGHT	RIGHT	767.278499999975	1133.3333356	n/a	n/a	2020-03-06 13:52:49.884047	2020-03-06 13:52:50.859694	131	6.13418621666667	False	n/a	n/a	n/a	n/a
S200306	Conflict_Resolution	RIGHT	RIGHT	572.94109999998	633.3333346	n/a	n/a	2020-03-06 13:52:51.510156	2020-03-06 13:52:52.292379	132	6.13418621666667	False	n/a	n/a	n/a	n/a
S200306	Conflict_Resolution	RIGHT	RIGHT	539.929200000074	1000.000002	n/a	n/a	2020-03-06 13:52:53.311426	2020-03-06 13:52:54.060075	133	6.13418621666667	False	n/a	n/a	n/a	n/a
S200306	Conflict_Resolution	RIGHT	RIGHT	478.967199999943	1150.0000023	n/a	n/a	2020-03-06 13:52:55.229241	2020-03-06 13:52:55.916502	134	6.13418621666667	False	n/a	n/a	n/a	n/a
S200306	Conflict_Resolution	RIGHT	RIGHT	689.286899999843	833.333335	n/a	n/a	2020-03-06 13:52:56.770016	2020-03-06 13:52:57.667255	135	6.13418621666667	True	n/a	n/a	n/a	n/a
S200306	Conflict_Resolution	RIGHT	RIGHT	498.637200000076	1083.3333355	n/a	n/a	2020-03-06 13:52:58.768823	2020-03-06 13:52:59.475860	136	6.13418621666667	True	n/a	n/a	n/a	n/a
S200306	Conflict_Resolution	RIGHT	RIGHT	489.085700000032	883.3333351	n/a	n/a	2020-03-06 13:53:00.378185	2020-03-06 13:53:01.075448	137	6.13418621666667	False	n/a	n/a	n/a	n/a
S200306	Conflict_Resolution	RIGHT	RIGHT	565.331000000015	1183.3333357	n/a	n/a	2020-03-06 13:53:02.278674	2020-03-06 13:53:03.050760	138	6.13418621666667	True	n/a	n/a	n/a	n/a
S200306	Conflict_Resolution	RIGHT	RIGHT	459.116400000084	1266.6666692	n/a	n/a	2020-03-06 13:53:04.336952	2020-03-06 13:53:05.004948	139	6.13418621666667	True	n/a	n/a	n/a	n/a
S200306	Conflict_Resolution	RIGHT	RIGHT	495.236299999988	683.3333347	n/a	n/a	2020-03-06 13:53:05.709060	2020-03-06 13:53:06.410828	140	6.13418621666667	True	n/a	n/a	n/a	n/a
S200306	Conflict_Resolution	RIGHT	RIGHT	649.555299999975	1133.3333356	n/a	n/a	2020-03-06 13:53:07.562582	2020-03-06 13:53:08.420486	141	6.13418621666667	True	n/a	n/a	n/a	n/a
S200306	Conflict_Resolution	LEFT	LEFT	554.949800000031	1016.6666687	n/a	n/a	2020-03-06 13:53:09.456979	2020-03-06 13:53:10.220067	142	6.13418621666667	False	n/a	n/a	n/a	n/a
S200306	Conflict_Resolution	RIGHT	RIGHT	576.542999999901	1283.3333359	n/a	n/a	2020-03-06 13:53:11.523350	2020-03-06 13:53:12.312531	143	6.13418621666667	True	n/a	n/a	n/a	n/a
S200306	Conflict_Resolution	RIGHT	RIGHT	376.09220000013	1383.3333361	n/a	n/a	2020-03-06 13:53:13.715951	2020-03-06 13:53:14.299795	144	6.13418621666667	False	n/a	n/a	n/a	n/a
S200306	Conflict_Resolution	RIGHT	RIGHT	928.109799999902	500.000001	n/a	n/a	2020-03-06 13:53:14.819971	2020-03-06 13:53:15.956234	145	6.13418621666667	True	n/a	n/a	n/a	n/a
S200306	Conflict_Resolution	LEFT	LEFT	499.891800000114	783.3333349	n/a	n/a	2020-03-06 13:53:16.760178	2020-03-06 13:53:17.466668	146	6.13418621666667	True	n/a	n/a	n/a	n/a
S200306	Conflict_Resolution	RIGHT	RIGHT	378.347399999939	733.3333348	n/a	n/a	2020-03-06 13:53:18.217423	2020-03-06 13:53:18.803502	147	6.13418621666667	False	n/a	n/a	n/a	n/a
S200306	Conflict_Resolution	RIGHT	RIGHT	323.911899999985	1233.3333358	n/a	n/a	2020-03-06 13:53:20.055744	2020-03-06 13:53:20.587810	148	6.13418621666667	False	n/a	n/a	n/a	n/a
S200306	Conflict_Resolution	LEFT	LEFT	480.890900000077	1500.000003	n/a	n/a	2020-03-06 13:53:22.106517	2020-03-06 13:53:22.795435	149	6.13418621666667	True	n/a	n/a	n/a	n/a
S200306	Conflict_Resolution	LEFT	LEFT	410.016899999846	1116.6666689	n/a	n/a	2020-03-06 13:53:23.930061	2020-03-06 13:53:24.548047	150	6.13418621666667	False	n/a	n/a	n/a	n/a
S200306	Conflict_Resolution	RIGHT	RIGHT	378.051700000015	1466.6666696	n/a	n/a	2020-03-06 13:53:26.034206	2020-03-06 13:53:26.620346	151	6.13418621666667	False	n/a	n/a	n/a	n/a
S200306	Conflict_Resolution	RIGHT	LEFT	433.148599999868	883.3333351	n/a	n/a	2020-03-06 13:53:27.522750	2020-03-06 13:53:28.162808	152	6.13418621666667	True	n/a	n/a	n/a	n/a
S200306	Conflict_Resolution	LEFT	LEFT	513.00550000019	516.6666677	n/a	n/a	2020-03-06 13:53:28.699038	2020-03-06 13:53:29.420459	153	6.13418621666667	False	n/a	n/a	n/a	n/a
S200306	Conflict_Resolution	RIGHT	RIGHT	541.953000000149	583.3333345	n/a	n/a	2020-03-06 13:53:30.021667	2020-03-06 13:53:30.770961	154	6.13418621666667	False	n/a	n/a	n/a	n/a
S200306	Conflict_Resolution	LEFT	LEFT	508.235400000103	866.6666684	n/a	n/a	2020-03-06 13:53:31.654971	2020-03-06 13:53:32.371623	155	6.13418621666667	True	n/a	n/a	n/a	n/a
S200306	Conflict_Resolution	LEFT	LEFT	542.437000000064	1366.6666694	n/a	n/a	2020-03-06 13:53:33.757335	2020-03-06 13:53:34.508315	156	6.13418621666667	True	n/a	n/a	n/a	n/a
S200306	Conflict_Resolution	RIGHT	RIGHT	488.690899999938	1483.3333363	n/a	n/a	2020-03-06 13:53:36.011484	2020-03-06 13:53:36.707114	157	6.13418621666667	False	n/a	n/a	n/a	n/a
S200306	Conflict_Resolution	LEFT	LEFT	495.124300000043	516.6666677	n/a	n/a	2020-03-06 13:53:37.244965	2020-03-06 13:53:37.947176	158	6.13418621666667	True	n/a	n/a	n/a	n/a
S200306	Conflict_Resolution	LEFT	LEFT	388.7158	1400.0000028	n/a	n/a	2020-03-06 13:53:39.367345	2020-03-06 13:53:39.963967	159	6.13418621666667	False	n/a	n/a	n/a	n/a
S200306	Conflict_Resolution	RIGHT	LEFT	450.38929999987	1050.0000021	n/a	n/a	2020-03-06 13:53:41.033639	2020-03-06 13:53:41.690954	160	6.13418621666667	True	n/a	n/a	n/a	n/a
