index	Trial_Type	Participant_ID	Trial_Probability	Question_Position_Prediction_Correct	Question_Position_Prediction_Agent	Question_Position_Comparison_Self	Question_Position_Comparison_Irrelevant	Trial_Stake	Trial_Stake_Jitter	Trial_Type_Jitter	Trial_Result_Jitter	Balance_Update_Jitter	Question_Comparison_Condition	Question_Comparison_Type	Question_Comparison_Question	Question_Comparison_Label	Question_Comparison_Item	Question_Comparison_Proportion_Yes	Question_Factual_Condition	Question_Factual_Item	Question_Factual_Question	Question_Factual_Label	Question_Factual_Proportion_DontKnow	Question_Factual_Type	Answer_Prediction_Correct	Answer_Prediction_Correct_RT	Answer_Prediction_Agent	Answer_Prediction_Agent_RT	Answer_Irrelevant	Answer_Irrelevant_RT	Answer_Self	Answer_Self_RT	Trial_Balance	Trial_Balance_Effect	Trial_Condition	Trial_ProbableSide	Prediction_Choice	Prediction_Result	Prediction_RT	Trial_Order	Trial_Datetime
101	Computer	S200225	0.5	1	2	2	1	0.6	1216.666669	1283.333336	2216.666671	1650.000003	Major	Wrong_doings	57	You have done something against your values	C2_13	0.9	Easy	I2_42	42	"Statue of Liberty is 151 feet tall"	0.888888889	No	LEFT	889.7127	LEFT	608.9139	RIGHT	3007.2953	LEFT	2231.435	10.0	0.6	Probable_Lie	LEFT	RIGHT	1	547.9831819	0	46:14.2
45	Self	S200225	0.833333333	2	1	2	1	0.3	1433.333336	1350.000003	1933.333337	2216.666671	Minor	Good_deeds	48	You have drunk alcohol when you were underage	C2_6	0.45	Hard	I1_27	48	There are 10 continents in the World	0.111111111	No	RIGHT	599.335	RIGHT	540.0212	RIGHT	2439.0437	LEFT	1927.9296	10.3	0.3	Probable_Truth	RIGHT	RIGHT	5	1009.9197	1	46:40.2
19	Self	S200225	0.666666667	1	2	1	2	0.6	1000.000002	1283.333336	2216.666671	2350.000005	Major	Good_deeds	29	You have stopped using plastics completely	C1_49	0.8	Easy	I2_34	57	Marijuana is legal in Singapore	1.0	Yes	RIGHT	567.6847	RIGHT	358.9957	RIGHT	2328.2542	RIGHT	2890.6846	10.9	0.6	Probable_Truth	RIGHT	RIGHT	3	1076.1916	2	47:06.9
119	Computer	S200225	0.666666667	1	2	2	1	0.7	1283.333336	1283.333336	2500.000005	2350.000005	Major	Wrong_doings	49	You have organized a violent protest	C1_6	0.7	Hard	I1_57	34	Christmas Day is in March	0.0	No	LEFT	778.2344	LEFT	568.0497	LEFT	1531.1969	LEFT	1264.5758	10.9	0.7	Probable_Lie	RIGHT	RIGHT	1	838.7664438	3	47:31.8
39	Self	S200225	0.833333333	1	2	2	1	0.5	1150.000002	1066.666669	2216.666671	2216.666671	Major	Wrong_doings	37	You have deceived a loved one	C1_37	0.0	Easy	I2_12	45	There are 6000 spoken languages in the World	0.888888889	Yes	RIGHT	479.6324	RIGHT	303.3865	RIGHT	2190.4408	LEFT	1768.4487	11.4	0.5	Probable_Lie	LEFT	LEFT	2	879.9068	4	47:56.7
92	Self	S200225	0.833333333	2	1	2	1	0.1	1066.666669	1500.000003	2216.666671	2066.666671	Minor	Good_deeds	11	You have been donating all your excess food to a food bank	C1_11	0.15	Hard	I1_14	40	Chickens lay eggs	0.666666667	No	RIGHT	496.1162	RIGHT	982.9286	RIGHT	1246.6916	RIGHT	3022.7337	11.5	0.1	Probable_Lie	LEFT	LEFT	4	728.7509	5	48:22.6
120	Computer	S200225	0.666666667	2	1	1	2	0.1	1500.000003	1283.333336	2066.666671	1933.333337	Minor	Good_deeds	14	You have rescued others from a catastrophe	C1_43	0.5	Easy	I2_48	36	There are 30 hours in a day	0.0	No	LEFT	567.5847	LEFT	875.3493	LEFT	1272.2922	RIGHT	2077.7867	11.5	0.1	Probable_Lie	LEFT	RIGHT	1	861.4277015	6	48:47.6
95	Self	S200225	0.833333333	2	1	2	1	0.8	1216.666669	1216.666669	2350.000005	1783.333337	Major	Wrong_doings	39	You have volunteered every week for many years	C1_39	0.85	Easy	I2_25	6	Red is a color	0.611111111	Yes	RIGHT	472.5911	RIGHT	729.743	RIGHT	1019.2176	RIGHT	2112.3067	12.3	0.8	Probable_Truth	RIGHT	RIGHT	3	718.1424	7	49:11.8
5	Self	S200225	0.5	1	2	2	1	0.6	1150.000002	1216.666669	2066.666671	1933.333337	Major	Wrong_doings	57	You have done something against your values	C2_13	0.9	Easy	I2_42	42	"Statue of Liberty is 151 feet tall"	0.888888889	No	RIGHT	765.8043	RIGHT	304.8071	RIGHT	2372.9344	LEFT	1375.6206	12.9	0.6	Probable_Truth	LEFT	RIGHT	6	1607.7973	8	49:37.1
128	Computer	S200225	0.833333333	1	2	1	2	0.4	1500.000003	1150.000002	2216.666671	2216.666671	Major	Wrong_doings	59	You have returned your trays in food courts	C2_59	0.85	Easy	I1_12	12	Cleopatra was born in Greece	0.0	No	RIGHT	1852.6478	LEFT	879.6388	LEFT	2942.8237	RIGHT	1485.2404	12.9	0.4	Probable_Lie	LEFT	LEFT	4	896.1479208	9	50:04.9
60	Self	S200225	0.5	2	1	2	1	0.8	1350.000003	1150.000002	2066.666671	1500.000003	Major	Wrong_doings	16	You have watched an M18 movie when you were underage	C1_16	1.0	Hard	I2_30	10	Polish is 20th most spoken language in the World	0.666666667	No	LEFT	3854.901	LEFT	812.8325	RIGHT	2893.2899	LEFT	1664.7008	12.9	0.8	Probable_Lie	RIGHT	LEFT	4	1735.2797	10	50:34.5
70	Self	S200225	0.666666667	1	2	2	1	0.7	1500.000003	1350.000003	2066.666671	2216.666671	Major	Good_deeds	40	You have cheated on a national exam	C2_25	0.85	Hard	I1_50	60	The Seine river is 50 feet above sea level	0.055555556	No	RIGHT	762.2019	RIGHT	552.6408	LEFT	3559.0893	LEFT	1135.4521	13.6	0.7	Probable_Truth	RIGHT	RIGHT	4	764.3947	11	51:01.0
43	Self	S200225	0.833333333	2	1	1	2	0.1	1350.000003	1433.333336	1650.000003	2500.000005	Minor	Good_deeds	37	You have held the door open for a stranger	C2_37	0.0	Easy	I1_24	27	Penguin can fly with their wings	0.0	Yes	RIGHT	392.751	RIGHT	909.4493	LEFT	4279.5017	RIGHT	1910.0194	13.7	0.1	Probable_Truth	RIGHT	RIGHT	5	1057.2347	12	51:29.0
38	Self	S200225	0.833333333	1	2	2	1	0.2	1433.333336	1216.666669	1650.000003	2500.000005	Minor	Good_deeds	3	You have donated blood every 6 months for many years	C1_50	0.65	Easy	I1_45	58	It is snowing outside now	0.888888889	Yes	RIGHT	726.8041	RIGHT	328.9558	LEFT	1445.0886	RIGHT	2711.503	13.9	0.2	Probable_Lie	LEFT	LEFT	4	836.3746	13	51:54.4
32	Self	S200225	0.833333333	1	2	1	2	0.3	1500.000003	1500.000003	1933.333337	1783.333337	Major	Wrong_doings	59	You have returned your trays in food courts	C2_59	0.85	Easy	I1_12	12	Cleopatra was born in Greece	0.0	No	LEFT	770.2128	RIGHT	1408.7282	LEFT	4231.2395	RIGHT	1219.1308	13.6	0.3	Probable_Lie	RIGHT	RIGHT	1	726.7498	14	52:22.1
52	Self	S200225	0.5	1	2	2	1	0.8	1433.333336	1150.000002	2350.000005	2500.000005	Major	Wrong_doings	15	You have complimented others for good work	C2_47	0.95	Easy	I2_6	23	Last day of the year is 30th December	0.764705882	No	LEFT	507.5393	RIGHT	318.7741	Time_Max_Exceeded	5000.2191	RIGHT	61.7245	12.8	0.8	Probable_Lie	LEFT	RIGHT	2	1154.9397	15	52:49.1
86	Self	S200225	0.833333333	1	2	2	1	0.2	1066.666669	1283.333336	2350.000005	1650.000003	Major	Wrong_doings	46	You have started a movement to support a cause	C1_12	0.05	Hard	I2_31	31	Statute of Liberty is in New York	0.055555556	No	RIGHT	515.2311	RIGHT	262.8157	LEFT	2984.2393	RIGHT	71.9826	13.0	0.2	Probable_Truth	LEFT	LEFT	1	824.6478	16	53:12.7
75	Self	S200225	0.666666667	2	1	1	2	0.5	1283.333336	1350.000003	1933.333337	1500.000003	Major	Wrong_doings	14	You have signed up as a bone marrow donor	C2_26	0.0	Easy	I1_42	46	Beef comes from cows	0.833333333	No	LEFT	832.4253	RIGHT	1003.6798	RIGHT	1463.692	RIGHT	1614.0478	12.5	0.5	Probable_Lie	RIGHT	RIGHT	2	838.2407	17	53:37.1
72	Self	S200225	0.666666667	2	1	1	2	0.3	1433.333336	1283.333336	1650.000003	2066.666671	Major	Wrong_doings	34	You have engaged in arson	C1_3	1.0	Hard	I2_3	3	Cheese is an Asian staple	0.833333333	Yes	RIGHT	696.1443	RIGHT	728.0436	LEFT	1920.0289	LEFT	1259.1145	12.8	0.3	Probable_Lie	LEFT	LEFT	4	1134.0816	18	54:01.8
11	Self	S200225	0.5	2	1	1	2	0.6	1350.000003	1150.000002	2216.666671	1500.000003	Minor	Wrong_doings	22	You have sheltered others from disasters	C2_58	1.0	Hard	I2_49	23	Kangaroos live in Africa	0.0	No	LEFT	528.8068	RIGHT	1096.6745	LEFT	2063.416	RIGHT	1423.5948	12.2	0.6	Probable_Lie	RIGHT	RIGHT	3	2764.9504	19	54:28.5
36	Self	S200225	0.833333333	1	2	2	1	0.8	1066.666669	1433.333336	1500.000003	1650.000003	Major	Wrong_doings	13	You have kidnapped someone	C1_19	0.05	Hard	I2_58	3	It is 20th Century now	0.722222222	No	RIGHT	1116.2926	RIGHT	503.8317	RIGHT	2513.5887	LEFT	2454.4713	13.0	0.8	Probable_Truth	LEFT	LEFT	1	721.5361	20	54:54.0
49	Self	S200225	0.5	1	2	1	2	0.2	1350.000003	1216.666669	1933.333337	2350.000005	Minor	Wrong_doings	27	You have downloaded pirated movies	C2_24	0.7	Hard	I1_21	21	Earth's atmosphere extends up to 10,000km into space	1.0	Yes	LEFT	1228.2026	RIGHT	287.9017	LEFT	3647.8823	LEFT	1203.6	12.8	0.2	Probable_Lie	RIGHT	LEFT	4	2005.7048	21	55:21.8
17	Self	S200225	0.666666667	1	2	1	2	0.4	1433.333336	1433.333336	1933.333337	2066.666671	Major	Good_deeds	6	You have shown your appreciation to your teachers	C1_46	0.0	Hard	I1_29	29	There are 6 million animal species on Earth	0.833333333	No	RIGHT	778.1918	RIGHT	328.6076	LEFT	2847.9754	RIGHT	1485.8459	13.2	0.4	Probable_Truth	RIGHT	RIGHT	3	842.7797	22	55:47.6
107	Computer	S200225	0.5	2	1	1	2	0.7	1216.666669	1283.333336	2350.000005	1933.333337	Minor	Wrong_doings	22	You have sheltered others from disasters	C2_58	1.0	Hard	I2_49	23	Kangaroos live in Africa	0.0	No	RIGHT	1320.5685	LEFT	1016.7768	LEFT	1040.2252	RIGHT	1625.5927	13.2	0.7	Probable_Truth	LEFT	LEFT	1	655.9446666	23	56:12.6
111	Computer	S200225	0.5	2	1	2	1	0.3	1433.333336	1500.000003	2066.666671	1500.000003	Minor	Wrong_doings	60	You have cursed at your loved ones	C1_22	1.0	Easy	I1_9	49	A caterpillar has more muscle than a human	0.722222222	Yes	RIGHT	646.7376	LEFT	1074.1437	RIGHT	3091.8435	LEFT	1464.3036	13.2	0.3	Probable_Truth	RIGHT	RIGHT	6	523.4508315	24	56:38.4
100	Computer	S200225	0.5	1	2	2	1	0.3	1500.000003	1066.666669	1933.333337	2216.666671	Major	Good_deeds	35	You have held the elevator doors for others	C1_35	0.45	Easy	I1_47	1	There is typically 0.6 grams of mercury in glass thermometer	0.722222222	Yes	LEFT	998.4758	LEFT	393.0279	RIGHT	4081.3544	RIGHT	1327.7999	13.2	0.3	Probable_Lie	RIGHT	LEFT	6	788.5341643	25	57:05.3
28	Self	S200225	0.666666667	2	1	2	1	0.4	1350.000003	1150.000002	1500.000003	1783.333337	Major	Good_deeds	43	You have sign up to sponsor a needy child	C1_4	0.55	Easy	I2_35	48	The current century is 21st	0.0	No	RIGHT	312.3735	RIGHT	838.0885	LEFT	4124.6926	RIGHT	1543.7505	13.6	0.4	Probable_Lie	LEFT	LEFT	4	867.0887	26	57:31.4
99	Computer	S200225	0.5	1	2	1	2	0.2	1350.000003	1150.000002	2500.000005	1500.000003	Minor	Wrong_doings	9	You have violated a traffic law	C1_8	0.05	Hard	I2_53	15	The first Olympic Games was held in the 5th century B.C	0.888888889	No	LEFT	586.7637	LEFT	144.5246	LEFT	3326.998	LEFT	1189.791	13.6	0.2	Probable_Lie	RIGHT	LEFT	5	608.9320516	27	57:56.3
15	Self	S200225	0.5	2	1	2	1	0.2	1283.333336	1216.666669	1500.000003	2216.666671	Minor	Wrong_doings	60	You have cursed at your loved ones	C1_22	1.0	Easy	I1_9	49	A caterpillar has more muscle than a human	0.722222222	Yes	RIGHT	496.4335	RIGHT	1308.0554	RIGHT	2511.5762	LEFT	951.7328	13.8	0.2	Probable_Truth	LEFT	RIGHT	6	1347.5322	28	58:21.7
33	Self	S200225	0.833333333	1	2	1	2	0.4	1283.333336	1000.000002	2350.000005	1500.000003	Minor	Wrong_doings	50	You have stopped using products tested on animals	C2_7	0.1	Hard	I2_21	4	Mageirocophobia is a fear of deathly disease	0.0	No	RIGHT	828.807	RIGHT	256.1995	LEFT	4959.0125	RIGHT	3252.5988	14.2	0.4	Probable_Lie	LEFT	LEFT	5	688.8253	29	58:50.4
21	Self	S200225	0.666666667	1	2	2	1	0.8	1500.000003	1216.666669	1650.000003	2500.000005	Minor	Wrong_doings	29	You have been arrested	C2_20	0.0	Easy	I1_26	54	Vegetarians can eat vegetable products	0.0	Yes	RIGHT	382.2016	RIGHT	216.2168	RIGHT	3395.9916	LEFT	919.2388	15.0	0.8	Probable_Truth	LEFT	LEFT	2	682.3922	30	59:15.4
109	Computer	S200225	0.5	2	1	2	1	0.4	1500.000003	1000.000002	1783.333337	2216.666671	Minor	Good_deeds	58	You have bought cigarettes for a minor	C2_8	0.05	Easy	I2_52	9	The Franco-Prussian War occurred in the 19th century	0.888888889	No	LEFT	216.0578	LEFT	336.8182	LEFT	3401.5549	LEFT	1287.1001	15.0	0.4	Probable_Lie	RIGHT	LEFT	6	569.8697973	31	59:40.3
4	Self	S200225	0.5	1	2	2	1	0.1	1066.666669	1000.000002	1500.000003	2066.666671	Major	Good_deeds	35	You have held the elevator doors for others	C1_35	0.45	Easy	I1_47	1	There is typically 0.6 grams of mercury in glass thermometer	0.722222222	Yes	RIGHT	829.6148	RIGHT	503.0367	RIGHT	1187.596	RIGHT	1055.9141	15.1	0.1	Probable_Truth	LEFT	RIGHT	6	1766.6058	32	00:03.8
55	Self	S200225	0.5	1	2	2	1	0.1	1000.000002	1066.666669	1500.000003	1500.000003	Major	Good_deeds	31	You have participated in a scamming business	C2_18	0.2	Easy	I1_11	39	It takes 112 years to build the Pisa Tower	0.0	Yes	LEFT	844.9033	RIGHT	609.9375	LEFT	3886.5413	LEFT	1215.1592	15.0	0.1	Probable_Lie	RIGHT	RIGHT	3	1692.0338	33	00:29.7
14	Self	S200225	0.5	2	1	2	1	0.4	1150.000002	1000.000002	2066.666671	2350.000005	Major	Wrong_doings	24	You have made counterfeit money	C1_38	0.0	Easy	I1_23	37	The sun rises at night	0.777777778	Yes	LEFT	247.8176	RIGHT	797.1514	LEFT	1540.0456	LEFT	896.6666	14.6	0.4	Probable_Lie	RIGHT	RIGHT	1	1286.6424	34	00:53.6
78	Self	S200225	0.666666667	2	1	2	1	0.7	1216.666669	1150.000002	1783.333337	1650.000003	Minor	Good_deeds	3	You have used a fake name online	C2_14	0.1	Easy	I1_2	19	Mozambique is the world's poorest country	0.0	No	RIGHT	367.777	RIGHT	546.2249	LEFT	2360.6663	LEFT	1008.3237	15.3	0.7	Probable_Truth	RIGHT	RIGHT	3	683.9104	35	01:17.0
35	Self	S200225	0.833333333	1	2	1	2	0.1	1350.000003	1350.000003	2500.000005	1933.333337	Minor	Good_deeds	19	You have extorted money from anyone	C2_52	1.0	Hard	I1_31	31	Dutch is the 6th Europe's most widely spoken language	0.055555556	Yes	RIGHT	676.4296	RIGHT	120.0884	LEFT	3543.6496	LEFT	1316.7754	15.4	0.1	Probable_Truth	LEFT	LEFT	1	780.4662	36	01:43.1
24	Self	S200225	0.666666667	2	1	1	2	0.2	1150.000002	1216.666669	1783.333337	2350.000005	Minor	Good_deeds	14	You have rescued others from a catastrophe	C1_43	0.5	Easy	I2_48	36	There are 30 hours in a day	0.0	No	RIGHT	63.0289	RIGHT	1624.3605	LEFT	799.4305	RIGHT	921.44	15.6	0.2	Probable_Truth	RIGHT	RIGHT	4	1137.8484	37	02:06.8
89	Self	S200225	0.833333333	2	1	1	2	0.7	1283.333336	1283.333336	1933.333337	2350.000005	Major	Wrong_doings	53	You have bribed someone to improve a grade	C2_54	0.85	Easy	I1_6	55	Cernan was the second last man to walk on the Moon	0.0	Yes	RIGHT	304.8902	RIGHT	588.2068	LEFT	2375.152	LEFT	1323.0154	16.3	0.7	Probable_Truth	RIGHT	RIGHT	4	753.1757	38	02:31.5
34	Self	S200225	0.833333333	1	2	1	2	0.7	1000.000002	1150.000002	2066.666671	2350.000005	Major	Good_deeds	52	You have stolen something	C2_3	0.65	Easy	I1_3	21	Brazil is in South America	0.0	Yes	RIGHT	1692.6509	RIGHT	79.77	LEFT	2015.8761	LEFT	783.7446	17.0	0.7	Probable_Truth	LEFT	LEFT	1	681.2674	39	02:55.9
133	Computer	S200225	0.833333333	1	2	2	1	0.6	1283.333336	1433.333336	1650.000003	1783.333337	Minor	Good_deeds	7	You have sorted your trash into recycling bin	C1_13	0.1	Hard	I2_4	12	There are 7 days in a week	0.944444444	No	RIGHT	889.107	LEFT	241.0696	RIGHT	1113.2416	RIGHT	4399.2476	17.0	0.6	Probable_Truth	RIGHT	RIGHT	4	736.0666222	40	03:22.0
114	Computer	S200225	0.666666667	1	2	1	2	0.1	1150.000002	1066.666669	1500.000003	2500.000005	Major	Wrong_doings	20	You have started an NGO using your savings	C2_39	0.0	Easy	I2_54	38	Singapore is a country	0.0	Yes	RIGHT	428.8087	LEFT	239.9863	RIGHT	2744.5205	RIGHT	4847.1131	17.0	0.1	Probable_Truth	LEFT	LEFT	2	665.930646	41	03:49.7
80	Self	S200225	0.833333333	1	2	1	2	0.4	1433.333336	1350.000003	1933.333337	2066.666671	Major	Good_deeds	1	You have used heroin	C1_36	0.0	Hard	I1_13	17	Mexico's National Day is September 16	0.055555556	Yes	RIGHT	2068.3682	RIGHT	1704.4654	LEFT	2159.7101	LEFT	1039.0727	17.4	0.4	Probable_Truth	LEFT	LEFT	1	1023.0585	42	04:17.1
97	Computer	S200225	0.5	1	2	1	2	0.4	1433.333336	1500.000003	2350.000005	2350.000005	Major	Wrong_doings	8	You have helped with household chores	C1_51	0.75	Easy	I1_25	25	The Earth is round	0.833333333	Yes	LEFT	324.2031	LEFT	351.8195	RIGHT	2687.6558	RIGHT	1083.2453	17.4	0.4	Probable_Lie	LEFT	RIGHT	1	991.4537649	43	04:42.7
48	Self	S200225	0.5	1	2	1	2	0.4	1150.000002	1350.000003	2066.666671	2216.666671	Major	Wrong_doings	38	You have taken part in violent demonstration	C1_15	0.0	Easy	I1_60	11	The Eiffel Tower is in Paris	0.055555556	No	LEFT	487.0795	RIGHT	320.5953	RIGHT	1815.7673	LEFT	1374.7732	17.0	0.4	Probable_Lie	RIGHT	RIGHT	1	1033.5169	44	05:07.1
138	Computer	S200225	0.833333333	2	1	1	2	0.8	1433.333336	1283.333336	2350.000005	2216.666671	Major	Good_deeds	60	You have been restricting your electricity consumption	C1_5	0.55	Easy	I2_43	53	Carnivore refers to meat-eater	0.944444444	Yes	RIGHT	376.4551	LEFT	974.711	RIGHT	2087.5636	RIGHT	2341.1149	17.0	0.8	Probable_Truth	LEFT	LEFT	1	526.005818	45	05:33.3
13	Self	S200225	0.5	2	1	2	1	0.7	1066.666669	1350.000003	2350.000005	2066.666671	Minor	Good_deeds	58	You have bought cigarettes for a minor	C2_8	0.05	Easy	I2_52	9	The Franco-Prussian War occurred in the 19th century	0.888888889	No	LEFT	263.4724	RIGHT	1195.1895	LEFT	1280.3856	LEFT	965.78	16.3	0.7	Probable_Lie	RIGHT	RIGHT	3	1292.9271	46	05:57.7
46	Self	S200225	0.833333333	2	1	2	1	0.4	1066.666669	1216.666669	1500.000003	2350.000005	Minor	Wrong_doings	5	You have lost everything just to help others	C2_19	0.0	Hard	I1_53	17	Nomophobia is the fear of being without a phone or computer	0.888888889	Yes	RIGHT	1271.1633	RIGHT	484.225	LEFT	3553.2025	RIGHT	3026.4313	16.7	0.4	Probable_Truth	LEFT	LEFT	1	803.3128	47	06:25.5
61	Self	S200225	0.5	2	1	2	1	0.4	1500.000003	1216.666669	1933.333337	2066.666671	Minor	Good_deeds	33	You have engaged in money laundering	C1_33	0.95	Easy	I2_28	52	There are 9 rings in the Olympic flag	0.055555556	Yes	LEFT	384.3315	RIGHT	1371.0583	LEFT	2208.5365	LEFT	990.9161	16.3	0.4	Probable_Lie	RIGHT	RIGHT	3	2649.4132	48	09:35.4
103	Computer	S200225	0.5	1	2	2	1	0.8	1000.000002	1216.666669	2066.666671	1933.333337	Minor	Good_deeds	13	You have bought cocaine	C2_9	0.0	Hard	I2_56	53	Acoustic Kitty refers to cat with implants	0.055555556	No	LEFT	609.2051	LEFT	384.7571	LEFT	2924.0721	LEFT	854.6664	16.3	0.8	Probable_Lie	RIGHT	RIGHT	3	974.8971898	49	10:00.0
125	Computer	S200225	0.666666667	2	1	2	1	0.5	1350.000003	1350.000003	1500.000003	2216.666671	Minor	Wrong_doings	50	You have fabricated facts about yourself	C2_48	0.0	Hard	I1_4	35	It takes 500 days to travel from Earth to Mars	0.0	Yes	LEFT	200.519	LEFT	686.6368	RIGHT	3951.1719	LEFT	1103.7151	16.3	0.5	Probable_Lie	LEFT	RIGHT	2	983.1721377	50	10:25.9
18	Self	S200225	0.666666667	1	2	1	2	0.5	1283.333336	1350.000003	2350.000005	1933.333337	Major	Wrong_doings	20	You have started an NGO using your savings	C2_39	0.0	Easy	I2_54	38	Singapore is a country	0.0	Yes	RIGHT	251.3019	RIGHT	214.3498	RIGHT	1656.1773	RIGHT	2836.3547	16.8	0.5	Probable_Truth	LEFT	LEFT	2	988.4064	51	10:51.3
93	Self	S200225	0.833333333	2	1	2	1	0.3	1433.333336	1150.000002	1500.000003	2500.000005	Minor	Wrong_doings	54	You have cheated on a test	C2_28	0.65	Hard	I1_43	43	Africa is the continent with the least rainfall	0.0	No	RIGHT	168.2967	RIGHT	301.3817	Time_Max_Exceeded	5000.197	LEFT	1100.0063	17.1	0.3	Probable_Truth	LEFT	LEFT	1	737.251	52	11:17.8
113	Computer	S200225	0.666666667	1	2	1	2	0.5	1350.000003	1216.666669	1933.333337	2216.666671	Major	Good_deeds	6	You have shown your appreciation to your teachers	C1_46	0.0	Hard	I1_29	29	There are 6 million animal species on Earth	0.833333333	No	RIGHT	2278.6526	LEFT	335.5588	LEFT	1118.5086	RIGHT	2439.8827	17.1	0.5	Probable_Truth	LEFT	LEFT	1	783.4304947	53	11:44.0
73	Self	S200225	0.666666667	2	1	1	2	0.8	1000.000002	1216.666669	1500.000003	2216.666671	Major	Wrong_doings	57	You have engaged in drink-driving	C2_34	0.9	Hard	I2_46	59	Singapore ranked 8th in World's smallest countries	0.944444444	Yes	RIGHT	224.5774	RIGHT	547.5806	LEFT	3047.2444	LEFT	1232.5451	17.9	0.8	Probable_Lie	LEFT	LEFT	3	1054.6698	54	12:08.7
27	Self	S200225	0.666666667	2	1	1	2	0.8	1500.000003	1500.000003	2350.000005	1933.333337	Minor	Good_deeds	4	You have helped others to pick up their belongings	C1_47	0.05	Hard	I1_54	54	Lehman Brothers went bankrupt on 20th September	0.777777778	Yes	RIGHT	72.1623	RIGHT	339.7792	LEFT	3152.1521	RIGHT	2404.2841	18.7	0.8	Probable_Truth	RIGHT	RIGHT	3	583.2417	55	12:35.1
96	Computer	S200225	0.5	1	2	1	2	0.7	1150.000002	1000.000002	1783.333337	1783.333337	Major	Wrong_doings	9	You have started a hotline for victims of bully	C1_9	1.0	Hard	I2_1	56	Most plants emit oxygen in the day	0.0	Yes	RIGHT	643.156	LEFT	38.626	RIGHT	4223.7158	LEFT	4106.1036	18.7	0.7	Probable_Truth	RIGHT	LEFT	2	889.6969525	56	13:03.2
26	Self	S200225	0.666666667	2	1	1	2	0.6	1000.000002	1066.666669	1650.000003	2216.666671	Major	Wrong_doings	2	You have been convicted in court	C1_14	0.05	Hard	I2_33	8	Fibers in oranges can be used to make fabric	0.888888889	Yes	RIGHT	239.7919	RIGHT	895.5379	LEFT	2687.6414	LEFT	1104.8481	19.3	0.6	Probable_Truth	LEFT	LEFT	2	1149.9466	57	13:27.8
112	Computer	S200225	0.666666667	1	2	1	2	0.2	1000.000002	1433.333336	2066.666671	1933.333337	Minor	Good_deeds	39	You have coveted things that belong to others	C1_29	1.0	Easy	I1_35	11	Slavery was abolished in Cuba in 1886	0.0	No	RIGHT	822.0334	LEFT	64.2102	LEFT	2831.8341	LEFT	4026.9873	19.3	0.2	Probable_Lie	LEFT	LEFT	4	656.3773056	58	13:55.2
143	Computer	S200225	0.833333333	2	1	2	1	0.6	1150.000002	1500.000003	1650.000003	2350.000005	Minor	Wrong_doings	20	You have illegally stayed in a country	C2_45	0.85	Hard	I1_48	24	Saturn's rings are between 30 and 300 feet thick	1.0	No	LEFT	105.1294	LEFT	1190.5892	RIGHT	4475.044	LEFT	1144.3185	19.3	0.6	Probable_Lie	RIGHT	LEFT	4	709.3633349	59	14:22.1
54	Self	S200225	0.5	1	2	2	1	0.7	1500.000003	1000.000002	2500.000005	2066.666671	Minor	Wrong_doings	24	You have pretended to be busy to avoid a social situation	C1_31	0.0	Hard	I2_16	16	Pyramid of Giza is 468 feet tall	0.666666667	Yes	LEFT	2284.6964	RIGHT	256.0988	LEFT	1958.446	LEFT	2952.0376	18.6	0.7	Probable_Lie	LEFT	RIGHT	3	1408.8497	60	14:50.6
16	Self	S200225	0.666666667	1	2	1	2	0.2	1216.666669	1500.000003	1500.000003	1650.000003	Minor	Good_deeds	39	You have coveted things that belong to others	C1_29	1.0	Easy	I1_35	11	Slavery was abolished in Cuba in 1886	0.0	No	RIGHT	1372.4508	RIGHT	128.2917	LEFT	1199.7076	LEFT	2166.7333	18.8	0.2	Probable_Truth	RIGHT	RIGHT	3	987.0215	61	15:14.9
116	Computer	S200225	0.666666667	1	2	2	1	0.6	1216.666669	1350.000003	2350.000005	1500.000003	Minor	Wrong_doings	53	You have helped a friend in need	C2_53	1.0	Hard	I2_11	35	Some owl species hunt fish	0.944444444	Yes	LEFT	884.5035	LEFT	280.6734	LEFT	2718.9246	RIGHT	1584.6529	18.8	0.6	Probable_Lie	RIGHT	RIGHT	1	995.1789624	62	15:40.3
118	Computer	S200225	0.666666667	1	2	2	1	0.4	1066.666669	1000.000002	2216.666671	1650.000003	Minor	Good_deeds	46	You have borrowed things and never returned	C2_29	0.0	Hard	I2_38	26	The first Grammy awards was held in 1959	0.888888889	No	LEFT	1549.014	LEFT	144.6623	LEFT	2438.5259	LEFT	2591.672	18.8	0.4	Probable_Lie	RIGHT	LEFT	6	504.1880476	63	16:06.1
104	Computer	S200225	0.5	2	1	1	2	0.5	1350.000003	1350.000003	1500.000003	1783.333337	Minor	Wrong_doings	44	You have watched a pirated movie	C2_60	0.05	Hard	I1_44	52	A dog has four legs	0.166666667	No	RIGHT	328.8961	LEFT	1922.7717	RIGHT	1141.6757	LEFT	1043.5706	18.8	0.5	Probable_Truth	RIGHT	RIGHT	5	847.4957945	64	16:29.9
74	Self	S200225	0.666666667	2	1	1	2	0.6	1500.000003	1433.333336	2066.666671	1933.333337	Minor	Good_deeds	34	You have given way to the handicapped	C1_34	0.7	Hard	I2_59	32	It is night time now	0.111111111	No	RIGHT	167.2176	RIGHT	1564.3826	LEFT	1151.1575	RIGHT	1468.5311	19.4	0.6	Probable_Truth	RIGHT	RIGHT	6	722.7832	65	16:54.5
84	Self	S200225	0.833333333	1	2	2	1	0.8	1283.333336	1150.000002	2500.000005	2500.000005	Major	Good_deeds	1	You have kept your promises	C2_1	1.0	Easy	I2_2	46	Milwaukee Art Museum is located in California	0.0	No	LEFT	998.3743	RIGHT	175.2005	LEFT	2726.6573	RIGHT	1046.751	18.6	0.8	Probable_Lie	RIGHT	RIGHT	1	669.1693	66	17:20.1
7	Self	S200225	0.5	1	2	2	1	0.7	1433.333336	1350.000003	1783.333337	2350.000005	Minor	Good_deeds	13	You have bought cocaine	C2_9	0.0	Hard	I2_56	53	Acoustic Kitty refers to cat with implants	0.055555556	No	LEFT	1961.9517	RIGHT	296.5167	LEFT	1268.2934	LEFT	824.0206	17.9	0.7	Probable_Lie	LEFT	LEFT	5	1697.0491	67	17:45.7
12	Self	S200225	0.5	2	1	2	1	0.8	1500.000003	1283.333336	2500.000005	1933.333337	Major	Good_deeds	16	You have taken responsibility for your actions	C2_16	0.95	Hard	I1_37	44	Fishes can swim in water	0.833333333	Yes	RIGHT	360.5488	RIGHT	300.6753	RIGHT	2533.2137	RIGHT	1023.159	18.7	0.8	Probable_Truth	LEFT	RIGHT	4	1470.6765	68	18:11.1
0	Self	S200225	0.5	1	2	1	2	0.2	1350.000003	1283.333336	2216.666671	2216.666671	Major	Wrong_doings	9	You have started a hotline for victims of bully	C1_9	1.0	Hard	I2_1	56	Most plants emit oxygen in the day	0.0	Yes	LEFT	382.5011	RIGHT	80.3328	RIGHT	896.099	LEFT	2041.1745	18.5	0.2	Probable_Lie	RIGHT	RIGHT	1	859.0092	69	18:35.0
82	Self	S200225	0.833333333	1	2	1	2	0.3	1150.000002	1066.666669	1650.000003	1783.333337	Minor	Wrong_doings	12	You have lied to your parents	C1_1	0.85	Hard	I1_17	58	The Moon orbits around the Earth	0.666666667	Yes	RIGHT	646.7102	RIGHT	711.9203	LEFT	2727.4066	LEFT	1090.8121	18.8	0.3	Probable_Truth	RIGHT	RIGHT	4	676.166	70	18:59.1
98	Computer	S200225	0.5	1	2	1	2	0.1	1283.333336	1433.333336	1650.000003	2500.000005	Minor	Good_deeds	51	You have been physically hurt to protect others	C2_57	0.95	Hard	I1_33	33	It sometimes snows in Singapore	0.055555556	No	RIGHT	629.0423	LEFT	479.4698	LEFT	1167.1927	RIGHT	3653.0111	18.8	0.1	Probable_Truth	RIGHT	RIGHT	4	818.1819307	71	19:25.3
31	Self	S200225	0.666666667	2	1	2	1	0.5	1066.666669	1000.000002	2216.666671	2066.666671	Major	Wrong_doings	47	You have gossiped about your best friend	C2_2	0.95	Easy	I1_8	4	Singapore is in Africa	0.611111111	Yes	RIGHT	104.4298	RIGHT	360.83	LEFT	1784.4226	LEFT	1103.1761	19.3	0.5	Probable_Truth	RIGHT	RIGHT	4	1300.6814	72	19:48.9
88	Self	S200225	0.833333333	2	1	1	2	0.4	1500.000003	1000.000002	1650.000003	2216.666671	Major	Wrong_doings	40	You have intentionally let others cut in line	C1_53	0.0	Hard	I2_36	25	Singapore has four seasons	0.0	No	RIGHT	608.1531	RIGHT	422.2313	LEFT	2664.396	LEFT	2278.0875	19.7	0.4	Probable_Truth	LEFT	LEFT	1	650.3399	73	20:14.4
134	Computer	S200225	0.833333333	1	2	2	1	0.1	1066.666669	1500.000003	2350.000005	2066.666671	Minor	Good_deeds	3	You have donated blood every 6 months for many years	C1_50	0.65	Easy	I1_45	58	It is snowing outside now	0.888888889	Yes	RIGHT	296.4125	LEFT	519.5304	LEFT	1598.0448	RIGHT	1065.2464	19.7	0.1	Probable_Truth	LEFT	LEFT	1	679.4848908	74	20:38.2
56	Self	S200225	0.5	2	1	1	2	0.1	1433.333336	1500.000003	1500.000003	2216.666671	Minor	Wrong_doings	31	You have let a homeless man into your house	C2_23	0.0	Hard	I1_10	30	Algeria is Africa's second largest country	0.0	Yes	LEFT	1310.9999	LEFT	597.0046	LEFT	1863.7692	LEFT	4486.5305	19.7	0.1	Probable_Lie	RIGHT	RIGHT	2	1341.0017	75	21:07.0
68	Self	S200225	0.666666667	1	2	2	1	0.4	1150.000002	1283.333336	2216.666671	1783.333337	Major	Wrong_doings	7	You have provided shelter for stray animals	C1_42	0.05	Hard	I2_60	26	The hyoid bone is the only jointless bone	0.0	Yes	RIGHT	1560.0714	RIGHT	321.5206	LEFT	3937.2343	RIGHT	1927.2802	20.1	0.4	Probable_Truth	RIGHT	RIGHT	4	1008.725	76	21:34.8
77	Self	S200225	0.666666667	2	1	2	1	0.1	1350.000003	1500.000003	2350.000005	1783.333337	Minor	Good_deeds	23	You have faked an illness	C1_57	0.25	Easy	I2_51	51	Septicemia is a lung infection condition	0.0	No	RIGHT	1023.443	RIGHT	1052.1985	LEFT	2626.0491	LEFT	823.8589	20.2	0.1	Probable_Lie	RIGHT	RIGHT	2	914.5514	77	22:00.8
137	Computer	S200225	0.833333333	2	1	1	2	0.7	1216.666669	1066.666669	1783.333337	1933.333337	Major	Wrong_doings	6	You have been sued	C1_60	0.95	Easy	I2_17	8	Beer is an alcoholic drink	0.0	No	LEFT	304.2083	LEFT	544.119	RIGHT	1591.3468	LEFT	2116.2707	20.2	0.7	Probable_Lie	RIGHT	LEFT	6	614.9199113	78	22:24.5
64	Self	S200225	0.666666667	1	2	1	2	0.3	1350.000003	1433.333336	2350.000005	1500.000003	Minor	Good_deeds	28	You have taken part in burglary	C2_33	0.9	Easy	I1_28	28	North Korea is more developed than South Korea	0.888888889	No	RIGHT	387.2694	RIGHT	344.6181	LEFT	2423.74	LEFT	964.6827	20.5	0.3	Probable_Truth	LEFT	LEFT	2	710.4943	79	22:48.5
2	Self	S200225	0.5	1	2	1	2	0.3	1283.333336	1500.000003	1650.000003	1500.000003	Minor	Good_deeds	51	You have been physically hurt to protect others	C2_57	0.95	Hard	I1_33	33	It sometimes snows in Singapore	0.055555556	No	RIGHT	437.6873	RIGHT	480.3477	LEFT	775.2767	RIGHT	1159.6623	20.8	0.3	Probable_Truth	RIGHT	RIGHT	4	1087.9077	80	23:11.0
130	Computer	S200225	0.833333333	1	2	1	2	0.7	1000.000002	1350.000003	2066.666671	1933.333337	Major	Good_deeds	52	You have stolen something	C2_3	0.65	Easy	I1_3	21	Brazil is in South America	0.0	Yes	LEFT	1376.1813	LEFT	304.535	LEFT	1367.7241	LEFT	1246.2244	20.8	0.7	Probable_Lie	LEFT	RIGHT	1	501.5452309	81	23:34.7
63	Self	S200225	0.5	2	1	2	1	0.5	1066.666669	1066.666669	2350.000005	2500.000005	Major	Good_deeds	23	You have given up your seat in the MRT	C1_59	0.8	Easy	I2_18	18	Animals are living things	0.944444444	Yes	RIGHT	519.6654	RIGHT	1106.6295	RIGHT	1444.508	RIGHT	910.7564	21.3	0.5	Probable_Truth	RIGHT	RIGHT	4	969.05	82	23:59.2
51	Self	S200225	0.5	1	2	1	2	0.3	1283.333336	1283.333336	1783.333337	1783.333337	Minor	Good_deeds	18	You have taken months off to volunteer	C1_45	0.05	Hard	I2_44	6	Summer is hotter than winter	0.0	No	LEFT	1745.8744	RIGHT	343.9836	RIGHT	1607.6449	RIGHT	1200.6809	21.0	0.3	Probable_Lie	RIGHT	RIGHT	2	730.5299	83	24:23.6
122	Computer	S200225	0.666666667	2	1	1	2	0.6	1066.666669	1216.666669	1933.333337	2350.000005	Major	Wrong_doings	2	You have been convicted in court	C1_14	0.05	Hard	I2_33	8	Fibers in oranges can be used to make fabric	0.888888889	Yes	RIGHT	4455.061	RIGHT	544.7929	LEFT	1063.0749	LEFT	1305.1235	21.6	0.6	Probable_Lie	LEFT	LEFT	3	791.7086267	84	24:50.8
53	Self	S200225	0.5	1	2	2	1	0.6	1216.666669	1500.000003	1650.000003	1933.333337	Major	Good_deeds	47	You have followed instructions	C2_38	0.95	Easy	I2_23	44	A square has 3 corners	0.944444444	Yes	LEFT	1110.5193	RIGHT	273.5968	LEFT	2194.7466	RIGHT	950.9894	21.0	0.6	Probable_Lie	LEFT	RIGHT	1	2065.3101	85	25:16.3
41	Self	S200225	0.833333333	2	1	1	2	0.2	1000.000002	1500.000003	2500.000005	1933.333337	Major	Wrong_doings	6	You have been sued	C1_60	0.95	Easy	I2_17	8	Beer is an alcoholic drink	0.0	No	RIGHT	232.0485	RIGHT	3483.2303	RIGHT	1247.6552	LEFT	1182.4312	21.2	0.2	Probable_Truth	LEFT	LEFT	1	1527.572	86	25:43.5
141	Computer	S200225	0.833333333	2	1	2	1	0.4	1000.000002	1000.000002	2216.666671	1783.333337	Minor	Good_deeds	48	You have drunk alcohol when you were underage	C2_6	0.45	Hard	I1_27	48	There are 10 continents in the World	0.111111111	No	RIGHT	1110.9604	LEFT	817.1818	LEFT	1586.0	LEFT	950.9733	21.2	0.4	Probable_Truth	RIGHT	RIGHT	4	885.9607665	87	26:07.4
83	Self	S200225	0.833333333	1	2	1	2	0.1	1216.666669	1000.000002	2216.666671	2350.000005	Minor	Good_deeds	36	You have claimed doing things that you never did	C2_43	0.0	Easy	I1_58	22	February has 30 days	0.0	Yes	RIGHT	1199.1711	RIGHT	359.8273	LEFT	1127.6304	LEFT	3867.4859	21.3	0.1	Probable_Truth	LEFT	LEFT	1	1299.4414	88	26:34.6
65	Self	S200225	0.666666667	1	2	1	2	0.5	1433.333336	1216.666669	1783.333337	1650.000003	Major	Wrong_doings	33	You have switched off appliances when not in use	C2_56	1.0	Easy	I2_5	24	Today is Sunday	0.0	No	LEFT	712.9529	RIGHT	48.0043	LEFT	1279.8475	RIGHT	2295.2702	20.8	0.5	Probable_Lie	LEFT	LEFT	6	984.7593	89	26:58.6
94	Self	S200225	0.833333333	2	1	2	1	0.5	1000.000002	1433.333336	2500.000005	1500.000003	Minor	Good_deeds	11	You have failed to keep promises	C2_11	0.0	Hard	I2_40	38	The human's inner ear is larger than a pencil eraser	0.0	Yes	RIGHT	193.3961	RIGHT	941.0087	Time_Max_Exceeded	5000.1402	LEFT	2116.889	21.3	0.5	Probable_Truth	LEFT	LEFT	1	693.2643	90	27:26.6
76	Self	S200225	0.666666667	2	1	2	1	0.4	1066.666669	1000.000002	2500.000005	2350.000005	Minor	Wrong_doings	42	You have a non-judgmental attitude towards everyone	C2_42	1.0	Hard	I1_19	2	Today is a weekday	0.777777778	Yes	RIGHT	1.3428	RIGHT	356.7689	RIGHT	1082.3406	RIGHT	1584.7172	21.7	0.4	Probable_Truth	RIGHT	RIGHT	3	1130.7451	91	27:50.2
87	Self	S200225	0.833333333	1	2	2	1	0.6	1350.000003	1433.333336	1500.000003	1500.000003	Minor	Wrong_doings	17	You have bribed a police officer	C2_46	0.0	Easy	I2_45	45	Feijoa is a type of grape	1.0	No	RIGHT	381.2266	RIGHT	175.9411	LEFT	1702.4023	LEFT	775.9717	22.3	0.6	Probable_Truth	RIGHT	RIGHT	3	727.3651	92	28:12.3
57	Self	S200225	0.5	2	1	1	2	0.6	1000.000002	1000.000002	1783.333337	2350.000005	Major	Good_deeds	27	You have attended all lectures as a student	C2_27	0.0	Easy	I1_40	13	French is Singapore's official language	0.0	Yes	LEFT	360.1712	RIGHT	1024.8447	LEFT	1255.3597	RIGHT	1627.3327	21.7	0.6	Probable_Lie	LEFT	RIGHT	2	1228.4858	93	28:36.6
115	Computer	S200225	0.666666667	1	2	1	2	0.3	1500.000003	1150.000002	1783.333337	1783.333337	Major	Good_deeds	29	You have stopped using plastics completely	C1_49	0.8	Easy	I2_34	57	Marijuana is legal in Singapore	1.0	Yes	LEFT	1335.5261	LEFT	751.671	RIGHT	1735.3597	RIGHT	1972.3546	21.7	0.3	Probable_Lie	LEFT	RIGHT	1	631.1819529	94	29:01.8
132	Computer	S200225	0.833333333	1	2	2	1	0.2	1433.333336	1066.666669	1500.000003	1500.000003	Major	Wrong_doings	13	You have kidnapped someone	C1_19	0.05	Hard	I2_58	3	It is 20th Century now	0.722222222	No	LEFT	1275.0935	LEFT	135.5925	RIGHT	1413.5153	LEFT	911.6266	21.7	0.2	Probable_Lie	LEFT	RIGHT	1	587.2303459	95	29:24.2
123	Computer	S200225	0.666666667	2	1	1	2	0.8	1433.333336	1433.333336	2216.666671	1500.000003	Minor	Good_deeds	4	You have helped others to pick up their belongings	C1_47	0.05	Hard	I1_54	54	Lehman Brothers went bankrupt on 20th September	0.777777778	Yes	RIGHT	335.804	LEFT	1371.3963	LEFT	1296.2991	RIGHT	1556.3219	21.7	0.8	Probable_Truth	RIGHT	LEFT	1	572.6112774	96	30:38.3
105	Computer	S200225	0.5	2	1	1	2	0.6	1000.000002	1150.000002	1650.000003	2066.666671	Major	Good_deeds	8	You have risked your life to save another person's life	C1_24	0.15	Easy	I2_50	50	South East Asia is currently free from polio	0.0	No	RIGHT	63.5832	LEFT	606.9126	LEFT	3837.4646	RIGHT	2766.3791	21.7	0.6	Probable_Lie	LEFT	RIGHT	3	848.629073	97	31:04.8
25	Self	S200225	0.666666667	2	1	1	2	0.1	1216.666669	1283.333336	2500.000005	1650.000003	Minor	Wrong_doings	48	You have assisted in a crime	C2_30	0.0	Hard	I1_36	33	The Amazon forest covers an area of 1 billion acres	0.722222222	No	RIGHT	233.9135	RIGHT	333.6142	RIGHT	2535.6709	LEFT	1278.1559	21.8	0.1	Probable_Truth	LEFT	LEFT	2	950.5219	98	31:29.4
23	Self	S200225	0.666666667	1	2	2	1	0.7	1066.666669	1066.666669	2066.666671	2216.666671	Major	Wrong_doings	49	You have organized a violent protest	C1_6	0.7	Hard	I1_57	34	Christmas Day is in March	0.0	No	RIGHT	486.4402	RIGHT	528.0903	LEFT	1152.0285	LEFT	991.1918	22.5	0.7	Probable_Lie	LEFT	LEFT	3	1006.8268	99	31:52.5
62	Self	S200225	0.5	2	1	2	1	0.2	1216.666669	1283.333336	1650.000003	1650.000003	Minor	Wrong_doings	59	You have thrown your trash into the bin	C2_31	0.2	Hard	I2_13	28	Hot chocolate was created by the Mayan culture	0.888888889	No	RIGHT	375.9743	RIGHT	423.4168	LEFT	2606.7072	RIGHT	2198.7339	22.7	0.2	Probable_Truth	LEFT	RIGHT	5	1751.1565	100	32:18.3
90	Self	S200225	0.833333333	2	1	1	2	0.6	1150.000002	1350.000003	1783.333337	1933.333337	Minor	Good_deeds	28	You have offered a listening ear to a friend	C1_17	1.0	Easy	I2_55	36	Bears have the biggest eyes among mammals	1.0	Yes	RIGHT	337.375	RIGHT	962.3208	LEFT	3239.6483	RIGHT	3035.6364	23.3	0.6	Probable_Truth	LEFT	LEFT	1	747.7537	101	32:45.4
71	Self	S200225	0.666666667	1	2	2	1	0.6	1216.666669	1500.000003	1500.000003	2350.000005	Major	Wrong_doings	25	You have eaten something in the MRT train	C1_40	0.2	Easy	I2_24	1	Malay is one of the races in Singapore	0.944444444	Yes	RIGHT	1564.4549	RIGHT	256.5108	RIGHT	1787.6461	LEFT	1229.8377	23.9	0.6	Probable_Truth	LEFT	LEFT	1	2274.478	102	33:11.6
59	Self	S200225	0.5	2	1	1	2	0.7	1150.000002	1350.000003	2500.000005	1783.333337	Minor	Wrong_doings	30	You have blackmailed others for money	C1_30	0.0	Easy	I1_5	40	Airbags in cars are filled with sodium azide	0.833333333	No	RIGHT	199.7006	RIGHT	141.5697	LEFT	2502.4554	LEFT	1561.1342	24.6	0.7	Probable_Truth	RIGHT	RIGHT	4	849.2775	103	33:36.3
10	Self	S200225	0.5	2	1	1	2	0.3	1433.333336	1433.333336	1933.333337	1650.000003	Major	Good_deeds	38	You have queued to enter the MRT train	C1_44	0.7	Hard	I2_27	27	Afghan Hound is the first cloned cat	0.0	Yes	RIGHT	616.3349	RIGHT	458.9153	LEFT	2782.9937	RIGHT	1296.7372	24.9	0.3	Probable_Truth	RIGHT	RIGHT	4	1395.4825	104	34:01.8
6	Self	S200225	0.5	1	2	2	1	0.4	1500.000003	1150.000002	2350.000005	1650.000003	Minor	Good_deeds	35	You have engaged in underage smoking	C2_35	0.0	Easy	I1_15	47	Nanyang Technological University is in Australia	0.0	Yes	LEFT	836.2397	RIGHT	590.657	LEFT	3445.6119	LEFT	992.8462	24.5	0.4	Probable_Lie	LEFT	RIGHT	2	1602.7349	105	34:28.5
108	Computer	S200225	0.5	2	1	2	1	0.2	1066.666669	1066.666669	2500.000005	2500.000005	Major	Good_deeds	16	You have taken responsibility for your actions	C2_16	0.95	Hard	I1_37	44	Fishes can swim in water	0.833333333	Yes	RIGHT	568.263	LEFT	1995.8768	RIGHT	1215.2124	RIGHT	831.8225	24.5	0.2	Probable_Truth	LEFT	RIGHT	5	888.602913	106	34:53.7
135	Computer	S200225	0.833333333	1	2	2	1	0.8	1350.000003	1000.000002	2500.000005	2500.000005	Major	Wrong_doings	37	You have deceived a loved one	C1_37	0.0	Easy	I2_12	45	There are 6000 spoken languages in the World	0.888888889	Yes	LEFT	1228.7284	LEFT	496.2174	LEFT	2317.723	LEFT	797.664	24.5	0.8	Probable_Lie	RIGHT	LEFT	5	519.1260178	107	35:19.0
50	Self	S200225	0.5	1	2	1	2	0.5	1066.666669	1433.333336	2216.666671	1650.000003	Minor	Good_deeds	45	You have donated a pay cheque to charity	C1_27	0.95	Hard	I1_39	60	There are 20 bones in the human skull	0.0	No	LEFT	449.2129	RIGHT	240.4907	LEFT	3880.2201	RIGHT	2390.1573	24.0	0.5	Probable_Lie	LEFT	RIGHT	3	1025.8451	108	35:45.9
131	Computer	S200225	0.833333333	1	2	1	2	0.3	1216.666669	1216.666669	1783.333337	2350.000005	Minor	Good_deeds	19	You have extorted money from anyone	C2_52	1.0	Hard	I1_31	31	Dutch is the 6th Europe's most widely spoken language	0.055555556	Yes	LEFT	2098.1411	LEFT	815.2968	LEFT	1072.1631	LEFT	1315.2348	24.0	0.3	Probable_Lie	LEFT	RIGHT	1	788.8164823	109	36:11.2
126	Computer	S200225	0.666666667	2	1	2	1	0.7	1150.000002	1066.666669	2500.000005	1783.333337	Major	Good_deeds	30	You have said sorry when you were rude	C2_50	1.0	Easy	I2_39	39	China is a part of Asia	0.0	No	LEFT	128.8862	LEFT	720.3109	RIGHT	1730.6732	RIGHT	1878.17	24.0	0.7	Probable_Truth	LEFT	LEFT	2	706.3934871	110	36:35.4
79	Self	S200225	0.666666667	2	1	2	1	0.2	1150.000002	1066.666669	2216.666671	2500.000005	Major	Good_deeds	26	You have helped your parents when asked to	C1_23	0.05	Easy	I1_32	42	The Earth turns the closest to the sun in May	0.0	Yes	RIGHT	464.1203	RIGHT	2457.1378	Time_Max_Exceeded	5000.1646	RIGHT	61.016	24.2	0.2	Probable_Lie	LEFT	LEFT	4	2043.1884	111	37:04.9
139	Computer	S200225	0.833333333	2	1	1	2	0.2	1283.333336	1150.000002	1500.000003	1500.000003	Minor	Good_deeds	37	You have held the door open for a stranger	C2_37	0.0	Easy	I1_24	27	Penguin can fly with their wings	0.0	Yes	RIGHT	1856.3253	LEFT	912.0192	LEFT	896.64	RIGHT	948.4816	24.2	0.2	Probable_Lie	LEFT	LEFT	2	710.8778155	112	37:28.3
127	Computer	S200225	0.666666667	2	1	2	1	0.3	1216.666669	1150.000002	1783.333337	2066.666671	Major	Wrong_doings	47	You have gossiped about your best friend	C2_2	0.95	Easy	I1_8	4	Singapore is in Africa	0.611111111	Yes	LEFT	401.031	LEFT	1262.8793	LEFT	2766.7416	LEFT	672.5232	24.2	0.3	Probable_Lie	LEFT	RIGHT	1	982.475369	113	37:53.2
140	Computer	S200225	0.833333333	2	1	2	1	0.1	1066.666669	1216.666669	2066.666671	2500.000005	Major	Wrong_doings	45	You have confessed to your mistake	C1_48	0.0	Easy	I2_41	43	R. Amundsen discovered the South Pole	0.055555556	Yes	LEFT	456.8156	LEFT	260.0526	LEFT	2244.2452	RIGHT	1503.943	24.2	0.1	Probable_Lie	RIGHT	LEFT	4	813.4074289	114	38:17.9
67	Self	S200225	0.666666667	1	2	1	2	0.8	1283.333336	1000.000002	1650.000003	2500.000005	Minor	Wrong_doings	42	You have said thank you when you have received help	C1_28	0.0	Hard	I1_41	5	Astatine is the rarest element in the Earth's crust	0.0	Yes	RIGHT	1679.0931	RIGHT	263.8251	LEFT	3285.977	RIGHT	1142.1574	25.0	0.8	Probable_Lie	LEFT	LEFT	5	1360.9367	115	38:44.6
121	Computer	S200225	0.666666667	2	1	1	2	0.2	1283.333336	1500.000003	2350.000005	2500.000005	Minor	Wrong_doings	48	You have assisted in a crime	C2_30	0.0	Hard	I1_36	33	The Amazon forest covers an area of 1 billion acres	0.722222222	No	LEFT	151.4191	LEFT	820.8475	RIGHT	1174.9178	LEFT	1157.5222	25.0	0.2	Probable_Lie	RIGHT	RIGHT	2	774.3639018	116	39:08.9
142	Computer	S200225	0.833333333	2	1	2	1	0.3	1350.000003	1350.000003	1933.333337	1650.000003	Minor	Wrong_doings	5	You have lost everything just to help others	C2_19	0.0	Hard	I1_53	17	Nomophobia is the fear of being without a phone or computer	0.888888889	Yes	LEFT	479.4966	LEFT	1393.4753	LEFT	2615.8349	RIGHT	2069.996	25.0	0.3	Probable_Lie	LEFT	LEFT	4	506.294015	117	39:34.8
8	Self	S200225	0.5	2	1	1	2	0.1	1000.000002	1500.000003	1650.000003	1783.333337	Minor	Wrong_doings	44	You have watched a pirated movie	C2_60	0.05	Hard	I1_44	52	A dog has four legs	0.166666667	No	RIGHT	352.443	RIGHT	215.6505	RIGHT	767.2758	LEFT	731.0368	25.1	0.1	Probable_Truth	LEFT	RIGHT	6	1591.8721	118	39:57.0
91	Self	S200225	0.833333333	2	1	1	2	0.2	1350.000003	1066.666669	2066.666671	1650.000003	Major	Good_deeds	17	You have sold illegal drugs	C2_40	0.0	Easy	I1_38	14	Obama is the USA president now	0.666666667	No	RIGHT	391.6758	RIGHT	526.3855	RIGHT	1720.5479	LEFT	1461.1285	25.3	0.2	Probable_Truth	LEFT	LEFT	1	1835.358	119	40:21.6
30	Self	S200225	0.666666667	2	1	2	1	0.3	1283.333336	1350.000003	1933.333337	1500.000003	Major	Good_deeds	30	You have said sorry when you were rude	C2_50	1.0	Easy	I2_39	39	China is a part of Asia	0.0	No	RIGHT	344.2007	RIGHT	530.8251	RIGHT	1462.6212	RIGHT	647.4843	25.6	0.3	Probable_Truth	RIGHT	RIGHT	3	887.7846	120	40:44.1
9	Self	S200225	0.5	2	1	1	2	0.5	1216.666669	1066.666669	1783.333337	2500.000005	Major	Good_deeds	8	You have risked your life to save another person's life	C1_24	0.15	Easy	I2_50	50	South East Asia is currently free from polio	0.0	No	RIGHT	360.6128	RIGHT	383.4943	LEFT	1207.4342	RIGHT	2005.0851	26.1	0.5	Probable_Truth	LEFT	RIGHT	6	1259.2547	121	41:08.5
1	Self	S200225	0.5	1	2	1	2	0.5	1216.666669	1066.666669	2500.000005	2500.000005	Major	Wrong_doings	8	You have helped with household chores	C1_51	0.75	Easy	I1_25	25	The Earth is round	0.833333333	Yes	LEFT	926.8084	RIGHT	49.377	RIGHT	688.9145	RIGHT	1963.0436	25.6	0.5	Probable_Lie	LEFT	RIGHT	1	1060.9362	122	41:33.0
44	Self	S200225	0.833333333	2	1	2	1	0.5	1150.000002	1066.666669	2216.666671	1783.333337	Major	Wrong_doings	45	You have confessed to your mistake	C1_48	0.0	Easy	I2_41	43	R. Amundsen discovered the South Pole	0.055555556	Yes	RIGHT	480.6096	RIGHT	1639.1534	LEFT	2801.3123	RIGHT	718.7334	26.1	0.5	Probable_Truth	LEFT	LEFT	1	794.9645	123	41:58.3
22	Self	S200225	0.666666667	1	2	2	1	0.3	1350.000003	1150.000002	1783.333337	1500.000003	Minor	Good_deeds	46	You have borrowed things and never returned	C2_29	0.0	Hard	I2_38	26	The first Grammy awards was held in 1959	0.888888889	No	RIGHT	329.4325	RIGHT	248.959	LEFT	1141.2405	RIGHT	743.9361	26.4	0.3	Probable_Truth	LEFT	LEFT	2	1961.861	124	42:21.1
47	Self	S200225	0.833333333	2	1	2	1	0.6	1500.000003	1000.000002	2066.666671	2066.666671	Minor	Wrong_doings	20	You have illegally stayed in a country	C2_45	0.85	Hard	I1_48	24	Saturn's rings are between 30 and 300 feet thick	1.0	No	RIGHT	296.2396	RIGHT	3653.1878	RIGHT	1414.31	LEFT	872.0047	27.0	0.6	Probable_Lie	RIGHT	RIGHT	1	1316.3396	125	42:47.8
42	Self	S200225	0.833333333	2	1	1	2	0.8	1283.333336	1150.000002	1783.333337	1500.000003	Major	Good_deeds	60	You have been restricting your electricity consumption	C1_5	0.55	Easy	I2_43	53	Carnivore refers to meat-eater	0.944444444	Yes	LEFT	304.6115	LEFT	546.8654	RIGHT	871.5619	RIGHT	3285.6993	27.0	0.8	Probable_Lie	RIGHT	RIGHT	1	650.1427	126	43:11.8
29	Self	S200225	0.666666667	2	1	2	1	0.7	1433.333336	1433.333336	2066.666671	2500.000005	Minor	Wrong_doings	50	You have fabricated facts about yourself	C2_48	0.0	Hard	I1_4	35	It takes 500 days to travel from Earth to Mars	0.0	Yes	LEFT	743.938	LEFT	382.2866	LEFT	2661.5634	LEFT	984.5925	27.0	0.7	Probable_Lie	LEFT	LEFT	6	1532.6617	127	43:38.1
102	Computer	S200225	0.5	1	2	2	1	0.5	1066.666669	1350.000003	1500.000003	2066.666671	Minor	Good_deeds	35	You have engaged in underage smoking	C2_35	0.0	Easy	I1_15	47	Nanyang Technological University is in Australia	0.0	Yes	LEFT	594.246	LEFT	352.4394	LEFT	1254.9393	LEFT	784.1814	27.0	0.5	Probable_Lie	LEFT	RIGHT	2	781.4817601	128	44:00.4
37	Self	S200225	0.833333333	1	2	2	1	0.6	1216.666669	1283.333336	1783.333337	2066.666671	Minor	Good_deeds	7	You have sorted your trash into recycling bin	C1_13	0.1	Hard	I2_4	12	There are 7 days in a week	0.944444444	No	RIGHT	1217.801	RIGHT	392.2004	RIGHT	950.9194	RIGHT	896.2786	27.6	0.6	Probable_Truth	LEFT	LEFT	1	814.5426	129	44:23.6
20	Self	S200225	0.666666667	1	2	2	1	0.1	1150.000002	1000.000002	2500.000005	1783.333337	Minor	Wrong_doings	53	You have helped a friend in need	C2_53	1.0	Hard	I2_11	35	Some owl species hunt fish	0.944444444	Yes	RIGHT	703.2395	RIGHT	144.2839	LEFT	1322.8219	RIGHT	1045.5044	27.7	0.1	Probable_Truth	LEFT	LEFT	2	1021.3438	130	44:46.9
66	Self	S200225	0.666666667	1	2	1	2	0.2	1066.666669	1150.000002	2500.000005	1933.333337	Minor	Good_deeds	56	You have adopted a zero-waste lifestyle	C1_7	0.05	Hard	I1_1	41	The hardest bone in human body is the jawbone	0.611111111	Yes	RIGHT	1380.9996	RIGHT	344.4008	LEFT	2047.6213	RIGHT	2596.5929	27.9	0.2	Probable_Truth	RIGHT	RIGHT	4	878.0791	131	45:13.4
136	Computer	S200225	0.833333333	2	1	1	2	0.5	1500.000003	1433.333336	2500.000005	2066.666671	Major	Good_deeds	19	You have cursed at others	C1_20	1.0	Hard	I2_8	41	Arabi is the oldest surviving breed of horse	0.777777778	No	LEFT	416.5352	LEFT	440.4341	LEFT	3584.3818	LEFT	1110.261	27.9	0.5	Probable_Lie	RIGHT	LEFT	2	776.9575871	132	45:39.8
40	Self	S200225	0.833333333	2	1	1	2	0.7	1216.666669	1283.333336	2350.000005	1650.000003	Major	Good_deeds	19	You have cursed at others	C1_20	1.0	Hard	I2_8	41	Arabi is the oldest surviving breed of horse	0.777777778	No	RIGHT	608.448	RIGHT	1881.8633	LEFT	831.6871	LEFT	726.0936	28.6	0.7	Probable_Truth	LEFT	LEFT	1	728.5676	133	46:03.6
129	Computer	S200225	0.833333333	1	2	1	2	0.5	1150.000002	1283.333336	1933.333337	1650.000003	Minor	Wrong_doings	50	You have stopped using products tested on animals	C2_7	0.1	Hard	I2_21	4	Mageirocophobia is a fear of deathly disease	0.0	No	RIGHT	584.2974	LEFT	47.7512	LEFT	1231.9385	RIGHT	1919.2041	28.6	0.5	Probable_Truth	LEFT	LEFT	1	894.2134184	134	46:26.9
110	Computer	S200225	0.5	2	1	2	1	0.1	1150.000002	1433.333336	2216.666671	1650.000003	Major	Wrong_doings	24	You have made counterfeit money	C1_38	0.0	Easy	I1_23	37	The sun rises at night	0.777777778	Yes	LEFT	128.9338	LEFT	492.7232	LEFT	1365.5166	LEFT	920.3304	28.6	0.1	Probable_Lie	LEFT	RIGHT	3	525.4257834	135	46:49.4
85	Self	S200225	0.833333333	1	2	2	1	0.5	1500.000003	1216.666669	1783.333337	2216.666671	Minor	Good_deeds	43	You have volunteered for a disaster-related humanitarian mission	C2_17	0.55	Hard	I1_46	2	Singapore is a poor country	0.777777778	Yes	RIGHT	863.7848	RIGHT	768.711	LEFT	1202.7596	RIGHT	4383.3885	29.1	0.5	Probable_Truth	LEFT	LEFT	1	901.1846	136	47:16.8
106	Computer	S200225	0.5	2	1	1	2	0.8	1283.333336	1216.666669	1933.333337	2350.000005	Major	Good_deeds	38	You have queued to enter the MRT train	C1_44	0.7	Hard	I2_27	27	Afghan Hound is the first cloned cat	0.0	Yes	LEFT	167.7242	LEFT	762.0064	LEFT	759.6848	RIGHT	787.5609	29.1	0.8	Probable_Lie	LEFT	LEFT	6	719.2058434	137	47:39.3
117	Computer	S200225	0.666666667	1	2	2	1	0.8	1433.333336	1500.000003	1650.000003	2066.666671	Minor	Wrong_doings	29	You have been arrested	C2_20	0.0	Easy	I1_26	54	Vegetarians can eat vegetable products	0.0	Yes	RIGHT	542.282	LEFT	224.6289	RIGHT	1542.3804	LEFT	992.2294	29.1	0.8	Probable_Truth	RIGHT	RIGHT	5	682.0912903	138	48:02.5
58	Self	S200225	0.5	2	1	1	2	0.3	1283.333336	1433.333336	2216.666671	1933.333337	Major	Good_deeds	36	You have told someone's secret to others	C2_36	0.65	Hard	I1_52	5	December is the last month of the year	0.0	No	RIGHT	360.771	RIGHT	767.8467	RIGHT	1296.1409	LEFT	2948.1712	29.4	0.3	Probable_Truth	LEFT	RIGHT	6	933.1921	139	48:28.3
3	Self	S200225	0.5	1	2	1	2	0.8	1000.000002	1433.333336	1933.333337	1783.333337	Minor	Wrong_doings	9	You have violated a traffic law	C1_8	0.05	Hard	I2_53	15	The first Olympic Games was held in the 5th century B.C	0.888888889	No	RIGHT	621.5356	RIGHT	271.4735	LEFT	1423.3025	LEFT	954.6524	30.2	0.8	Probable_Truth	LEFT	RIGHT	4	1419.4538	140	48:51.7
124	Computer	S200225	0.666666667	2	1	2	1	0.4	1000.000002	1000.000002	1650.000003	1650.000003	Major	Good_deeds	43	You have sign up to sponsor a needy child	C1_4	0.55	Easy	I2_35	48	The current century is 21st	0.0	No	LEFT	144.296	LEFT	296.1886	LEFT	1207.2062	RIGHT	1647.2692	30.2	0.4	Probable_Lie	LEFT	RIGHT	2	756.3084213	141	49:13.6
81	Self	S200225	0.833333333	1	2	1	2	0.7	1000.000002	1500.000003	2066.666671	1933.333337	Major	Wrong_doings	58	You have given directions to a lost tourist	C1_58	1.0	Easy	I2_22	13	Teddy Roosevelt was the youngest US President	0.833333333	No	LEFT	887.3228	RIGHT	321.6077	LEFT	2624.0723	RIGHT	1853.4415	29.5	0.7	Probable_Lie	RIGHT	RIGHT	1	1184.9269	142	49:39.6
69	Self	S200225	0.666666667	1	2	2	1	0.1	1000.000002	1066.666669	1933.333337	2066.666671	Minor	Good_deeds	10	You have made someone cry	C2_10	0.95	Easy	I2_26	50	A triangle has three sides	0.944444444	No	RIGHT	1764.3382	RIGHT	105.3413	LEFT	1440.7158	RIGHT	39.8347	29.6	0.1	Probable_Lie	LEFT	LEFT	4	1202.1287	143	50:02.8
