index	Trial_Type	Participant_ID	Trial_Probability	Question_Position_Prediction_Correct	Question_Position_Prediction_Agent	Question_Position_Comparison_Self	Question_Position_Comparison_Irrelevant	Trial_Stake	Trial_Stake_Jitter	Trial_Type_Jitter	Trial_Result_Jitter	Balance_Update_Jitter	Question_Comparison_Condition	Question_Comparison_Type	Question_Comparison_Question	Question_Comparison_Label	Question_Comparison_Item	Question_Comparison_Proportion_Yes	Question_Factual_Condition	Question_Factual_Item	Question_Factual_Question	Question_Factual_Label	Question_Factual_Proportion_DontKnow	Question_Factual_Type	Answer_Prediction_Correct	Answer_Prediction_Correct_RT	Answer_Prediction_Agent	Answer_Prediction_Agent_RT	Answer_Self	Answer_Self_RT	Answer_Irrelevant	Answer_Irrelevant_RT	Trial_Balance	Trial_Balance_Effect	Trial_Condition	Trial_ProbableSide	Prediction_Choice	Prediction_Result	Prediction_RT	Trial_Order	Trial_Datetime
49	Self	S210202	0.5	1	2	1	2	0.1	1350.0000027	1500.000003	2066.6666708	2216.6666711000003	Minor	Wrong_doings	45	You have taken months off to volunteer	C2_28	0.05	Easy	I1_48	12	Mageirocophobia is a fear of deathly disease	0.888888888888889	Yes	RIGHT	990.4597000000308	RIGHT	824.7205999999778	RIGHT	1873.7714999999755	RIGHT	3215.4826999999955	10.1	0.1	Probable_Truth	RIGHT	LEFT	3	791.2091999999689	0	2021-02-02 14:10:19.720875
71	Self	S210202	0.6666666666666666	1	2	2	1	0.4	1216.6666691	1150.0000023	2350.0000047	1500.000003	Major	Good_deeds	56	You have switched off appliances when not in use	C2_23	0.0	Easy	I2_40	30	A triangle has three sides	0.0	Yes	LEFT	1492.1196000000236	RIGHT	745.752399999958	RIGHT	1831.049599999972	RIGHT	1314.158099999986	9.7	0.4	Probable_Lie	RIGHT	RIGHT	2	1278.3408000000236	1	2021-02-02 14:10:45.175411
101	Computer	S210202	0.5	1	2	2	1	0.4	1216.6666691	1283.3333359	1650.0000033	2066.6666708	Major	Good_deeds	23	You have risked your life to save another person's life	C1_34	0.7	Easy	I1_50	9	Beer is an alcoholic drink	0.0	No	RIGHT	1294.8729999999955	LEFT	728.072300000008	RIGHT	2687.3752000000195	RIGHT	1420.6365999999662	9.7	0.4	Probable_Truth	LEFT	RIGHT	4	915.2380035549158	2	2021-02-02 14:11:11.008792
12	Self	S210202	0.5	2	1	2	1	0.5	1150.0000023	1066.6666688	1500.000003	1500.000003	Major	Good_deeds	36	You have cheated on a national exam	C2_1	0.0	Hard	I2_18	36	Milwaukee Art Museum is located in California	0.666666666666667	Yes	RIGHT	648.3057000000372	RIGHT	860.7347999999888	LEFT	1167.028900000048	LEFT	2813.12939999998	10.2	0.5	Probable_Truth	LEFT	RIGHT	4	1679.199400000016	3	2021-02-02 14:11:35.968789
74	Self	S210202	0.6666666666666666	2	1	1	2	0.6	1066.6666688	1283.3333359	1933.3333372	2500.000005	Minor	Good_deeds	38	You have blackmailed others for money	C1_51	1.0	Hard	I1_19	56	Septicemia is a lung infection condition	0.0	Yes	LEFT	544.324300000028	RIGHT	924.5846999999684	LEFT	1357.8310999999983	RIGHT	2088.708899999972	9.6	0.6	Probable_Lie	LEFT	RIGHT	2	3651.874599999985	4	2021-02-02 14:12:03.888781
73	Self	S210202	0.6666666666666666	2	1	1	2	0.8	1216.6666691	1433.3333362	2066.6666708	1500.000003	Minor	Good_deeds	28	You have told someone's secret to others	C2_17	0.0	Easy	I2_56	44	It is 20th Century now	0.0	No	RIGHT	712.2210999999652	RIGHT	870.5017000000339	LEFT	2995.957799999985	LEFT	1216.6717000000062	10.4	0.8	Probable_Lie	LEFT	LEFT	3	1236.4455999999675	5	2021-02-02 14:12:29.704908
140	Computer	S210202	0.8333333333333334	2	1	2	1	0.3	1000.000002	1216.6666691	2350.0000047	1933.3333372	Minor	Good_deeds	35	You have bribed someone to improve a grade	C2_35	0.7	Easy	I1_23	31	Teddy Roosevelt was the youngest US President	1.0	Yes	LEFT	817.0364000000063	LEFT	1382.8172999999992	LEFT	1063.5286999998923	LEFT	3285.39109999997	10.4	0.3	Probable_Lie	RIGHT	LEFT	4	565.6692330574676	6	2021-02-02 14:12:55.888816
109	Computer	S210202	0.5	2	1	2	1	0.8	1500.000003	1500.000003	1783.3333369	1783.3333369	Minor	Good_deeds	1	You have lied to your parents	C1_7	0.0	Hard	I1_54	6	The Franco-Prussian War occurred in the 19th century	0.0	No	RIGHT	815.8696999998938	LEFT	1183.1703999999943	LEFT	879.2578999999705	RIGHT	4211.435499999993	10.4	0.8	Probable_Truth	RIGHT	RIGHT	4	825.0639801380312	7	2021-02-02 14:13:22.944663
42	Self	S210202	0.8333333333333334	2	1	1	2	0.3	1350.0000027	1500.000003	2216.6666711000003	1500.000003	Major	Wrong_doings	29	You have held the elevator doors for others	C2_60	0.9	Hard	I2_38	57	Kangaroos live in Africa	0.0	No	RIGHT	689.5776000000069	RIGHT	1048.3476000000564	RIGHT	1780.5885999999873	LEFT	2208.0184000000145	10.7	0.3	Probable_Lie	LEFT	LEFT	4	1268.414000000007	8	2021-02-02 14:13:49.080537
25	Self	S210202	0.6666666666666666	2	1	1	2	0.2	1216.6666691	1150.0000023	1650.0000033	1650.0000033	Minor	Wrong_doings	40	You have assisted in a crime	C1_15	0.95	Hard	I1_28	4	North Korea is more developed than South Korea	0.0555555555555556	Yes	LEFT	1000.305600000047	RIGHT	1127.7035000000524	LEFT	1209.3192000000954	LEFT	2191.963200000032	10.500000000000002	0.2	Probable_Lie	LEFT	LEFT	5	1054.1677999999592	9	2021-02-02 14:14:13.896680
120	Computer	S210202	0.6666666666666666	2	1	1	2	0.8	1000.000002	1216.6666691	2066.6666708	2216.6666711000003	Major	Wrong_doings	3	You have adopted a zero-waste lifestyle	C1_37	0.05	Hard	I1_14	28	Today is a weekday	0.777777777777778	No	LEFT	809.0271999999459	LEFT	1109.7823000000062	RIGHT	1808.6210000000165	RIGHT	1862.0564999999945	10.500000000000002	0.8	Probable_Lie	RIGHT	LEFT	5	869.202031275061	10	2021-02-02 14:14:39.423867
16	Self	S210202	0.6666666666666666	1	2	1	2	0.7	1283.3333359	1150.0000023	2350.0000047	1500.000003	Major	Good_deeds	58	You have said sorry when you were rude	C2_52	0.75	Easy	I1_26	33	There are 30 hours in a day	0.944444444444444	Yes	RIGHT	762.2192000000041	RIGHT	376.72970000005535	RIGHT	3001.512400000024	LEFT	1039.8820999999998	11.2	0.7	Probable_Truth	RIGHT	RIGHT	6	799.2647000000943	11	2021-02-02 14:15:04.264267
114	Computer	S210202	0.6666666666666666	1	2	1	2	0.1	1283.3333359	1216.6666691	2066.6666708	2500.000005	Minor	Good_deeds	48	You have been restricting your electricity consumption	C2_48	0.45	Hard	I2_39	52	The Seine river is 50 feet above sea level	0.944444444444444	Yes	RIGHT	1090.9652999999937	LEFT	647.7152999999589	RIGHT	2949.9777999999424	RIGHT	2766.758600000003	11.2	0.1	Probable_Truth	RIGHT	RIGHT	4	735.0341056665386	12	2021-02-02 14:15:32.087488
41	Self	S210202	0.8333333333333334	2	1	1	2	0.2	1066.6666688	1283.3333359	2066.6666708	2500.000005	Minor	Wrong_doings	17	You have organized a violent protest	C1_35	0.0	Hard	I1_38	3	Afghan Hound is the first cloned cat	0.166666666666667	No	RIGHT	367.919000000029	RIGHT	964.9838999999928	LEFT	3038.8633999999684	RIGHT	3392.2450999999683	11.4	0.2	Probable_Lie	LEFT	LEFT	3	1367.2675000000254	13	2021-02-02 14:16:00.705148
22	Self	S210202	0.6666666666666666	1	2	2	1	0.2	1066.6666688	1216.6666691	2066.6666708	2066.6666708	Major	Good_deeds	5	You have violated a traffic law	C2_24	0.0	Easy	I1_33	8	The Earth is round	0.722222222222222	No	RIGHT	935.6725999999752	RIGHT	414.3313999999236	LEFT	934.731700000043	RIGHT	1241.5821000000733	11.6	0.2	Probable_Lie	LEFT	LEFT	3	1119.9669999999742	14	2021-02-02 14:16:24.345184
0	Self	S210202	0.5	1	2	1	2	0.5	1216.6666691	1000.000002	1500.000003	2350.0000047	Minor	Good_deeds	44	You have helped others to pick up their belongings	C1_3	0.95	Easy	I1_9	48	Nanyang Technological University is in Australia	0.0	No	LEFT	1325.487100000032	RIGHT	1039.6774999999252	RIGHT	1403.8646999999855	LEFT	1526.6673000000992	11.1	0.5	Probable_Lie	RIGHT	LEFT	4	1677.488799999992	15	2021-02-02 14:16:49.960361
29	Self	S210202	0.6666666666666666	2	1	2	1	0.4	1500.000003	1000.000002	1500.000003	1933.3333372	Minor	Good_deeds	14	You have eaten something in the MRT train	C1_40	0.0	Easy	I2_35	43	The Earth turns the closest to the sun in May	0.888888888888889	No	LEFT	399.5452000000341	RIGHT	796.3570000000573	LEFT	1813.547399999948	LEFT	4388.959200000045	10.7	0.4	Probable_Lie	LEFT	LEFT	6	928.0001000000766	16	2021-02-02 14:17:16.791793
76	Self	S210202	0.6666666666666666	2	1	2	1	0.5	1283.3333359	1350.0000027	2500.000005	2350.0000047	Minor	Wrong_doings	59	You have claimed doing things that you never did	C2_38	0.0	Hard	I2_44	12	Acoustic Kitty refers to cat with implants	0.111111111111111	Yes	RIGHT	320.7469000000174	RIGHT	894.3113999999923	LEFT	2687.6379999999926	LEFT	4114.521500000024	11.2	0.5	Probable_Truth	LEFT	LEFT	2	982.9535000000078	17	2021-02-02 14:17:45.839560
89	Self	S210202	0.8333333333333334	2	1	1	2	0.8	1433.3333362	1066.6666688	1933.3333372	1933.3333372	Major	Good_deeds	59	You have fabricated facts about yourself	C1_50	0.1	Hard	I2_11	26	Cleopatra was born in Greece	0.0555555555555556	Yes	LEFT	1103.2235999999784	RIGHT	1644.5102000000134	LEFT	1331.5496000000169	LEFT	2352.875299999937	10.4	0.8	Probable_Lie	RIGHT	RIGHT	1	1293.710499999975	18	2021-02-02 14:18:12.505090
124	Computer	S210202	0.6666666666666666	2	1	2	1	0.6	1283.3333359	1150.0000023	1650.0000033	2066.6666708	Minor	Wrong_doings	40	You have offered a listening ear to a friend	C1_14	1.0	Easy	I1_47	14	R. Amundsen discovered the South Pole	0.0	Yes	RIGHT	833.5875000000215	LEFT	666.5116000000353	RIGHT	1504.0590000000975	LEFT	2695.938299999966	10.4	0.6	Probable_Truth	RIGHT	RIGHT	4	902.5537392857	19	2021-02-02 14:18:37.816543
78	Self	S210202	0.6666666666666666	2	1	2	1	0.1	1433.3333362	1066.6666688	1783.3333369	1933.3333372	Minor	Wrong_doings	30	You have complimented others for good work	C1_30	0.95	Easy	I1_12	59	The first Grammy awards was held in 1959	0.944444444444444	No	LEFT	1167.5021999999444	RIGHT	1281.674100000032	RIGHT	1126.8045000000484	LEFT	2644.092799999953	10.3	0.1	Probable_Lie	LEFT	RIGHT	1	1122.563199999945	20	2021-02-02 14:19:03.953045
11	Self	S210202	0.5	2	1	1	2	0.2	1000.000002	1283.3333359	1783.3333369	2066.6666708	Major	Wrong_doings	47	You have illegally stayed in a country	C1_20	0.9	Easy	I2_22	54	The current century is 21st	0.888888888888889	No	LEFT	880.8887999999797	RIGHT	1274.6200000000272	LEFT	1165.3497999999445	RIGHT	1575.3432000000205	10.1	0.2	Probable_Lie	LEFT	RIGHT	2	1431.0210999999526	21	2021-02-02 14:19:28.983508
105	Computer	S210202	0.5	2	1	1	2	0.3	1000.000002	1150.0000023	2066.6666708	1500.000003	Major	Wrong_doings	9	You have given up your seat in the MRT	C2_36	1.0	Hard	I1_6	49	It is night time now	0.0	Yes	LEFT	576.7920999999205	LEFT	1551.3003999999455	RIGHT	1444.9204999999663	LEFT	1344.680599999947	10.1	0.3	Probable_Lie	RIGHT	LEFT	6	627.7181268002083	22	2021-02-02 14:19:52.815449
20	Self	S210202	0.6666666666666666	1	2	2	1	0.5	1350.0000027	1283.3333359	2216.6666711000003	1783.3333369	Major	Wrong_doings	13	You have engaged in underage smoking	C1_60	0.05	Hard	I1_8	26	Algeria is Africa's second largest country	0.944444444444444	Yes	RIGHT	767.9056000000628	RIGHT	313.1381000000601	LEFT	1215.7518999999866	LEFT	2500.686099999939	10.6	0.5	Probable_Truth	RIGHT	RIGHT	5	886.3764000000174	23	2021-02-02 14:20:17.695568
36	Self	S210202	0.8333333333333334	1	2	2	1	0.5	1000.000002	1066.6666688	1500.000003	2216.6666711000003	Major	Good_deeds	20	You have extorted money from anyone	C2_20	0.0	Hard	I2_16	24	Mozambique is the world's poorest country	0.666666666666667	Yes	RIGHT	901.3259999999264	RIGHT	344.619200000011	LEFT	941.79500000007	LEFT	4400.922199999968	11.1	0.5	Probable_Truth	RIGHT	RIGHT	6	3127.976399999966	24	2021-02-02 14:20:45.768355
9	Self	S210202	0.5	2	1	1	2	0.8	1350.0000027	1433.3333362	2066.6666708	1650.0000033	Major	Wrong_doings	9	You have given up your seat in the MRT	C2_36	1.0	Hard	I1_6	49	It is night time now	0.0	Yes	RIGHT	464.8475999999846	RIGHT	1045.6156999999848	RIGHT	1856.0672999999497	LEFT	1112.2449000000645	11.9	0.8	Probable_Truth	RIGHT	LEFT	1	135.16729999992094	25	2021-02-02 14:21:09.447551
80	Self	S210202	0.8333333333333334	1	2	1	2	0.7	1150.0000023	1216.6666691	1783.3333369	2500.000005	Minor	Good_deeds	24	You have lost everything just to help others	C1_8	0.05	Easy	I1_40	11	A caterpillar has more muscle than a human	0.0	Yes	RIGHT	994.9268000000302	RIGHT	640.7744999999068	RIGHT	2908.5675999999694	LEFT	2103.862100000015	12.6	0.7	Probable_Truth	LEFT	LEFT	1	958.9844999999286	26	2021-02-02 14:21:36.272275
2	Self	S210202	0.5	1	2	1	2	0.6	1350.0000027	1216.6666691	1933.3333372	1500.000003	Minor	Wrong_doings	34	You have made someone cry	C2_18	0.05	Hard	I1_15	23	The human's inner ear is larger than a pencil eraser	1.0	Yes	LEFT	1092.9849000001468	RIGHT	487.5104000000192	LEFT	1495.5600000000686	LEFT	3615.591199999926	12.0	0.6	Probable_Lie	LEFT	RIGHT	2	2352.415899999869	27	2021-02-02 14:22:03.888320
70	Self	S210202	0.6666666666666666	1	2	2	1	0.6	1500.000003	1433.3333362	2066.6666708	2216.6666711000003	Major	Good_deeds	31	You have kept your promises	C1_12	0.65	Easy	I1_31	41	There are 9 rings in the Olympic flag	0.0555555555555556	Yes	RIGHT	1100.199099999827	RIGHT	745.0044999998227	RIGHT	1112.4889000000169	LEFT	1634.0196999999534	12.6	0.6	Probable_Truth	LEFT	LEFT	2	813.6354999999185	28	2021-02-02 14:22:29.079505
63	Self	S210202	0.5	2	1	2	1	0.2	1216.6666691	1350.0000027	2216.6666711000003	2066.6666708	Major	Wrong_doings	6	You have stolen something	C2_33	0.0	Hard	I1_27	13	Statute of Liberty is in New York	1.0	Yes	RIGHT	320.44539999992594	RIGHT	912.5128999999106	LEFT	807.6261999999588	RIGHT	1551.0271000000555	12.8	0.2	Probable_Truth	LEFT	RIGHT	4	1588.094200000114	29	2021-02-02 14:22:53.679893
91	Self	S210202	0.8333333333333334	2	1	1	2	0.6	1283.3333359	1350.0000027	2500.000005	2066.6666708	Minor	Wrong_doings	30	You have shown your appreciation to your teachers	C1_16	0.8	Easy	I1_43	58	French is Singapore's official language	0.0	No	RIGHT	400.5283999999847	RIGHT	955.888099999811	RIGHT	1246.7024000000038	LEFT	1598.4077000000525	13.4	0.6	Probable_Truth	RIGHT	RIGHT	4	1181.8820999999389	30	2021-02-02 14:23:18.831464
61	Self	S210202	0.5	2	1	2	1	0.4	1283.3333359	1150.0000023	2500.000005	2350.0000047	Major	Good_deeds	4	You have intentionally let others cut in line	C1_57	0.0	Easy	I1_42	8	Nomophobia is the fear of being without a phone or computer	0.0	No	LEFT	744.0791999999874	RIGHT	1101.2052999999469	LEFT	3191.557800000055	RIGHT	4115.431899999976	12.999999999999998	0.4	Probable_Lie	LEFT	RIGHT	3	1852.56749999985	31	2021-02-02 14:23:49.687579
137	Computer	S210202	0.8333333333333334	2	1	1	2	0.1	1216.6666691	1283.3333359	1783.3333369	1500.000003	Minor	Wrong_doings	17	You have organized a violent protest	C1_35	0.0	Hard	I1_38	3	Afghan Hound is the first cloned cat	0.166666666666667	No	LEFT	400.2181999999266	LEFT	1437.132899999824	LEFT	1215.0662000001375	RIGHT	1792.7336000000196	12.999999999999998	0.1	Probable_Lie	RIGHT	LEFT	5	878.7177410947852	32	2021-02-02 14:24:13.760248
83	Self	S210202	0.8333333333333334	1	2	1	2	0.8	1283.3333359	1350.0000027	1500.000003	1650.0000033	Minor	Wrong_doings	8	You have watched a pirated movie	C2_8	1.0	Easy	I2_1	1	A square has 3 corners	0.777777777777778	No	LEFT	1243.7015000000429	RIGHT	406.9471000000249	LEFT	1207.079799999974	LEFT	1184.1632999999092	12.199999999999998	0.8	Probable_Lie	RIGHT	RIGHT	1	835.9734000000572	33	2021-02-02 14:24:36.999825
26	Self	S210202	0.6666666666666666	2	1	1	2	0.5	1000.000002	1500.000003	1783.3333369	1500.000003	Minor	Good_deeds	25	You have deceived a loved one	C2_25	0.85	Hard	I1_32	32	Lehman Brothers went bankrupt on 20th September	0.888888888888889	Yes	RIGHT	320.66870000016934	RIGHT	827.9379999999037	LEFT	1549.4891999999254	LEFT	1991.6355000000292	12.699999999999998	0.5	Probable_Truth	RIGHT	RIGHT	5	1359.9942999999255	34	2021-02-02 14:25:01.399493
113	Computer	S210202	0.6666666666666666	1	2	1	2	0.8	1066.6666688	1433.3333362	2500.000005	2216.6666711000003	Minor	Wrong_doings	52	You have been sued	C1_5	0.85	Hard	I2_24	24	December is the last month of the year	0.0	No	RIGHT	942.121299999826	LEFT	464.0830000000733	LEFT	1161.339700000099	LEFT	2176.3100999999097	12.699999999999998	0.8	Probable_Truth	LEFT	LEFT	2	865.7054877324774	35	2021-02-02 14:25:26.792336
32	Self	S210202	0.8333333333333334	1	2	1	2	0.4	1433.3333362	1283.3333359	2216.6666711000003	2350.0000047	Minor	Wrong_doings	53	You have drunk alcohol when you were underage	C2_19	0.7	Easy	I1_24	41	Singapore is a country	0.0	No	RIGHT	1087.8559000000223	RIGHT	296.3477000000694	LEFT	2291.466299999911	RIGHT	1039.9519999998574	13.099999999999998	0.4	Probable_Truth	RIGHT	RIGHT	3	1305.4928999999902	36	2021-02-02 14:25:52.663704
14	Self	S210202	0.5	2	1	2	1	0.3	1216.6666691	1350.0000027	2350.0000047	1933.3333372	Minor	Good_deeds	7	You have provided shelter for stray animals	C2_47	0.95	Easy	I2_49	18	Hot chocolate was created by the Mayan culture	0.0	No	RIGHT	336.05149999993955	RIGHT	929.5695000000704	RIGHT	1343.9343999998528	LEFT	2844.28580000008	13.4	0.3	Probable_Truth	RIGHT	RIGHT	4	1539.725900000121	37	2021-02-02 14:26:19.078935
119	Computer	S210202	0.6666666666666666	1	2	2	1	0.3	1216.6666691	1500.000003	1500.000003	2066.6666708	Major	Wrong_doings	24	You have pretended to be busy to avoid a social situation	C1_58	0.95	Hard	I1_52	39	Marijuana is legal in Singapore	0.0	Yes	LEFT	1013.9657999998236	LEFT	408.28929999997854	LEFT	2214.0633999999864	LEFT	1830.334300000004	13.4	0.3	Probable_Lie	LEFT	RIGHT	1	950.228798830582	38	2021-02-02 14:26:44.352148
97	Computer	S210202	0.5	1	2	1	2	0.6	1283.3333359	1433.3333362	1783.3333369	1933.3333372	Major	Wrong_doings	18	You have engaged in drink-driving	C2_50	1.0	Easy	I1_53	53	The sun rises at night	0.611111111111111	Yes	RIGHT	1164.5763000001352	RIGHT	791.7892000000393	LEFT	1996.749000000136	LEFT	1600.5487999998422	13.999999999999998	0.6	Probable_Truth	LEFT	RIGHT	5	633.0502794691363	39	2021-02-02 14:27:09.535730
77	Self	S210202	0.6666666666666666	2	1	2	1	0.4	1350.0000027	1500.000003	2216.6666711000003	1783.3333369	Major	Good_deeds	51	You have attended all lectures as a student	C2_27	0.0	Hard	I1_37	37	There are 20 bones in the human skull	0.944444444444444	No	RIGHT	519.5733000000473	RIGHT	903.072800000018	RIGHT	1904.194899999993	LEFT	1722.1558999999615	14.4	0.4	Probable_Truth	RIGHT	RIGHT	6	2133.349100000032	40	2021-02-02 14:27:36.143221
28	Self	S210202	0.6666666666666666	2	1	2	1	0.3	1283.3333359	1066.6666688	1933.3333372	2066.6666708	Minor	Wrong_doings	40	You have offered a listening ear to a friend	C1_14	1.0	Easy	I1_47	14	R. Amundsen discovered the South Pole	0.0	Yes	RIGHT	625.4361999999674	RIGHT	932.2849000000132	RIGHT	1159.3270000000757	LEFT	3431.849199999988	14.7	0.3	Probable_Truth	LEFT	LEFT	1	1248.659100000168	41	2021-02-02 14:28:02.463631
48	Self	S210202	0.5	1	2	1	2	0.2	1500.000003	1350.0000027	1500.000003	2066.6666708	Minor	Wrong_doings	53	You have been donating all your excess food to a food bank	C2_45	0.0	Hard	I2_12	21	Dutch is the 6th Europe's most widely spoken language	0.944444444444444	No	LEFT	1277.3666000000503	RIGHT	640.3448000000935	RIGHT	2368.150400000104	RIGHT	1936.4181999999344	14.5	0.2	Probable_Lie	RIGHT	LEFT	5	1468.8281000001098	42	2021-02-02 14:28:29.135807
13	Self	S210202	0.5	2	1	2	1	0.1	1066.6666688	1216.6666691	1933.3333372	2500.000005	Minor	Good_deeds	1	You have lied to your parents	C1_7	0.0	Hard	I1_54	6	The Franco-Prussian War occurred in the 19th century	0.0	No	LEFT	575.7865000000493	RIGHT	1867.49020000002	LEFT	791.7859000001499	LEFT	2305.932799999937	14.4	0.1	Probable_Lie	LEFT	LEFT	5	1831.488000000036	43	2021-02-02 14:28:55.806850
50	Self	S210202	0.5	1	2	1	2	0.4	1433.3333362	1000.000002	1650.0000033	1500.000003	Major	Wrong_doings	2	You have been arrested	C2_34	0.85	Easy	I2_21	53	The first Olympic Games was held in the 5th century B.C	0.833333333333333	No	LEFT	1164.4614000001638	RIGHT	343.612099999973	LEFT	1110.7489999999416	RIGHT	2785.1206999998794	14.0	0.4	Probable_Lie	LEFT	LEFT	5	1254.7167999998692	44	2021-02-02 14:29:20.615621
94	Self	S210202	0.8333333333333334	2	1	2	1	0.3	1066.6666688	1150.0000023	1650.0000033	2350.0000047	Minor	Good_deeds	29	You have returned your trays in food courts	C1_19	0.0	Hard	I2_13	43	There are 6 million animal species on Earth	0.888888888888889	No	LEFT	664.1211999999541	RIGHT	1542.398999999932	RIGHT	1278.7743999999748	LEFT	2732.039400000076	13.7	0.3	Probable_Lie	RIGHT	RIGHT	1	3212.206899999956	45	2021-02-02 14:29:48.839808
123	Computer	S210202	0.6666666666666666	2	1	1	2	0.3	1150.0000023	1500.000003	1500.000003	1650.0000033	Major	Wrong_doings	37	You have held the door open for a stranger	C2_3	0.65	Hard	I2_51	51	There are 6000 spoken languages in the World	0.0555555555555556	No	LEFT	399.640300000101	LEFT	795.8975000001374	RIGHT	1102.1880999999212	RIGHT	3159.7689000000173	13.7	0.3	Probable_Lie	RIGHT	LEFT	6	968.0965193087972	46	2021-02-02 14:30:13.640149
143	Computer	S210202	0.8333333333333334	2	1	2	1	0.6	1350.0000027	1350.0000027	2216.6666711000003	2500.000005	Major	Wrong_doings	14	You have queued to enter the MRT train	C2_26	0.0	Easy	I2_42	23	It is snowing outside now	0.833333333333333	Yes	LEFT	329.130300000088	LEFT	1240.8700999999382	RIGHT	1654.741599999852	LEFT	1126.7725999998677	13.7	0.6	Probable_Lie	RIGHT	RIGHT	1	872.963970318398	47	2021-02-02 14:30:38.846763
10	Self	S210202	0.5	2	1	1	2	0.7	1433.3333362	1150.0000023	2500.000005	2350.0000047	Minor	Good_deeds	42	You have let a homeless man into your house	C1_42	0.05	Hard	I1_2	2	China is a part of Asia	0.666666666666667	No	LEFT	888.314199999968	RIGHT	1125.3143999999793	RIGHT	2091.367900000023	RIGHT	1703.690600000073	13.0	0.7	Probable_Lie	LEFT	LEFT	6	1528.2224000000042	48	2021-02-02 14:31:54.495873
53	Self	S210202	0.5	1	2	2	1	0.7	1000.000002	1283.3333359	2500.000005	1783.3333369	Major	Good_deeds	6	You have confessed to your mistake	C2_2	0.0	Hard	I1_1	46	Summer is hotter than winter	0.0	No	LEFT	1365.249699999822	RIGHT	480.0389000001815	RIGHT	1160.4231999999683	RIGHT	2641.838900000039	12.3	0.7	Probable_Lie	LEFT	LEFT	4	1234.426600000006	49	2021-02-02 14:32:20.511126
112	Computer	S210202	0.6666666666666666	1	2	1	2	0.4	1000.000002	1066.6666688	1650.0000033	2350.0000047	Major	Good_deeds	58	You have said sorry when you were rude	C2_52	0.75	Easy	I1_26	33	There are 30 hours in a day	0.944444444444444	Yes	LEFT	1169.464699999935	LEFT	351.42419999988306	RIGHT	1611.547499999915	LEFT	1041.0554000000047	12.3	0.4	Probable_Lie	RIGHT	RIGHT	2	589.6956580318493	50	2021-02-02 14:32:43.895455
142	Computer	S210202	0.8333333333333334	2	1	2	1	0.7	1500.000003	1150.0000023	2066.6666708	1650.0000033	Major	Wrong_doings	60	You have used a fake name online	C1_17	0.95	Easy	I1_3	52	There is typically 0.6 grams of mercury in glass thermometer	0.0	Yes	LEFT	329.28930000002765	LEFT	2076.188000000002	LEFT	2136.1404000001585	RIGHT	2863.4142999999312	12.3	0.7	Probable_Lie	LEFT	RIGHT	1	740.5007150480274	51	2021-02-02 14:33:10.966595
125	Computer	S210202	0.6666666666666666	2	1	2	1	0.1	1216.6666691	1066.6666688	2500.000005	1783.3333369	Minor	Good_deeds	14	You have eaten something in the MRT train	C1_40	0.0	Easy	I2_35	43	The Earth turns the closest to the sun in May	0.888888888888889	No	RIGHT	529.0592000001197	LEFT	798.1214999999793	LEFT	1998.9603999999872	LEFT	2203.958199999988	12.3	0.1	Probable_Truth	LEFT	LEFT	1	653.4988787284236	52	2021-02-02 14:33:36.279105
106	Computer	S210202	0.5	2	1	1	2	0.7	1433.3333362	1283.3333359	1650.0000033	2350.0000047	Minor	Good_deeds	42	You have let a homeless man into your house	C1_42	0.05	Hard	I1_2	2	China is a part of Asia	0.666666666666667	No	RIGHT	537.0479000000614	LEFT	1363.3623999999145	RIGHT	2067.566199999874	RIGHT	831.216300000051	12.3	0.7	Probable_Truth	RIGHT	LEFT	3	536.4830303525903	53	2021-02-02 14:34:00.895469
55	Self	S210202	0.5	1	2	2	1	0.6	1283.3333359	1066.6666688	2216.6666711000003	1650.0000033	Minor	Good_deeds	28	You have failed to keep promises	C1_53	0.0	Hard	I2_46	1	Christmas Day is in March	0.0	Yes	RIGHT	1088.2023000001482	RIGHT	392.4969999998211	LEFT	1192.9110999999466	LEFT	1392.0015999999578	12.9	0.6	Probable_Truth	LEFT	LEFT	2	1175.5252999998902	54	2021-02-02 14:34:24.927579
138	Computer	S210202	0.8333333333333334	2	1	1	2	0.5	1150.0000023	1066.6666688	1933.3333372	2216.6666711000003	Major	Wrong_doings	29	You have held the elevator doors for others	C2_60	0.9	Hard	I2_38	57	Kangaroos live in Africa	0.0	No	RIGHT	760.7617000001028	LEFT	964.447600000085	RIGHT	1078.7258999998812	LEFT	1159.1315000000577	12.9	0.5	Probable_Truth	LEFT	LEFT	1	626.6298536509471	55	2021-02-02 14:34:48.462893
128	Computer	S210202	0.8333333333333334	1	2	1	2	0.5	1283.3333359	1000.000002	2500.000005	1500.000003	Minor	Wrong_doings	53	You have drunk alcohol when you were underage	C2_19	0.7	Easy	I1_24	41	Singapore is a country	0.0	No	LEFT	857.606799999985	LEFT	392.2165999999834	LEFT	1340.4923999999028	RIGHT	879.8177999999552	12.9	0.5	Probable_Lie	RIGHT	RIGHT	1	963.246147847913	56	2021-02-02 14:35:11.750823
30	Self	S210202	0.6666666666666666	2	1	2	1	0.8	1350.0000027	1216.6666691	2500.000005	2216.6666711000003	Major	Good_deeds	15	You have donated blood every 6 months for many years	C2_40	0.1	Easy	I2_43	47	Most plants emit oxygen in the day	1.0	Yes	RIGHT	440.4115999998339	RIGHT	1012.3504000000594	RIGHT	2591.521300000068	RIGHT	3432.078100000126	13.7	0.8	Probable_Truth	RIGHT	RIGHT	5	1242.3577000001842	57	2021-02-02 14:35:40.326532
4	Self	S210202	0.5	1	2	2	1	0.4	1150.0000023	1350.0000027	1650.0000033	1783.3333369	Minor	Good_deeds	50	You have downloaded pirated movies	C1_23	1.0	Hard	I2_25	50	Fibers in oranges can be used to make fabric	0.0	Yes	LEFT	1127.807300000086	RIGHT	456.9050000000061	LEFT	1159.910100000161	LEFT	3440.7051000000592	13.3	0.4	Probable_Lie	RIGHT	RIGHT	3	1441.211899999871	58	2021-02-02 14:36:06.455896
45	Self	S210202	0.8333333333333334	2	1	2	1	0.1	1500.000003	1433.3333362	2500.000005	1933.3333372	Minor	Good_deeds	35	You have started a movement to support a cause	C1_29	0.45	Hard	I1_57	38	Chickens lay eggs	0.0	Yes	LEFT	336.2463999999364	RIGHT	1726.1748000000807	RIGHT	1686.9338000001335	RIGHT	2283.766199999945	13.2	0.1	Probable_Lie	RIGHT	LEFT	6	1703.1127000000197	59	2021-02-02 14:36:34.135263
133	Computer	S210202	0.8333333333333334	1	2	2	1	0.8	1000.000002	1500.000003	1933.3333372	2500.000005	Minor	Wrong_doings	43	You have rescued others from a catastrophe	C1_22	1.0	Hard	I1_35	33	Singapore is a poor country	0.777777777777778	Yes	LEFT	1021.9700000000104	LEFT	408.7746000000152	RIGHT	1856.4192000001185	LEFT	1174.3739999999434	13.2	0.8	Probable_Lie	RIGHT	LEFT	3	976.2194287825578	60	2021-02-02 14:36:59.086894
62	Self	S210202	0.5	2	1	2	1	0.8	1350.0000027	1500.000003	1933.3333372	1500.000003	Minor	Wrong_doings	57	You have cursed at others	C2_54	0.85	Hard	I1_13	17	February has 30 days	0.944444444444444	Yes	RIGHT	567.3117999999704	RIGHT	1100.3779000000122	LEFT	1055.8618000000024	LEFT	1197.8884000000107	14.000000000000002	0.8	Probable_Truth	RIGHT	RIGHT	4	1951.3165999999276	61	2021-02-02 14:37:23.814720
27	Self	S210202	0.6666666666666666	2	1	1	2	0.6	1066.6666688	1350.0000027	2066.6666708	2500.000005	Major	Wrong_doings	37	You have held the door open for a stranger	C2_3	0.65	Hard	I2_51	51	There are 6000 spoken languages in the World	0.0555555555555556	No	LEFT	695.8654999998544	RIGHT	1402.7544999999009	RIGHT	1431.09400000003	RIGHT	959.8330999999688	13.400000000000002	0.6	Probable_Lie	LEFT	LEFT	5	1661.3675999999489	62	2021-02-02 14:37:49.527002
18	Self	S210202	0.6666666666666666	1	2	1	2	0.3	1150.0000023	1066.6666688	2500.000005	1933.3333372	Minor	Good_deeds	48	You have been restricting your electricity consumption	C2_48	0.45	Hard	I2_39	52	The Seine river is 50 feet above sea level	0.944444444444444	Yes	RIGHT	698.7810999999056	RIGHT	311.94860000005065	RIGHT	1708.8016999998672	RIGHT	1599.4031000000175	13.700000000000005	0.3	Probable_Truth	LEFT	LEFT	1	983.6072000000512	63	2021-02-02 14:38:14.057401
103	Computer	S210202	0.5	1	2	2	1	0.5	1000.000002	1350.0000027	2350.0000047	1650.0000033	Minor	Wrong_doings	10	You have engaged in arson	C1_44	0.05	Hard	I2_23	15	Cernan was the second last man to walk on the Moon	1.0	No	LEFT	1732.2670999997172	LEFT	456.46720000013374	LEFT	1024.3012999999337	LEFT	4352.97619999983	13.700000000000005	0.5	Probable_Lie	LEFT	RIGHT	3	883.1564025883231	64	2021-02-02 14:38:41.422783
99	Computer	S210202	0.5	1	2	1	2	0.1	1350.0000027	1150.0000023	1933.3333372	1500.000003	Major	Good_deeds	43	You have given directions to a lost tourist	C2_10	0.0	Hard	I2_48	25	It takes 112 years to build the Pisa Tower	0.0	No	RIGHT	934.2357000000447	RIGHT	759.5228999998653	RIGHT	1141.975800000182	RIGHT	2661.944299999959	13.800000000000002	0.1	Probable_Truth	LEFT	LEFT	3	869.8037484161825	65	2021-02-02 14:39:06.287103
116	Computer	S210202	0.6666666666666666	1	2	2	1	0.7	1433.3333362	1283.3333359	2350.0000047	1933.3333372	Major	Wrong_doings	13	You have engaged in underage smoking	C1_60	0.05	Hard	I1_8	26	Algeria is Africa's second largest country	0.944444444444444	Yes	LEFT	664.9291999997331	LEFT	374.0007000001242	LEFT	903.5398999999416	LEFT	1233.948600000076	13.800000000000002	0.7	Probable_Lie	RIGHT	LEFT	3	850.0398780054336	66	2021-02-02 14:39:29.886710
57	Self	S210202	0.5	2	1	1	2	0.7	1000.000002	1283.3333359	2066.6666708	2216.6666711000003	Minor	Wrong_doings	33	You have volunteered every week for many years	C1_27	0.65	Easy	I2_8	2	Beef comes from cows	0.0	No	LEFT	976.1936999998396	RIGHT	1654.8659000000043	RIGHT	1774.876899999981	RIGHT	2433.379499999773	13.100000000000003	0.7	Probable_Lie	RIGHT	RIGHT	1	2666.251999999986	67	2021-02-02 14:39:58.526905
34	Self	S210202	0.8333333333333334	1	2	1	2	0.2	1216.6666691	1500.000003	1650.0000033	1783.3333369	Major	Wrong_doings	57	You have made counterfeit money	C2_53	0.05	Easy	I1_45	16	Earth's atmosphere extends up to 10,000km into space	0.833333333333333	Yes	RIGHT	644.3838000000142	RIGHT	566.7010000001937	LEFT	2683.7869999999384	RIGHT	2287.41859999991	13.300000000000002	0.2	Probable_Lie	LEFT	LEFT	5	978.3292000001892	68	2021-02-02 14:40:24.415454
37	Self	S210202	0.8333333333333334	1	2	2	1	0.1	1500.000003	1000.000002	2500.000005	2066.6666708	Minor	Wrong_doings	43	You have rescued others from a catastrophe	C1_22	1.0	Hard	I1_35	33	Singapore is a poor country	0.777777777777778	Yes	RIGHT	685.0838000000294	RIGHT	408.678200000395	RIGHT	1016.3256000000728	LEFT	927.8106000001573	13.400000000000002	0.1	Probable_Truth	RIGHT	RIGHT	2	1112.5369999999748	69	2021-02-02 14:40:48.205903
33	Self	S210202	0.8333333333333334	1	2	1	2	0.6	1350.0000027	1433.3333362	2350.0000047	1933.3333372	Minor	Good_deeds	38	You have helped with household chores	C2_57	1.0	Easy	I2_33	35	Penguin can fly with their wings	0.888888888888889	No	RIGHT	659.2106999996759	RIGHT	711.9305999999597	RIGHT	2172.237000000223	LEFT	1623.395200000232	14.000000000000002	0.6	Probable_Truth	LEFT	LEFT	1	904.4207000001734	70	2021-02-02 14:41:13.919345
60	Self	S210202	0.5	2	1	2	1	0.1	1500.000003	1000.000002	1650.0000033	1933.3333372	Major	Good_deeds	39	You have a non-judgmental attitude towards everyone	C1_39	0.25	Easy	I2_5	42	The hyoid bone is the only jointless bone	0.0	Yes	LEFT	4039.799099999982	LEFT	808.1441999997878	RIGHT	1839.126700000179	RIGHT	4317.314299999907	14.000000000000002	0.1	Probable_Lie	RIGHT	LEFT	6	1889.969000000292	71	2021-02-02 14:41:45.470962
135	Computer	S210202	0.8333333333333334	1	2	2	1	0.2	1350.0000027	1216.6666691	1650.0000033	2066.6666708	Minor	Wrong_doings	19	You have coveted things that belong to others	C1_43	0.55	Hard	I2_3	3	Arabi is the oldest surviving breed of horse	0.0555555555555556	No	LEFT	896.0326999999779	LEFT	440.25280000005296	RIGHT	1135.3072000001705	RIGHT	3150.061000000278	14.000000000000002	0.2	Probable_Lie	RIGHT	LEFT	3	879.237064922535	72	2021-02-02 14:42:10.830425
69	Self	S210202	0.6666666666666666	1	2	2	1	0.3	1066.6666688	1066.6666688	1650.0000033	1650.0000033	Major	Good_deeds	11	You have bribed a police officer	C2_46	0.9	Hard	I1_41	4	Bears have the biggest eyes among mammals	0.833333333333333	No	RIGHT	886.9941999996627	RIGHT	656.2658000002557	LEFT	3279.7379999997247	LEFT	3260.18780000004	14.300000000000002	0.3	Probable_Lie	LEFT	LEFT	4	1196.2896	73	2021-02-02 14:42:38.127166
19	Self	S210202	0.6666666666666666	1	2	1	2	0.6	1216.6666691	1500.000003	1500.000003	2216.6666711000003	Minor	Good_deeds	60	You have volunteered for a disaster-related humanitarian mission	C2_13	0.95	Easy	I2_6	28	Pyramid of Giza is 468 feet tall	0.0	No	LEFT	1213.3765000003225	RIGHT	424.7419000002992	RIGHT	1615.529499999866	RIGHT	1288.8911000000007	13.700000000000005	0.6	Probable_Lie	RIGHT	LEFT	5	2825.701199999912	74	2021-02-02 14:43:04.502456
111	Computer	S210202	0.5	2	1	2	1	0.4	1350.0000027	1066.6666688	1500.000003	1650.0000033	Major	Wrong_doings	20	You have done something against your values	C1_33	0.2	Easy	I1_36	22	Singapore has four seasons	0.0	Yes	RIGHT	552.0904999998493	LEFT	889.9812999998176	LEFT	3048.5482000003685	LEFT	2952.0949000002474	13.700000000000005	0.4	Probable_Truth	LEFT	LEFT	3	860.019551328558	75	2021-02-02 14:43:30.958933
72	Self	S210202	0.6666666666666666	2	1	1	2	0.3	1150.0000023	1000.000002	2350.0000047	2066.6666708	Major	Wrong_doings	27	You have thrown your trash into the bin	C2_31	0.8	Easy	I2_54	19	Fishes can swim in water	0.722222222222222	Yes	RIGHT	495.9564999999202	RIGHT	707.9125999998723	RIGHT	2470.5394000002343	RIGHT	1216.317600000366	14.000000000000004	0.3	Probable_Truth	LEFT	LEFT	2	1192.9235000002336	76	2021-02-02 14:43:56.183214
56	Self	S210202	0.5	2	1	1	2	0.6	1066.6666688	1216.6666691	1783.3333369	1783.3333369	Major	Wrong_doings	54	You have participated in a scamming business	C1_4	0.15	Hard	I1_58	58	Mexico's National Day is September 16	0.777777777777778	No	LEFT	1208.1765999996603	RIGHT	1972.360299999764	LEFT	1619.2418000000544	RIGHT	2264.2024000001584	13.400000000000004	0.6	Probable_Lie	LEFT	RIGHT	2	2417.188200000055	77	2021-02-02 14:44:24.086430
86	Self	S210202	0.8333333333333334	1	2	2	1	0.5	1000.000002	1150.0000023	2350.0000047	2216.6666711000003	Major	Good_deeds	8	You have bought cigarettes for a minor	C2_58	0.0	Hard	I1_11	40	Last day of the year is 30th December	0.777777777777778	No	RIGHT	745.9134999999151	RIGHT	655.8460999999625	LEFT	1535.315399999945	LEFT	3632.533299999977	13.900000000000004	0.5	Probable_Truth	LEFT	LEFT	1	1749.9907999999778	78	2021-02-02 14:44:51.694572
93	Self	S210202	0.8333333333333334	2	1	2	1	0.7	1000.000002	1500.000003	1500.000003	1650.0000033	Minor	Wrong_doings	19	You have started an NGO using your savings	C1_46	1.0	Easy	I1_10	10	Polish is 20th most spoken language in the World	0.611111111111111	Yes	RIGHT	663.3056999999098	RIGHT	933.6091999998644	RIGHT	3735.182100000202	RIGHT	2321.1184000001595	14.600000000000003	0.7	Probable_Truth	LEFT	LEFT	1	764.0189000003375	79	2021-02-02 14:45:18.334538
54	Self	S210202	0.5	1	2	2	1	0.5	1216.6666691	1433.3333362	1933.3333372	2500.000005	Major	Good_deeds	45	You have gossiped about your best friend	C1_45	1.0	Hard	I1_29	29	Carnivore refers to meat-eater	0.0	Yes	RIGHT	1012.2873000000254	RIGHT	360.2516000000833	LEFT	2719.961199999944	RIGHT	2160.185300000194	15.100000000000003	0.5	Probable_Truth	RIGHT	LEFT	2	1765.187099999821	80	2021-02-02 14:45:46.006626
68	Self	S210202	0.6666666666666666	1	2	2	1	0.5	1000.000002	1216.6666691	1500.000003	2500.000005	Major	Wrong_doings	12	You have sold illegal drugs	C1_31	0.65	Hard	I2_60	31	Singapore is in Africa	0.888888888888889	Yes	RIGHT	774.3682000000263	RIGHT	423.5420999998496	LEFT	904.5441000002938	LEFT	1382.0167999997466	15.600000000000003	0.5	Probable_Truth	LEFT	LEFT	1	994.903699999668	81	2021-02-02 14:46:09.270461
58	Self	S210202	0.5	2	1	1	2	0.3	1150.0000023	1066.6666688	2350.0000047	1650.0000033	Minor	Good_deeds	7	You have been convicted in court	C2_6	1.0	Easy	I2_2	5	Saturn's rings are between 30 and 300 feet thick	0.111111111111111	Yes	LEFT	776.151199999731	RIGHT	1284.4853000001422	LEFT	2264.92879999978	Time_Max_Exceeded	5000.393999999687	15.300000000000002	0.3	Probable_Lie	RIGHT	LEFT	5	853.1581999995979	82	2021-02-02 14:46:38.240359
43	Self	S210202	0.8333333333333334	2	1	1	2	0.8	1433.3333362	1066.6666688	1783.3333369	2216.6666711000003	Minor	Good_deeds	36	You have faked an illness	C2_14	0.0	Easy	I2_31	38	Vegetarians can eat vegetable products	0.833333333333333	No	RIGHT	423.4256999998252	RIGHT	930.4661999999552	LEFT	1129.4710000001942	RIGHT	2654.877999999826	16.1	0.8	Probable_Truth	LEFT	LEFT	1	737.7986999999848	83	2021-02-02 14:47:03.190710
44	Self	S210202	0.8333333333333334	2	1	2	1	0.4	1283.3333359	1150.0000023	2350.0000047	2066.6666708	Minor	Good_deeds	35	You have bribed someone to improve a grade	C2_35	0.7	Easy	I1_23	31	Teddy Roosevelt was the youngest US President	1.0	Yes	RIGHT	344.1853999997875	RIGHT	835.1557000000867	LEFT	1312.3544000000038	LEFT	2226.714599999923	16.5	0.4	Probable_Truth	LEFT	LEFT	1	1267.204899999797	84	2021-02-02 14:47:28.606623
102	Computer	S210202	0.5	1	2	2	1	0.7	1066.6666688	1000.000002	2500.000005	2216.6666711000003	Major	Wrong_doings	3	You have signed up as a bone marrow donor	C2_43	0.1	Easy	I2_55	55	Malay is one of the races in Singapore	0.666666666666667	Yes	LEFT	876.457400000163	LEFT	376.9141999996464	RIGHT	1208.3778000001075	RIGHT	1425.440299999991	16.5	0.7	Probable_Lie	LEFT	LEFT	5	833.7528026382597	85	2021-02-02 14:47:52.677804
92	Self	S210202	0.8333333333333334	2	1	2	1	0.4	1500.000003	1433.3333362	2350.0000047	1500.000003	Minor	Good_deeds	50	You have borrowed things and never returned	C2_39	1.0	Easy	I1_25	13	Red is a color	0.722222222222222	No	RIGHT	367.7866999996695	RIGHT	436.2808999999288	LEFT	2640.6089000001884	RIGHT	1061.7302999999083	16.9	0.4	Probable_Lie	LEFT	LEFT	4	935.7945000001564	86	2021-02-02 14:48:17.478447
117	Computer	S210202	0.6666666666666666	1	2	2	1	0.5	1500.000003	1000.000002	1933.3333372	1500.000003	Minor	Wrong_doings	9	You have sorted your trash into recycling bin	C1_9	0.05	Easy	I2_28	6	It takes 500 days to travel from Earth to Mars	0.0	No	RIGHT	912.9195999998956	LEFT	367.4707999998645	RIGHT	1104.7836000002462	LEFT	1686.1555999998927	16.9	0.5	Probable_Truth	RIGHT	RIGHT	6	543.9995580240173	87	2021-02-02 14:48:40.607271
39	Self	S210202	0.8333333333333334	1	2	2	1	0.8	1283.3333359	1350.0000027	2066.6666708	2500.000005	Minor	Wrong_doings	19	You have coveted things that belong to others	C1_43	0.55	Hard	I2_3	3	Arabi is the oldest surviving breed of horse	0.0555555555555556	No	RIGHT	966.0260000000562	RIGHT	384.3439000002036	LEFT	2110.6783000000178	LEFT	2989.7140000002764	17.7	0.8	Probable_Truth	LEFT	LEFT	1	991.5869000001294	88	2021-02-02 14:49:07.821579
90	Self	S210202	0.8333333333333334	2	1	1	2	0.1	1350.0000027	1216.6666691	2066.6666708	2216.6666711000003	Major	Wrong_doings	39	You have stopped using products tested on animals	C2_30	0.5	Hard	I2_58	11	It sometimes snows in Singapore	0.0	No	LEFT	527.3833999999624	RIGHT	1132.4503999999251	RIGHT	2273.3173999999963	LEFT	949.3664999999964	17.599999999999998	0.1	Probable_Lie	LEFT	RIGHT	1	1334.9970999997822	89	2021-02-02 14:49:33.471336
1	Self	S210202	0.5	1	2	1	2	0.1	1433.3333362	1283.3333359	1783.3333369	2066.6666708	Major	Wrong_doings	18	You have engaged in drink-driving	C2_50	1.0	Easy	I1_53	53	The sun rises at night	0.611111111111111	Yes	LEFT	1224.9910000000457	RIGHT	415.1114999999663	LEFT	1375.7975999997143	LEFT	1367.7944999999454	17.499999999999996	0.1	Probable_Lie	LEFT	LEFT	6	2118.97799999997	90	2021-02-02 14:49:59.117897
134	Computer	S210202	0.8333333333333334	1	2	2	1	0.4	1066.6666688	1350.0000027	1783.3333369	1933.3333372	Major	Good_deeds	22	You have sheltered others from disasters	C1_38	0.15	Easy	I1_17	45	Brazil is in South America	0.0555555555555556	Yes	LEFT	818.6564000002363	LEFT	360.7408999996551	RIGHT	2382.0905000002317	RIGHT	1118.130100000144	17.499999999999996	0.4	Probable_Lie	LEFT	RIGHT	1	903.725747855002	91	2021-02-02 14:50:23.397982
96	Computer	S210202	0.5	1	2	1	2	0.8	1500.000003	1066.6666688	2066.6666708	1783.3333369	Minor	Good_deeds	44	You have helped others to pick up their belongings	C1_3	0.95	Easy	I1_9	48	Nanyang Technological University is in Australia	0.0	No	RIGHT	1013.6822999998004	RIGHT	496.9304999999622	Time_Max_Exceeded	5000.203000000056	RIGHT	258.8004999997793	18.3	0.8	Probable_Truth	RIGHT	LEFT	3	892.4584277350416	92	2021-02-02 14:50:50.053839
136	Computer	S210202	0.8333333333333334	2	1	1	2	0.4	1283.3333359	1500.000003	1500.000003	2066.6666708	Major	Good_deeds	26	You have been physically hurt to protect others	C1_36	1.0	Hard	I2_52	42	Slavery was abolished in Cuba in 1886	0.833333333333333	No	RIGHT	807.9999999999927	LEFT	2774.090100000194	LEFT	1374.0693999998257	LEFT	4229.4066999998	18.3	0.4	Probable_Truth	LEFT	LEFT	1	814.9742245719567	93	2021-02-02 14:51:18.982898
3	Self	S210202	0.5	1	2	1	2	0.2	1066.6666688	1500.000003	2066.6666708	1933.3333372	Major	Good_deeds	43	You have given directions to a lost tourist	C2_10	0.0	Hard	I2_48	25	It takes 112 years to build the Pisa Tower	0.0	No	RIGHT	1142.5460999998904	RIGHT	400.0252000000728	RIGHT	3492.589699999826	RIGHT	1351.6906999998355	18.5	0.2	Probable_Truth	LEFT	LEFT	3	1359.83589999978	94	2021-02-02 14:51:45.869751
40	Self	S210202	0.8333333333333334	2	1	1	2	0.5	1216.6666691	1000.000002	1650.0000033	1650.0000033	Major	Good_deeds	26	You have been physically hurt to protect others	C1_36	1.0	Hard	I2_52	42	Slavery was abolished in Cuba in 1886	0.833333333333333	No	RIGHT	828.7147999999434	RIGHT	927.4475000001984	LEFT	1215.545999999904	RIGHT	2776.3144000000466	19.0	0.5	Probable_Truth	RIGHT	RIGHT	4	797.5635999996484	95	2021-02-02 14:52:10.509918
31	Self	S210202	0.6666666666666666	2	1	2	1	0.1	1150.0000023	1433.3333362	2216.6666711000003	1783.3333369	Major	Good_deeds	37	You have taken part in violent demonstration	C2_37	0.0	Easy	I2_4	35	Obama is the USA president now	0.0	No	LEFT	873.5396000001856	RIGHT	1000.1001000000542	LEFT	1455.100399999992	LEFT	1906.396500000028	18.899999999999995	0.1	Probable_Lie	RIGHT	RIGHT	2	1471.915799999806	96	2021-02-02 14:54:19.733713
108	Computer	S210202	0.5	2	1	2	1	0.1	1283.3333359	1000.000002	1933.3333372	2066.6666708	Major	Good_deeds	36	You have cheated on a national exam	C2_1	0.0	Hard	I2_18	36	Milwaukee Art Museum is located in California	0.666666666666667	Yes	RIGHT	496.20390000018233	LEFT	1164.2940000001545	LEFT	959.2411000003268	LEFT	2151.556900000287	18.899999999999995	0.1	Probable_Truth	LEFT	RIGHT	5	687.4002014772559	97	2021-02-02 14:54:44.046202
21	Self	S210202	0.6666666666666666	1	2	2	1	0.1	1433.3333362	1350.0000027	1783.3333369	2500.000005	Minor	Wrong_doings	9	You have sorted your trash into recycling bin	C1_9	0.05	Easy	I2_28	6	It takes 500 days to travel from Earth to Mars	0.0	No	RIGHT	946.8777000001865	RIGHT	912.1369999998024	RIGHT	1175.7997999998224	LEFT	1909.1277000002265	19.0	0.1	Probable_Truth	LEFT	LEFT	1	1871.2092000000664	98	2021-02-02 14:55:10.502161
100	Computer	S210202	0.5	1	2	2	1	0.3	1433.3333362	1500.000003	1500.000003	2500.000005	Minor	Good_deeds	50	You have downloaded pirated movies	C1_23	1.0	Hard	I2_25	50	Fibers in oranges can be used to make fabric	0.0	Yes	RIGHT	1141.408599999977	LEFT	384.46669999984806	LEFT	1215.7916999999543	LEFT	3789.5525000003545	19.0	0.3	Probable_Truth	LEFT	RIGHT	4	975.9472522334738	99	2021-02-02 14:55:37.500798
24	Self	S210202	0.6666666666666666	2	1	1	2	0.7	1433.3333362	1283.3333359	2350.0000047	2350.0000047	Major	Wrong_doings	3	You have adopted a zero-waste lifestyle	C1_37	0.05	Hard	I1_14	28	Today is a weekday	0.777777777777778	No	RIGHT	288.4700000004159	RIGHT	977.8416999997715	RIGHT	2221.266000000014	RIGHT	1407.8635999999278	19.7	0.7	Probable_Truth	LEFT	LEFT	1	1173.1758999999329	100	2021-02-02 14:56:03.557481
52	Self	S210202	0.5	1	2	2	1	0.3	1066.6666688	1150.0000023	1783.3333369	2350.0000047	Minor	Good_deeds	34	You have helped your parents when asked to	C1_6	1.0	Easy	I1_39	48	Today is Sunday	0.888888888888889	Yes	RIGHT	545.4964000000473	RIGHT	336.94299999979194	Time_Max_Exceeded	5000.259199999618	LEFT	1491.8829000002916	20.0	0.3	Probable_Truth	RIGHT	LEFT	1	928.7802000003468	101	2021-02-02 14:56:30.781582
129	Computer	S210202	0.8333333333333334	1	2	1	2	0.3	1500.000003	1433.3333362	2216.6666711000003	2216.6666711000003	Minor	Good_deeds	38	You have helped with household chores	C2_57	1.0	Easy	I2_33	35	Penguin can fly with their wings	0.888888888888889	No	LEFT	1159.4594000002871	LEFT	1840.5773999998016	RIGHT	961.8477000003622	LEFT	975.386399999934	20.0	0.3	Probable_Lie	RIGHT	LEFT	6	525.7581911683644	102	2021-02-02 14:56:56.173624
38	Self	S210202	0.8333333333333334	1	2	2	1	0.7	1066.6666688	1216.6666691	1933.3333372	1650.0000033	Major	Good_deeds	22	You have sheltered others from disasters	C1_38	0.15	Easy	I1_17	45	Brazil is in South America	0.0555555555555556	Yes	RIGHT	700.3587999997762	RIGHT	591.3965999998254	RIGHT	957.6280999999652	RIGHT	1705.8492000001024	20.7	0.7	Probable_Truth	LEFT	LEFT	1	723.8629999997102	103	2021-02-02 14:57:19.293985
46	Self	S210202	0.8333333333333334	2	1	2	1	0.7	1150.0000023	1216.6666691	1933.3333372	2350.0000047	Major	Wrong_doings	60	You have used a fake name online	C1_17	0.95	Easy	I1_3	52	There is typically 0.6 grams of mercury in glass thermometer	0.0	Yes	RIGHT	296.3215999998283	RIGHT	931.5812999998344	LEFT	832.006999999976	RIGHT	2162.214800000129	21.399999999999995	0.7	Probable_Truth	LEFT	LEFT	1	813.8003999997636	104	2021-02-02 14:57:43.558077
130	Computer	S210202	0.8333333333333334	1	2	1	2	0.6	1150.0000023	1150.0000023	1500.000003	1650.0000033	Major	Wrong_doings	57	You have made counterfeit money	C2_53	0.05	Easy	I1_45	16	Earth's atmosphere extends up to 10,000km into space	0.833333333333333	Yes	LEFT	581.8125999999211	LEFT	367.84629999965546	LEFT	919.7142999996686	RIGHT	1287.647399999969	21.399999999999995	0.6	Probable_Lie	RIGHT	LEFT	4	665.0292309830379	105	2021-02-02 14:58:05.397796
75	Self	S210202	0.6666666666666666	2	1	1	2	0.2	1000.000002	1150.0000023	1650.0000033	1650.0000033	Major	Good_deeds	17	You have started a hotline for victims of bully	C1_28	0.55	Hard	I1_60	60	Cheese is an Asian staple	0.764705882352941	No	LEFT	592.2257000001991	RIGHT	1102.8391999998348	RIGHT	2638.867399999981	LEFT	3121.214200000395	21.2	0.2	Probable_Lie	RIGHT	RIGHT	2	1021.9558000003416	106	2021-02-02 14:58:31.902352
23	Self	S210202	0.6666666666666666	1	2	2	1	0.8	1500.000003	1433.3333362	1933.3333372	2350.0000047	Major	Wrong_doings	24	You have pretended to be busy to avoid a social situation	C1_58	0.95	Hard	I1_52	39	Marijuana is legal in Singapore	0.0	Yes	RIGHT	476.8678000000364	RIGHT	1408.2117999996626	LEFT	2679.6842999997352	LEFT	1754.8860000001696	22.0	0.8	Probable_Truth	LEFT	LEFT	1	1150.860400000056	107	2021-02-02 14:58:59.165439
110	Computer	S210202	0.5	2	1	2	1	0.6	1216.6666691	1350.0000027	2500.000005	2500.000005	Minor	Good_deeds	7	You have provided shelter for stray animals	C2_47	0.95	Easy	I2_49	18	Hot chocolate was created by the Mayan culture	0.0	No	LEFT	513.0984999996144	LEFT	1310.4941000001418	RIGHT	1111.472799999774	LEFT	1718.6937000001308	22.0	0.6	Probable_Lie	RIGHT	LEFT	6	739.217959277519	108	2021-02-02 14:59:24.684536
98	Computer	S210202	0.5	1	2	1	2	0.2	1150.0000023	1216.6666691	2216.6666711000003	2350.0000047	Minor	Wrong_doings	34	You have made someone cry	C2_18	0.05	Hard	I1_15	23	The human's inner ear is larger than a pencil eraser	1.0	Yes	RIGHT	1414.214500000071	LEFT	401.2480000001233	LEFT	1147.7421999998114	LEFT	1256.7269000001031	22.0	0.2	Probable_Truth	LEFT	RIGHT	6	593.8693257323474	109	2021-02-02 14:59:49.004606
47	Self	S210202	0.8333333333333334	2	1	2	1	0.6	1000.000002	1350.0000027	1500.000003	1783.3333369	Major	Wrong_doings	14	You have queued to enter the MRT train	C2_26	0.0	Easy	I2_42	23	It is snowing outside now	0.833333333333333	Yes	LEFT	302.7944000000389	RIGHT	869.9286999999458	RIGHT	1279.8020999998698	LEFT	1187.196600000334	21.399999999999995	0.6	Probable_Lie	RIGHT	RIGHT	1	1098.1861000000208	110	2021-02-02 15:00:11.950005
64	Self	S210202	0.6666666666666666	1	2	1	2	0.7	1283.3333359	1500.000003	1783.3333369	2350.0000047	Minor	Wrong_doings	11	You have watched an M18 movie when you were underage	C1_11	0.0	Hard	I2_34	5	Some owl species hunt fish	0.833333333333333	No	LEFT	1003.721300000052	RIGHT	505.3194000001895	LEFT	2090.956800000185	RIGHT	2367.495699999836	20.7	0.7	Probable_Lie	RIGHT	RIGHT	1	847.1908999999869	111	2021-02-02 15:00:38.254391
66	Self	S210202	0.6666666666666666	1	2	1	2	0.1	1350.0000027	1283.3333359	1933.3333372	2066.6666708	Minor	Wrong_doings	23	You have donated a pay cheque to charity	C1_47	0.2	Hard	I2_30	40	Airbags in cars are filled with sodium azide	0.0	Yes	RIGHT	650.785199999973	RIGHT	289.21589999981734	RIGHT	2357.82590000008	RIGHT	2600.554699999975	20.8	0.1	Probable_Truth	RIGHT	RIGHT	3	1773.573099999794	112	2021-02-02 15:01:05.134372
84	Self	S210202	0.8333333333333334	1	2	2	1	0.6	1433.3333362	1000.000002	2216.6666711000003	1933.3333372	Major	Good_deeds	16	You have stopped using plastics completely	C1_48	0.0	Easy	I2_27	46	Feijoa is a type of grape	0.0	Yes	LEFT	1432.2652999999264	RIGHT	1520.7666999999674	RIGHT	1520.1168000003236	LEFT	1931.7532999998548	20.2	0.6	Probable_Lie	RIGHT	RIGHT	1	1391.4378999998007	113	2021-02-02 15:01:32.093423
139	Computer	S210202	0.8333333333333334	2	1	1	2	0.2	1433.3333362	1433.3333362	2500.000005	1783.3333369	Minor	Good_deeds	36	You have faked an illness	C2_14	0.0	Easy	I2_31	38	Vegetarians can eat vegetable products	0.833333333333333	No	RIGHT	1526.8346999996538	LEFT	1811.1627999996929	LEFT	1081.4767000001666	RIGHT	1319.915300000048	20.2	0.2	Probable_Truth	LEFT	LEFT	1	530.4769863342734	114	2021-02-02 15:01:58.084702
85	Self	S210202	0.8333333333333334	1	2	2	1	0.3	1350.0000027	1433.3333362	2066.6666708	2350.0000047	Minor	Good_deeds	49	You have bought cocaine	C1_49	1.0	Hard	I2_45	50	"Statue of Liberty is 151 feet tall"	0.0555555555555556	No	RIGHT	365.5819999999039	RIGHT	271.3002000000415	LEFT	848.8644999997632	RIGHT	1930.578400000286	20.5	0.3	Probable_Truth	LEFT	LEFT	1	854.8358000002736	115	2021-02-02 15:02:22.133877
122	Computer	S210202	0.6666666666666666	2	1	1	2	0.5	1500.000003	1000.000002	2216.6666711000003	1933.3333372	Minor	Good_deeds	25	You have deceived a loved one	C2_25	0.85	Hard	I1_32	32	Lehman Brothers went bankrupt on 20th September	0.888888888888889	Yes	RIGHT	374.6989000001122	LEFT	1180.7332999997016	LEFT	2148.87409999983	LEFT	1566.4453999997932	20.5	0.5	Probable_Truth	LEFT	LEFT	2	587.4394521535783	116	2021-02-02 15:02:47.213173
121	Computer	S210202	0.6666666666666666	2	1	1	2	0.7	1433.3333362	1433.3333362	1783.3333369	2500.000005	Minor	Wrong_doings	40	You have assisted in a crime	C1_15	0.95	Hard	I1_28	4	North Korea is more developed than South Korea	0.0555555555555556	Yes	LEFT	392.21320000024207	LEFT	1546.2046000002374	LEFT	1501.405700000305	LEFT	814.7963000001255	20.5	0.7	Probable_Lie	RIGHT	RIGHT	2	679.2513732879705	117	2021-02-02 15:03:11.869693
81	Self	S210202	0.8333333333333334	1	2	1	2	0.4	1216.6666691	1066.6666688	2500.000005	1500.000003	Major	Wrong_doings	48	You have taken responsibility for your actions	C2_42	0.0	Hard	I1_46	21	Animals are living things	0.888888888888889	Yes	RIGHT	925.155800000084	RIGHT	328.2509000000573	RIGHT	1837.5332000000528	RIGHT	1327.346600000055	20.899999999999995	0.4	Probable_Truth	RIGHT	RIGHT	3	2147.9441999999835	118	2021-02-02 15:03:37.294391
51	Self	S210202	0.5	1	2	1	2	0.8	1150.0000023	1216.6666691	2350.0000047	1933.3333372	Major	Wrong_doings	1	You have used heroin	C1_1	0.55	Easy	I2_53	39	Singapore ranked 8th in World's smallest countries	0.0	No	RIGHT	939.2188000001624	RIGHT	496.9019999998636	LEFT	1323.8030000002254	RIGHT	2792.148499999712	21.7	0.8	Probable_Truth	RIGHT	LEFT	2	1544.375299999956	119	2021-02-02 15:04:03.612833
82	Self	S210202	0.8333333333333334	1	2	1	2	0.1	1066.6666688	1283.3333359	1933.3333372	1783.3333369	Minor	Wrong_doings	58	You have given way to the handicapped	C2_16	0.7	Hard	I2_50	45	South East Asia is currently free from polio	0.0555555555555556	No	RIGHT	1075.1847000001362	RIGHT	496.54469999995854	RIGHT	1427.0344999999909	LEFT	2351.6443000003164	21.8	0.1	Probable_Truth	LEFT	LEFT	1	840.2178999999705	120	2021-02-02 15:04:28.445275
5	Self	S210202	0.5	1	2	2	1	0.7	1283.3333359	1150.0000023	2350.0000047	1650.0000033	Major	Good_deeds	23	You have risked your life to save another person's life	C1_34	0.7	Easy	I1_50	9	Beer is an alcoholic drink	0.0	No	RIGHT	661.717000000408	RIGHT	405.3063999999722	RIGHT	1007.1272000000135	RIGHT	2521.3286999996853	22.5	0.7	Probable_Truth	LEFT	RIGHT	6	1522.4531999997453	121	2021-02-02 15:04:53.588412
132	Computer	S210202	0.8333333333333334	1	2	2	1	0.1	1216.6666691	1283.3333359	2066.6666708	1783.3333369	Major	Good_deeds	20	You have extorted money from anyone	C2_20	0.0	Hard	I2_16	24	Mozambique is the world's poorest country	0.666666666666667	Yes	RIGHT	2249.163899999985	RIGHT	680.9664000002158	LEFT	838.5063999999147	RIGHT	2316.375700000208	22.6	0.1	Probable_Truth	RIGHT	RIGHT	5	979.7549388506474	122	2021-02-02 15:05:19.573611
87	Self	S210202	0.8333333333333334	1	2	2	1	0.2	1500.000003	1500.000003	1650.0000033	2066.6666708	Major	Wrong_doings	42	You have cursed at your loved ones	C1_24	0.95	Easy	I1_21	27	The Moon orbits around the Earth	0.722222222222222	Yes	LEFT	830.1221000001533	RIGHT	737.0175999999447	LEFT	1168.2418000000323	RIGHT	2853.960800000096	22.4	0.2	Probable_Lie	RIGHT	RIGHT	1	947.8397000002587	123	2021-02-02 15:05:45.405562
59	Self	S210202	0.5	2	1	1	2	0.5	1433.3333362	1433.3333362	1500.000003	2500.000005	Minor	Good_deeds	27	You have said thank you when you have received help	C2_7	0.85	Hard	I2_17	27	There are 10 continents in the World	0.944444444444444	No	LEFT	288.017100000161	RIGHT	1045.432399999754	RIGHT	1086.479099999906	LEFT	1365.9629000003406	21.9	0.5	Probable_Lie	LEFT	LEFT	6	1788.2386000001134	124	2021-02-02 15:06:10.420487
6	Self	S210202	0.5	1	2	2	1	0.8	1500.000003	1066.6666688	2216.6666711000003	2500.000005	Major	Wrong_doings	3	You have signed up as a bone marrow donor	C2_43	0.1	Easy	I2_55	55	Malay is one of the races in Singapore	0.666666666666667	Yes	RIGHT	760.6140999996569	RIGHT	1056.405199999972	RIGHT	1086.8403000004037	RIGHT	1387.1203000003334	22.7	0.8	Probable_Truth	RIGHT	RIGHT	4	1108.752099999947	125	2021-02-02 15:06:35.685314
8	Self	S210202	0.5	2	1	1	2	0.6	1283.3333359	1500.000003	2216.6666711000003	2216.6666711000003	Minor	Wrong_doings	33	You have followed instructions	C2_9	0.95	Easy	I2_36	36	Africa is the continent with the least rainfall	0.611111111111111	Yes	LEFT	344.47739999995974	RIGHT	1189.946999999847	RIGHT	2657.9696000003423	RIGHT	4847.018499999649	22.1	0.6	Probable_Lie	LEFT	LEFT	4	1405.9001999999057	126	2021-02-02 15:07:05.925359
7	Self	S210202	0.5	1	2	2	1	0.3	1000.000002	1433.3333362	2500.000005	2216.6666711000003	Minor	Wrong_doings	10	You have engaged in arson	C1_44	0.05	Hard	I2_23	15	Cernan was the second last man to walk on the Moon	1.0	No	RIGHT	388.32860000002256	RIGHT	368.0104999998548	LEFT	1224.1259000002174	LEFT	2262.48889999988	22.4	0.3	Probable_Truth	RIGHT	LEFT	3	1519.1406999997523	127	2021-02-02 15:07:31.412916
127	Computer	S210202	0.6666666666666666	2	1	2	1	0.2	1350.0000027	1350.0000027	2350.0000047	2350.0000047	Major	Good_deeds	37	You have taken part in violent demonstration	C2_37	0.0	Easy	I2_4	35	Obama is the USA president now	0.0	No	RIGHT	480.4011999999602	LEFT	893.4072000001834	LEFT	1279.1913000000932	LEFT	1138.376999999764	22.4	0.2	Probable_Truth	LEFT	LEFT	2	756.941884182158	128	2021-02-02 15:07:55.924493
95	Self	S210202	0.8333333333333334	2	1	2	1	0.5	1216.6666691	1000.000002	2216.6666711000003	1783.3333369	Major	Good_deeds	46	You have engaged in money laundering	C2_59	0.0	Hard	I2_26	44	The hardest bone in human body is the jawbone	0.888888888888889	Yes	RIGHT	705.3221000001031	RIGHT	672.0666000001074	LEFT	1094.0043000000514	RIGHT	3090.7532999999603	22.9	0.5	Probable_Truth	LEFT	LEFT	1	735.8726000002207	129	2021-02-02 15:08:21.012975
17	Self	S210202	0.6666666666666666	1	2	1	2	0.4	1000.000002	1000.000002	1650.0000033	1650.0000033	Minor	Wrong_doings	52	You have been sued	C1_5	0.85	Hard	I2_24	24	December is the last month of the year	0.0	No	LEFT	790.4622000000927	RIGHT	336.5158999999949	LEFT	1329.2528000001766	RIGHT	1775.724000000082	22.5	0.4	Probable_Lie	RIGHT	RIGHT	2	2565.93040000007	130	2021-02-02 15:08:45.684528
107	Computer	S210202	0.5	2	1	1	2	0.5	1066.6666688	1433.3333362	2350.0000047	1933.3333372	Major	Wrong_doings	47	You have illegally stayed in a country	C1_20	0.9	Easy	I2_22	54	The current century is 21st	0.888888888888889	No	LEFT	191.029300000082	LEFT	1279.8542000000452	LEFT	1227.7648999997837	RIGHT	864.406699999563	22.5	0.5	Probable_Lie	RIGHT	LEFT	5	825.0962723504349	131	2021-02-02 15:09:09.436713
104	Computer	S210202	0.5	2	1	1	2	0.2	1150.0000023	1216.6666691	2216.6666711000003	2216.6666711000003	Minor	Wrong_doings	33	You have followed instructions	C2_9	0.95	Easy	I2_36	36	Africa is the continent with the least rainfall	0.611111111111111	Yes	RIGHT	1608.8134999999966	LEFT	994.5303999998032	RIGHT	1072.2381000000496	RIGHT	999.62239999968	22.5	0.2	Probable_Truth	LEFT	RIGHT	4	709.3487260995665	132	2021-02-02 15:09:34.204796
118	Computer	S210202	0.6666666666666666	1	2	2	1	0.2	1350.0000027	1350.0000027	2216.6666711000003	1783.3333369	Major	Good_deeds	5	You have violated a traffic law	C2_24	0.0	Easy	I1_33	8	The Earth is round	0.722222222222222	No	RIGHT	1070.8669999999074	LEFT	342.62340000032054	LEFT	695.6626000001052	RIGHT	2523.0539999997745	22.5	0.2	Probable_Truth	LEFT	RIGHT	5	662.9432452728233	133	2021-02-02 15:09:58.781206
15	Self	S210202	0.5	2	1	2	1	0.4	1500.000003	1000.000002	1650.0000033	1783.3333369	Major	Wrong_doings	20	You have done something against your values	C1_33	0.2	Easy	I1_36	22	Singapore has four seasons	0.0	Yes	RIGHT	245.9459000001516	RIGHT	807.5588000001517	LEFT	1336.6415999998935	LEFT	1420.4343000001245	22.9	0.4	Probable_Truth	LEFT	RIGHT	4	873.0310999999347	134	2021-02-02 15:10:21.981053
65	Self	S210202	0.6666666666666666	1	2	1	2	0.8	1150.0000023	1000.000002	2216.6666711000003	1783.3333369	Minor	Wrong_doings	47	You have sign up to sponsor a needy child	C2_11	0.85	Easy	I1_4	60	There are 7 days in a week	0.666666666666667	No	RIGHT	848.9718999999241	RIGHT	192.30870000001232	RIGHT	1969.9118000003184	RIGHT	959.7654999997758	23.7	0.8	Probable_Truth	RIGHT	RIGHT	4	704.2615999998816	135	2021-02-02 15:10:45.380720
35	Self	S210202	0.8333333333333334	1	2	1	2	0.3	1150.0000023	1150.0000023	1783.3333369	1500.000003	Major	Good_deeds	13	You have helped a friend in need	C1_13	0.05	Hard	I2_41	17	The Amazon forest covers an area of 1 billion acres	0.0555555555555556	No	RIGHT	545.1646000001347	RIGHT	199.8649000001933	RIGHT	2964.0982000000804	RIGHT	3744.113899999775	24.0	0.3	Probable_Lie	LEFT	LEFT	5	492.7809000000707	136	2021-02-02 15:11:11.484730
79	Self	S210202	0.6666666666666666	2	1	2	1	0.7	1500.000003	1216.6666691	1500.000003	2216.6666711000003	Major	Wrong_doings	31	You have taken part in burglary	C1_59	0.2	Easy	I2_59	54	The Eiffel Tower is in Paris	0.0	Yes	LEFT	385.32679999980246	RIGHT	1661.224499999662	LEFT	968.141899999864	RIGHT	1073.1174000002284	23.3	0.7	Probable_Lie	LEFT	LEFT	5	938.8997000000928	137	2021-02-02 15:11:35.524704
115	Computer	S210202	0.6666666666666666	1	2	1	2	0.6	1150.0000023	1150.0000023	1783.3333369	1650.0000033	Minor	Good_deeds	60	You have volunteered for a disaster-related humanitarian mission	C2_13	0.95	Easy	I2_6	28	Pyramid of Giza is 468 feet tall	0.0	No	LEFT	3559.166200000164	LEFT	992.4206000000596	RIGHT	2184.803500000271	RIGHT	903.1381999998302	23.3	0.6	Probable_Truth	RIGHT	RIGHT	6	619.2463153442443	138	2021-02-02 15:12:02.084608
131	Computer	S210202	0.8333333333333334	1	2	1	2	0.7	1433.3333362	1066.6666688	2350.0000047	2350.0000047	Major	Good_deeds	13	You have helped a friend in need	C1_13	0.05	Hard	I2_41	17	The Amazon forest covers an area of 1 billion acres	0.0555555555555556	No	LEFT	626.289899999847	LEFT	280.67719999990004	RIGHT	1834.9037999996651	LEFT	1614.15339999985	23.3	0.7	Probable_Lie	RIGHT	RIGHT	1	711.9500530572798	139	2021-02-02 15:12:26.932927
88	Self	S210202	0.8333333333333334	2	1	1	2	0.2	1150.0000023	1283.3333359	1783.3333369	2500.000005	Major	Wrong_doings	16	You have kidnapped someone	C2_29	0.0	Easy	I1_44	25	A dog has four legs	0.0	Yes	RIGHT	416.895299999851	RIGHT	1074.700699999994	LEFT	974.2730999996638	RIGHT	927.4099999993268	23.5	0.2	Probable_Truth	LEFT	LEFT	1	756.3731999998708	140	2021-02-02 15:12:50.373142
141	Computer	S210202	0.8333333333333334	2	1	2	1	0.8	1066.6666688	1000.000002	1650.0000033	2350.0000047	Minor	Good_deeds	35	You have started a movement to support a cause	C1_29	0.45	Hard	I1_57	38	Chickens lay eggs	0.0	Yes	LEFT	328.11860000038	LEFT	1043.6080999998012	RIGHT	959.5939999999246	RIGHT	1044.8536000003514	23.5	0.8	Probable_Lie	RIGHT	RIGHT	1	521.944581078937	141	2021-02-02 15:13:12.899931
126	Computer	S210202	0.6666666666666666	2	1	2	1	0.4	1066.6666688	1283.3333359	1933.3333372	1500.000003	Major	Good_deeds	15	You have donated blood every 6 months for many years	C2_40	0.1	Easy	I2_43	47	Most plants emit oxygen in the day	1.0	Yes	RIGHT	424.9611000004734	LEFT	930.1523000003726	RIGHT	1279.3275000003632	RIGHT	1583.3149000000049	23.5	0.4	Probable_Truth	LEFT	LEFT	2	776.1796440981052	142	2021-02-02 15:13:36.253339
67	Self	S210202	0.6666666666666666	1	2	1	2	0.2	1433.3333362	1350.0000027	2500.000005	1933.3333372	Minor	Good_deeds	46	You have cheated on a test	C2_56	0.05	Easy	I1_5	34	Astatine is the rarest element in the Earth's crust	0.0	No	LEFT	892.7163000007567	RIGHT	355.278900000485	LEFT	2195.496099999218	RIGHT	2575.872999999774	23.3	0.2	Probable_Lie	RIGHT	RIGHT	1	958.6787999996886	143	2021-02-02 15:14:03.021181
