"Participant"	"Task"	"Stimulus_Side"	"Response"	"RT"	"ITI"	"Previous_Response"	"Previous_RT"	"Stop_Signal"	"Stop_Signal_RT"	"Conflict"	"Cue_Response"	"Cue_Response_RT"	"Trial_Onset"	"Trial_End"	"Trial_Order"	"Duration"
"S201126"	"Conflict_Resolution"	"LEFT"	"Time_Max_Exceeded"	1500.06759999997	1166.666669	""	n/a	n/a	n/a	"True"	n/a	n/a	"2020-11-26 13:54:32.970014"	"2020-11-26 13:54:34.470254"	1	8.78525935
"S201126"	"Conflict_Resolution"	"RIGHT"	"RIGHT"	951.115399999935	1150.0000023	""	n/a	n/a	n/a	"False"	n/a	n/a	"2020-11-26 13:54:35.640473"	"2020-11-26 13:54:36.799198"	2	8.78525935
"S201126"	"Conflict_Resolution"	"RIGHT"	"RIGHT"	595.747900000106	1033.3333354	""	n/a	n/a	n/a	"False"	n/a	n/a	"2020-11-26 13:54:37.852054"	"2020-11-26 13:54:38.655351"	3	8.78525935
"S201126"	"Conflict_Resolution"	"LEFT"	"Time_Max_Exceeded"	1500.07389999996	1450.0000029	""	n/a	n/a	n/a	"True"	n/a	n/a	"2020-11-26 13:54:40.123970"	"2020-11-26 13:54:41.624687"	4	8.78525935
"S201126"	"Conflict_Resolution"	"RIGHT"	"RIGHT"	888.064900000018	1466.6666696	""	n/a	n/a	n/a	"False"	n/a	n/a	"2020-11-26 13:54:43.111049"	"2020-11-26 13:54:44.207019"	5	8.78525935
"S201126"	"Conflict_Resolution"	"RIGHT"	"LEFT"	700.595600000042	1416.6666695	""	n/a	n/a	n/a	"True"	n/a	n/a	"2020-11-26 13:54:45.642338"	"2020-11-26 13:54:46.551683"	6	8.78525935
"S201126"	"Conflict_Resolution"	"RIGHT"	"Time_Max_Exceeded"	1500.06559999997	600.0000012	""	n/a	n/a	n/a	"True"	n/a	n/a	"2020-11-26 13:54:47.169021"	"2020-11-26 13:54:48.669859"	7	8.78525935
"S201126"	"Conflict_Resolution"	"LEFT"	"Time_Max_Exceeded"	1500.06260000009	516.6666677	""	n/a	n/a	n/a	"True"	n/a	n/a	"2020-11-26 13:54:49.205910"	"2020-11-26 13:54:50.705917"	8	8.78525935
"S201126"	"Conflict_Resolution"	"RIGHT"	"Time_Max_Exceeded"	1500.07399999981	1150.0000023	""	n/a	n/a	n/a	"True"	n/a	n/a	"2020-11-26 13:54:51.876289"	"2020-11-26 13:54:53.376382"	9	8.78525935
"S201126"	"Conflict_Resolution"	"LEFT"	"LEFT"	1303.09119999993	766.6666682	""	n/a	n/a	n/a	"False"	n/a	n/a	"2020-11-26 13:54:54.160500"	"2020-11-26 13:54:55.671932"	10	8.78525935
"S201126"	"Conflict_Resolution"	"LEFT"	"LEFT"	519.712099999879	716.6666681	""	n/a	n/a	n/a	"False"	n/a	n/a	"2020-11-26 13:54:56.407700"	"2020-11-26 13:54:57.134957"	11	8.78525935
"S201126"	"Conflict_Resolution"	"LEFT"	"LEFT"	457.202999999936	1300.0000026	""	n/a	n/a	n/a	"False"	n/a	n/a	"2020-11-26 13:54:58.454579"	"2020-11-26 13:54:59.119873"	12	8.78525935
"S201126"	"Conflict_Resolution"	"LEFT"	"LEFT"	465.366399999994	666.666668	""	n/a	n/a	n/a	"False"	n/a	n/a	"2020-11-26 13:54:59.805376"	"2020-11-26 13:55:00.479645"	13	8.78525935
"S201126"	"Conflict_Resolution"	"LEFT"	"LEFT"	550.597900000184	1350.0000027	""	n/a	n/a	n/a	"False"	n/a	n/a	"2020-11-26 13:55:01.848726"	"2020-11-26 13:55:02.607358"	14	8.78525935
"S201126"	"Conflict_Resolution"	"RIGHT"	"RIGHT"	1247.97650000005	1133.3333356	""	n/a	n/a	n/a	"True"	n/a	n/a	"2020-11-26 13:55:03.758962"	"2020-11-26 13:55:05.215350"	15	8.78525935
"S201126"	"Conflict_Resolution"	"RIGHT"	"RIGHT"	715.08700000004	883.3333351	""	n/a	n/a	n/a	"False"	n/a	n/a	"2020-11-26 13:55:06.115911"	"2020-11-26 13:55:07.039112"	16	8.78525935
"S201126"	"Conflict_Resolution"	"LEFT"	"LEFT"	1407.72740000011	716.6666681	""	n/a	n/a	n/a	"True"	n/a	n/a	"2020-11-26 13:55:07.775645"	"2020-11-26 13:55:09.391471"	17	8.78525935
"S201126"	"Conflict_Resolution"	"LEFT"	"Time_Max_Exceeded"	1500.0907000001	1400.0000028	""	n/a	n/a	n/a	"True"	n/a	n/a	"2020-11-26 13:55:10.811586"	"2020-11-26 13:55:12.311175"	18	8.78525935
"S201126"	"Conflict_Resolution"	"RIGHT"	"RIGHT"	1266.71069999998	833.333335	""	n/a	n/a	n/a	"False"	n/a	n/a	"2020-11-26 13:55:13.164542"	"2020-11-26 13:55:14.639487"	19	8.78525935
"S201126"	"Conflict_Resolution"	"LEFT"	"LEFT"	397.713600000088	1016.6666687	""	n/a	n/a	n/a	"False"	n/a	n/a	"2020-11-26 13:55:15.673593"	"2020-11-26 13:55:16.279315"	20	8.78525935
"S201126"	"Conflict_Resolution"	"LEFT"	"RIGHT"	1392.76039999982	850.0000017	""	n/a	n/a	n/a	"True"	n/a	n/a	"2020-11-26 13:55:17.150091"	"2020-11-26 13:55:18.751259"	21	8.78525935
"S201126"	"Conflict_Resolution"	"LEFT"	"LEFT"	606.871200000114	566.6666678	""	n/a	n/a	n/a	"False"	n/a	n/a	"2020-11-26 13:55:19.336554"	"2020-11-26 13:55:20.151476"	22	8.78525935
"S201126"	"Conflict_Resolution"	"RIGHT"	"LEFT"	1268.68160000004	633.3333346	""	n/a	n/a	n/a	"True"	n/a	n/a	"2020-11-26 13:55:20.802764"	"2020-11-26 13:55:22.279224"	23	8.78525935
"S201126"	"Conflict_Resolution"	"LEFT"	"RIGHT"	766.808500000025	566.6666678	""	n/a	n/a	n/a	"True"	n/a	n/a	"2020-11-26 13:55:22.864379"	"2020-11-26 13:55:23.839100"	24	8.78525935
"S201126"	"Conflict_Resolution"	"LEFT"	"Time_Max_Exceeded"	1500.08339999999	1000.000002	""	n/a	n/a	n/a	"True"	n/a	n/a	"2020-11-26 13:55:24.858280"	"2020-11-26 13:55:26.359411"	25	8.78525935
"S201126"	"Conflict_Resolution"	"RIGHT"	"Time_Max_Exceeded"	1500.08830000002	850.0000017	""	n/a	n/a	n/a	"True"	n/a	n/a	"2020-11-26 13:55:27.228404"	"2020-11-26 13:55:28.727865"	26	8.78525935
"S201126"	"Conflict_Resolution"	"LEFT"	"Time_Max_Exceeded"	1500.06090000011	666.666668	""	n/a	n/a	n/a	"True"	n/a	n/a	"2020-11-26 13:55:29.414155"	"2020-11-26 13:55:30.914663"	27	8.78525935
"S201126"	"Conflict_Resolution"	"LEFT"	"LEFT"	1418.27190000004	1350.0000027	"RIGHT"	-1127.368	n/a	n/a	"True"	n/a	n/a	"2020-11-26 13:55:32.285366"	"2020-11-26 13:55:33.911471"	28	8.78525935
"S201126"	"Conflict_Resolution"	"LEFT"	"LEFT"	1294.9259999998	733.3333348	""	n/a	n/a	n/a	"True"	n/a	n/a	"2020-11-26 13:55:34.664417"	"2020-11-26 13:55:36.167157"	29	8.78525935
"S201126"	"Conflict_Resolution"	"RIGHT"	"RIGHT"	541.757400000051	1216.6666691	""	n/a	n/a	n/a	"False"	n/a	n/a	"2020-11-26 13:55:37.401875"	"2020-11-26 13:55:38.151862"	30	8.78525935
"S201126"	"Conflict_Resolution"	"RIGHT"	"LEFT"	1189.16400000012	1383.3333361	""	n/a	n/a	n/a	"True"	n/a	n/a	"2020-11-26 13:55:39.554700"	"2020-11-26 13:55:40.951083"	31	8.78525935
"S201126"	"Conflict_Resolution"	"LEFT"	"LEFT"	746.753500000068	1066.6666688	""	n/a	n/a	n/a	"False"	n/a	n/a	"2020-11-26 13:55:42.036791"	"2020-11-26 13:55:42.991118"	32	8.78525935
"S201126"	"Conflict_Resolution"	"LEFT"	"Time_Max_Exceeded"	1500.05650000003	1466.6666696	""	n/a	n/a	n/a	"True"	n/a	n/a	"2020-11-26 13:55:44.476410"	"2020-11-26 13:55:45.977300"	33	8.78525935
"S201126"	"Conflict_Resolution"	"LEFT"	"LEFT"	835.773300000028	616.6666679	""	n/a	n/a	n/a	"False"	n/a	n/a	"2020-11-26 13:55:46.612175"	"2020-11-26 13:55:47.655265"	34	8.78525935
"S201126"	"Conflict_Resolution"	"RIGHT"	"Time_Max_Exceeded"	1500.13569999987	783.3333349	""	n/a	n/a	n/a	"True"	n/a	n/a	"2020-11-26 13:55:48.457125"	"2020-11-26 13:55:49.958222"	35	8.78525935
"S201126"	"Conflict_Resolution"	"LEFT"	"RIGHT"	712.232200000017	1150.0000023	""	n/a	n/a	n/a	"True"	n/a	n/a	"2020-11-26 13:55:51.127185"	"2020-11-26 13:55:52.047501"	36	8.78525935
"S201126"	"Conflict_Resolution"	"LEFT"	"Time_Max_Exceeded"	1500.0536	1100.0000022	""	n/a	n/a	n/a	"True"	n/a	n/a	"2020-11-26 13:55:53.167034"	"2020-11-26 13:55:54.667154"	37	8.78525935
"S201126"	"Conflict_Resolution"	"RIGHT"	"LEFT"	962.47870000002	983.3333353	""	n/a	n/a	n/a	"True"	n/a	n/a	"2020-11-26 13:55:55.669193"	"2020-11-26 13:55:56.838304"	38	8.78525935
"S201126"	"Conflict_Resolution"	"RIGHT"	"RIGHT"	1485.83409999992	600.0000012	""	n/a	n/a	n/a	"False"	n/a	n/a	"2020-11-26 13:55:57.457466"	"2020-11-26 13:55:59.150654"	39	8.78525935
"S201126"	"Conflict_Resolution"	"RIGHT"	"RIGHT"	1174.36459999999	983.3333353	""	n/a	n/a	n/a	"False"	n/a	n/a	"2020-11-26 13:56:00.153206"	"2020-11-26 13:56:01.535070"	40	8.78525935
"S201126"	"Conflict_Resolution"	"RIGHT"	"Time_Max_Exceeded"	1500.09	800.0000016	""	n/a	n/a	n/a	"True"	n/a	n/a	"2020-11-26 13:56:02.355368"	"2020-11-26 13:56:03.855189"	41	8.78525935
"S201126"	"Conflict_Resolution"	"LEFT"	"LEFT"	986.340899999959	850.0000017	""	n/a	n/a	n/a	"False"	n/a	n/a	"2020-11-26 13:56:04.725256"	"2020-11-26 13:56:05.919456"	42	8.78525935
"S201126"	"Conflict_Resolution"	"RIGHT"	"RIGHT"	562.417200000027	1266.6666692	""	n/a	n/a	n/a	"False"	n/a	n/a	"2020-11-26 13:56:07.205461"	"2020-11-26 13:56:07.975608"	43	8.78525935
"S201126"	"Conflict_Resolution"	"LEFT"	"RIGHT"	1408.45829999989	1300.0000026	""	n/a	n/a	n/a	"True"	n/a	n/a	"2020-11-26 13:56:09.294593"	"2020-11-26 13:56:10.911494"	44	8.78525935
"S201126"	"Conflict_Resolution"	"RIGHT"	"Time_Max_Exceeded"	1500.06799999983	550.0000011	""	n/a	n/a	n/a	"True"	n/a	n/a	"2020-11-26 13:56:11.481103"	"2020-11-26 13:56:12.981329"	45	8.78525935
"S201126"	"Conflict_Resolution"	"RIGHT"	"RIGHT"	537.829000000102	1366.6666694	""	n/a	n/a	n/a	"False"	n/a	n/a	"2020-11-26 13:56:14.365911"	"2020-11-26 13:56:15.111595"	46	8.78525935
"S201126"	"Conflict_Resolution"	"RIGHT"	"RIGHT"	554.63769999983	1083.3333355	""	n/a	n/a	n/a	"False"	n/a	n/a	"2020-11-26 13:56:16.212446"	"2020-11-26 13:56:16.976412"	47	8.78525935
"S201126"	"Conflict_Resolution"	"RIGHT"	"Time_Max_Exceeded"	1500.11900000004	1100.0000022	""	n/a	n/a	n/a	"True"	n/a	n/a	"2020-11-26 13:56:18.094479"	"2020-11-26 13:56:19.595146"	48	8.78525935
"S201126"	"Conflict_Resolution"	"LEFT"	"Time_Max_Exceeded"	1500.05840000017	1200.0000024	""	n/a	n/a	n/a	"True"	n/a	n/a	"2020-11-26 13:56:20.815117"	"2020-11-26 13:56:22.315354"	49	8.78525935
"S201126"	"Conflict_Resolution"	"LEFT"	"Time_Max_Exceeded"	1500.10500000008	583.3333345	""	n/a	n/a	n/a	"True"	n/a	n/a	"2020-11-26 13:56:22.919588"	"2020-11-26 13:56:24.419845"	50	8.78525935
"S201126"	"Conflict_Resolution"	"LEFT"	"RIGHT"	832.705199999964	816.6666683	"LEFT"	-562.082	n/a	n/a	"False"	n/a	n/a	"2020-11-26 13:56:25.254257"	"2020-11-26 13:56:26.294162"	51	8.78525935
"S201126"	"Conflict_Resolution"	"LEFT"	"Time_Max_Exceeded"	1500.10120000002	900.0000018	""	n/a	n/a	n/a	"True"	n/a	n/a	"2020-11-26 13:56:27.215666"	"2020-11-26 13:56:28.716385"	52	8.78525935
"S201126"	"Conflict_Resolution"	"RIGHT"	"RIGHT"	605.513699999847	500.000001	""	n/a	n/a	n/a	"False"	n/a	n/a	"2020-11-26 13:56:29.234016"	"2020-11-26 13:56:30.047872"	53	8.78525935
"S201126"	"Conflict_Resolution"	"LEFT"	"LEFT"	475.779499999817	1050.0000021	""	n/a	n/a	n/a	"False"	n/a	n/a	"2020-11-26 13:56:31.115869"	"2020-11-26 13:56:31.799571"	54	8.78525935
"S201126"	"Conflict_Resolution"	"LEFT"	"Time_Max_Exceeded"	1500.12309999988	1050.0000021	""	n/a	n/a	n/a	"True"	n/a	n/a	"2020-11-26 13:56:32.877941"	"2020-11-26 13:56:34.378222"	55	8.78525935
"S201126"	"Conflict_Resolution"	"RIGHT"	"RIGHT"	577.472499999885	850.0000017	"LEFT"	-593.111	n/a	n/a	"False"	n/a	n/a	"2020-11-26 13:56:35.245557"	"2020-11-26 13:56:36.031334"	56	8.78525935
"S201126"	"Conflict_Resolution"	"RIGHT"	"Time_Max_Exceeded"	1500.06610000014	1033.3333354	""	n/a	n/a	n/a	"True"	n/a	n/a	"2020-11-26 13:56:37.085782"	"2020-11-26 13:56:38.585554"	57	8.78525935
"S201126"	"Conflict_Resolution"	"LEFT"	"LEFT"	1020.65730000004	516.6666677	""	n/a	n/a	n/a	"False"	n/a	n/a	"2020-11-26 13:56:39.123117"	"2020-11-26 13:56:40.351061"	58	8.78525935
"S201126"	"Conflict_Resolution"	"RIGHT"	"RIGHT"	671.317300000055	550.0000011	""	n/a	n/a	n/a	"False"	n/a	n/a	"2020-11-26 13:56:40.919725"	"2020-11-26 13:56:41.799450"	59	8.78525935
"S201126"	"Conflict_Resolution"	"RIGHT"	"RIGHT"	396.966099999872	800.0000016	""	n/a	n/a	n/a	"False"	n/a	n/a	"2020-11-26 13:56:42.618466"	"2020-11-26 13:56:43.223689"	60	8.78525935
"S201126"	"Conflict_Resolution"	"LEFT"	"Time_Max_Exceeded"	1500.06430000008	1000.000002	""	n/a	n/a	n/a	"False"	n/a	n/a	"2020-11-26 13:56:44.242719"	"2020-11-26 13:56:45.743565"	61	8.78525935
"S201126"	"Conflict_Resolution"	"LEFT"	"LEFT"	566.483299999845	950.0000019	""	n/a	n/a	n/a	"True"	n/a	n/a	"2020-11-26 13:56:46.712523"	"2020-11-26 13:56:47.487609"	62	8.78525935
"S201126"	"Conflict_Resolution"	"RIGHT"	"RIGHT"	595.248999999967	1233.3333358	""	n/a	n/a	n/a	"False"	n/a	n/a	"2020-11-26 13:56:48.740290"	"2020-11-26 13:56:49.543576"	63	8.78525935
"S201126"	"Conflict_Resolution"	"RIGHT"	"RIGHT"	640.821699999833	900.0000018	""	n/a	n/a	n/a	"False"	n/a	n/a	"2020-11-26 13:56:50.462272"	"2020-11-26 13:56:51.310171"	64	8.78525935
"S201126"	"Conflict_Resolution"	"RIGHT"	"RIGHT"	510.968400000138	1416.6666695	""	n/a	n/a	n/a	"False"	n/a	n/a	"2020-11-26 13:56:52.744573"	"2020-11-26 13:56:53.462958"	65	8.78525935
"S201126"	"Conflict_Resolution"	"LEFT"	"LEFT"	478.578299999981	766.6666682	""	n/a	n/a	n/a	"True"	n/a	n/a	"2020-11-26 13:56:54.248540"	"2020-11-26 13:56:54.935560"	66	8.78525935
"S201126"	"Conflict_Resolution"	"LEFT"	"LEFT"	606.509000000187	950.0000019	""	n/a	n/a	n/a	"False"	n/a	n/a	"2020-11-26 13:56:55.905076"	"2020-11-26 13:56:56.719533"	67	8.78525935
"S201126"	"Conflict_Resolution"	"RIGHT"	"RIGHT"	839.434700000083	533.3333344	""	n/a	n/a	n/a	"True"	n/a	n/a	"2020-11-26 13:56:57.272266"	"2020-11-26 13:56:58.319263"	68	8.78525935
"S201126"	"Conflict_Resolution"	"RIGHT"	"RIGHT"	536.972999999989	533.3333344	""	n/a	n/a	n/a	"False"	n/a	n/a	"2020-11-26 13:56:58.870295"	"2020-11-26 13:56:59.615572"	69	8.78525935
"S201126"	"Conflict_Resolution"	"LEFT"	"LEFT"	570.648200000051	1250.0000025	""	n/a	n/a	n/a	"True"	n/a	n/a	"2020-11-26 13:57:00.884484"	"2020-11-26 13:57:01.664256"	70	8.78525935
"S201126"	"Conflict_Resolution"	"RIGHT"	"RIGHT"	641.745599999922	833.333335	""	n/a	n/a	n/a	"True"	n/a	n/a	"2020-11-26 13:57:02.518051"	"2020-11-26 13:57:03.367382"	71	8.78525935
"S201126"	"Conflict_Resolution"	"LEFT"	"LEFT"	404.202799999894	1416.6666695	""	n/a	n/a	n/a	"False"	n/a	n/a	"2020-11-26 13:57:04.803186"	"2020-11-26 13:57:05.415631"	72	8.78525935
"S201126"	"Conflict_Resolution"	"RIGHT"	"RIGHT"	864.256000000069	1316.6666693	""	n/a	n/a	n/a	"True"	n/a	n/a	"2020-11-26 13:57:06.751274"	"2020-11-26 13:57:07.822994"	73	8.78525935
"S201126"	"Conflict_Resolution"	"LEFT"	"LEFT"	487.170900000137	1150.0000023	""	n/a	n/a	n/a	"False"	n/a	n/a	"2020-11-26 13:57:08.992566"	"2020-11-26 13:57:09.687533"	74	8.78525935
"S201126"	"Conflict_Resolution"	"LEFT"	"LEFT"	1305.65339999998	1066.6666688	""	n/a	n/a	n/a	"True"	n/a	n/a	"2020-11-26 13:57:10.773301"	"2020-11-26 13:57:12.287065"	75	8.78525935
"S201126"	"Conflict_Resolution"	"LEFT"	"LEFT"	683.009600000105	1250.0000025	""	n/a	n/a	n/a	"False"	n/a	n/a	"2020-11-26 13:57:13.556699"	"2020-11-26 13:57:14.447307"	76	8.78525935
"S201126"	"Conflict_Resolution"	"RIGHT"	"RIGHT"	520.24439999991	1100.0000022	""	n/a	n/a	n/a	"False"	n/a	n/a	"2020-11-26 13:57:15.566779"	"2020-11-26 13:57:16.295143"	77	8.78525935
"S201126"	"Conflict_Resolution"	"RIGHT"	"RIGHT"	490.742299999965	1433.3333362	""	n/a	n/a	n/a	"False"	n/a	n/a	"2020-11-26 13:57:17.748572"	"2020-11-26 13:57:18.448146"	78	8.78525935
"S201126"	"Conflict_Resolution"	"LEFT"	"LEFT"	425.328400000126	866.6666684	""	n/a	n/a	n/a	"False"	n/a	n/a	"2020-11-26 13:57:19.333347"	"2020-11-26 13:57:19.966959"	79	8.78525935
"S201126"	"Conflict_Resolution"	"LEFT"	"LEFT"	655.18400000019	1366.6666694	""	n/a	n/a	n/a	"True"	n/a	n/a	"2020-11-26 13:57:21.351634"	"2020-11-26 13:57:22.215384"	80	8.78525935
"S201126"	"Conflict_Resolution"	"LEFT"	"LEFT"	500.91220000013	1400.0000028	""	n/a	n/a	n/a	"False"	n/a	n/a	"2020-11-26 13:57:23.634773"	"2020-11-26 13:57:24.343770"	81	8.78525935
"S201126"	"Conflict_Resolution"	"RIGHT"	"LEFT"	1427.33240000007	650.0000013	""	n/a	n/a	n/a	"True"	n/a	n/a	"2020-11-26 13:57:25.011599"	"2020-11-26 13:57:26.647130"	82	8.78525935
"S201126"	"Conflict_Resolution"	"RIGHT"	"RIGHT"	637.784499999952	1183.3333357	""	n/a	n/a	n/a	"False"	n/a	n/a	"2020-11-26 13:57:27.850017"	"2020-11-26 13:57:28.695056"	83	8.78525935
"S201126"	"Conflict_Resolution"	"LEFT"	"LEFT"	1332.63669999997	1216.6666691	""	n/a	n/a	n/a	"True"	n/a	n/a	"2020-11-26 13:57:29.930252"	"2020-11-26 13:57:31.471631"	84	8.78525935
"S201126"	"Conflict_Resolution"	"RIGHT"	"Time_Max_Exceeded"	1500.09330000012	1283.3333359	""	n/a	n/a	n/a	"True"	n/a	n/a	"2020-11-26 13:57:32.772337"	"2020-11-26 13:57:34.272613"	85	8.78525935
"S201126"	"Conflict_Resolution"	"LEFT"	"LEFT"	815.704699999969	866.6666684	"LEFT"	-745.041	n/a	n/a	"True"	n/a	n/a	"2020-11-26 13:57:35.159774"	"2020-11-26 13:57:36.183065"	86	8.78525935
"S201126"	"Conflict_Resolution"	"LEFT"	"LEFT"	509.425100000044	633.3333346	""	n/a	n/a	n/a	"True"	n/a	n/a	"2020-11-26 13:57:36.834045"	"2020-11-26 13:57:37.551384"	87	8.78525935
"S201126"	"Conflict_Resolution"	"RIGHT"	"RIGHT"	577.280900000005	1283.3333359	""	n/a	n/a	n/a	"False"	n/a	n/a	"2020-11-26 13:57:38.854518"	"2020-11-26 13:57:39.639481"	88	8.78525935
"S201126"	"Conflict_Resolution"	"RIGHT"	"LEFT"	722.780199999988	1433.3333362	""	n/a	n/a	n/a	"True"	n/a	n/a	"2020-11-26 13:57:41.092884"	"2020-11-26 13:57:42.024739"	89	8.78525935
"S201126"	"Conflict_Resolution"	"LEFT"	"LEFT"	639.337000000069	900.0000018	""	n/a	n/a	n/a	"False"	n/a	n/a	"2020-11-26 13:57:42.943933"	"2020-11-26 13:57:43.791877"	90	8.78525935
"S201126"	"Conflict_Resolution"	"RIGHT"	"RIGHT"	977.990600000112	700.0000014	""	n/a	n/a	n/a	"True"	n/a	n/a	"2020-11-26 13:57:44.509655"	"2020-11-26 13:57:45.695892"	91	8.78525935
"S201126"	"Conflict_Resolution"	"LEFT"	"Time_Max_Exceeded"	1500.06399999984	1416.6666695	""	n/a	n/a	n/a	"True"	n/a	n/a	"2020-11-26 13:57:47.131262"	"2020-11-26 13:57:48.632055"	92	8.78525935
"S201126"	"Conflict_Resolution"	"LEFT"	"LEFT"	947.410800000171	1016.6666687	""	n/a	n/a	n/a	"True"	n/a	n/a	"2020-11-26 13:57:49.667837"	"2020-11-26 13:57:50.822467"	93	8.78525935
"S201126"	"Conflict_Resolution"	"RIGHT"	"RIGHT"	582.330400000046	783.3333349	""	n/a	n/a	n/a	"False"	n/a	n/a	"2020-11-26 13:57:51.624830"	"2020-11-26 13:57:52.414285"	94	8.78525935
"S201126"	"Conflict_Resolution"	"RIGHT"	"RIGHT"	1412.15560000001	1050.0000021	""	n/a	n/a	n/a	"True"	n/a	n/a	"2020-11-26 13:57:53.483428"	"2020-11-26 13:57:55.103815"	95	8.78525935
"S201126"	"Conflict_Resolution"	"RIGHT"	"RIGHT"	923.452099999849	1216.6666691	""	n/a	n/a	n/a	"True"	n/a	n/a	"2020-11-26 13:57:56.340367"	"2020-11-26 13:57:57.471626"	96	8.78525935
"S201126"	"Conflict_Resolution"	"RIGHT"	"RIGHT"	638.631999999916	750.0000015	""	n/a	n/a	n/a	"False"	n/a	n/a	"2020-11-26 13:57:58.240763"	"2020-11-26 13:57:59.087800"	97	8.78525935
"S201126"	"Conflict_Resolution"	"LEFT"	"Time_Max_Exceeded"	1500.07679999999	533.3333344	""	n/a	n/a	n/a	"True"	n/a	n/a	"2020-11-26 13:57:59.640931"	"2020-11-26 13:58:01.141215"	98	8.78525935
"S201126"	"Conflict_Resolution"	"RIGHT"	"RIGHT"	618.235000000141	1333.333336	"LEFT"	-1160.142	n/a	n/a	"False"	n/a	n/a	"2020-11-26 13:58:02.492817"	"2020-11-26 13:58:03.319895"	99	8.78525935
"S201126"	"Conflict_Resolution"	"RIGHT"	"RIGHT"	1209.31920000021	883.3333351	""	n/a	n/a	n/a	"True"	n/a	n/a	"2020-11-26 13:58:04.222169"	"2020-11-26 13:58:05.639286"	100	8.78525935
"S201126"	"Conflict_Resolution"	"LEFT"	"LEFT"	1405.4114999999	616.6666679	""	n/a	n/a	n/a	"True"	n/a	n/a	"2020-11-26 13:58:06.273746"	"2020-11-26 13:58:07.887484"	101	8.78525935
"S201126"	"Conflict_Resolution"	"RIGHT"	"RIGHT"	929.652799999985	1083.3333355	""	n/a	n/a	n/a	"True"	n/a	n/a	"2020-11-26 13:58:08.989775"	"2020-11-26 13:58:10.127785"	102	8.78525935
"S201126"	"Conflict_Resolution"	"RIGHT"	"RIGHT"	594.381399999975	650.0000013	""	n/a	n/a	n/a	"False"	n/a	n/a	"2020-11-26 13:58:10.797404"	"2020-11-26 13:58:11.600346"	103	8.78525935
"S201126"	"Conflict_Resolution"	"RIGHT"	"RIGHT"	482.167000000118	1050.0000021	""	n/a	n/a	n/a	"False"	n/a	n/a	"2020-11-26 13:58:12.669557"	"2020-11-26 13:58:13.359174"	104	8.78525935
"S201126"	"Conflict_Resolution"	"LEFT"	"LEFT"	704.618199999913	1500.000003	""	n/a	n/a	n/a	"False"	n/a	n/a	"2020-11-26 13:58:14.878605"	"2020-11-26 13:58:15.791288"	105	8.78525935
"S201126"	"Conflict_Resolution"	"RIGHT"	"RIGHT"	457.496100000071	683.3333347	""	n/a	n/a	n/a	"False"	n/a	n/a	"2020-11-26 13:58:16.493423"	"2020-11-26 13:58:17.159249"	106	8.78525935
"S201126"	"Conflict_Resolution"	"LEFT"	"LEFT"	651.783600000044	1450.0000029	""	n/a	n/a	n/a	"False"	n/a	n/a	"2020-11-26 13:58:18.627401"	"2020-11-26 13:58:19.487261"	107	8.78525935
"S201126"	"Conflict_Resolution"	"RIGHT"	"RIGHT"	905.685100000028	683.3333347	""	n/a	n/a	n/a	"True"	n/a	n/a	"2020-11-26 13:58:20.190075"	"2020-11-26 13:58:21.303826"	108	8.78525935
"S201126"	"Conflict_Resolution"	"RIGHT"	"Time_Max_Exceeded"	1500.08610000009	1366.6666694	""	n/a	n/a	n/a	"True"	n/a	n/a	"2020-11-26 13:58:22.688677"	"2020-11-26 13:58:24.188549"	109	8.78525935
"S201126"	"Conflict_Resolution"	"RIGHT"	"RIGHT"	519.660200000089	583.3333345	"RIGHT"	-450.393	n/a	n/a	"False"	n/a	n/a	"2020-11-26 13:58:24.791512"	"2020-11-26 13:58:25.519655"	110	8.78525935
"S201126"	"Conflict_Resolution"	"LEFT"	"LEFT"	1078.01659999996	816.6666683	""	n/a	n/a	n/a	"True"	n/a	n/a	"2020-11-26 13:58:26.353407"	"2020-11-26 13:58:27.639239"	111	8.78525935
"S201126"	"Conflict_Resolution"	"RIGHT"	"RIGHT"	567.732399999841	1133.3333356	""	n/a	n/a	n/a	"False"	n/a	n/a	"2020-11-26 13:58:28.792027"	"2020-11-26 13:58:29.567434"	112	8.78525935
"S201126"	"Conflict_Resolution"	"RIGHT"	"RIGHT"	492.447000000084	633.3333346	""	n/a	n/a	n/a	"False"	n/a	n/a	"2020-11-26 13:58:30.219703"	"2020-11-26 13:58:30.919355"	113	8.78525935
"S201126"	"Conflict_Resolution"	"LEFT"	"LEFT"	497.671300000093	1466.6666696	""	n/a	n/a	n/a	"False"	n/a	n/a	"2020-11-26 13:58:32.405934"	"2020-11-26 13:58:33.111133"	114	8.78525935
"S201126"	"Conflict_Resolution"	"RIGHT"	"RIGHT"	543.234799999937	1383.3333361	""	n/a	n/a	n/a	"False"	n/a	n/a	"2020-11-26 13:58:34.512374"	"2020-11-26 13:58:35.262432"	115	8.78525935
"S201126"	"Conflict_Resolution"	"RIGHT"	"RIGHT"	1227.73490000009	1266.6666692	""	n/a	n/a	n/a	"True"	n/a	n/a	"2020-11-26 13:58:36.548575"	"2020-11-26 13:58:37.984207"	116	8.78525935
"S201126"	"Conflict_Resolution"	"RIGHT"	"RIGHT"	837.986699999874	750.0000015	""	n/a	n/a	n/a	"True"	n/a	n/a	"2020-11-26 13:58:38.753174"	"2020-11-26 13:58:39.799387"	117	8.78525935
"S201126"	"Conflict_Resolution"	"LEFT"	"LEFT"	527.066999999988	533.3333344	""	n/a	n/a	n/a	"False"	n/a	n/a	"2020-11-26 13:58:40.352020"	"2020-11-26 13:58:41.087410"	118	8.78525935
"S201126"	"Conflict_Resolution"	"RIGHT"	"RIGHT"	1284.28140000005	1000.000002	""	n/a	n/a	n/a	"True"	n/a	n/a	"2020-11-26 13:58:42.106769"	"2020-11-26 13:58:43.599189"	119	8.78525935
"S201126"	"Conflict_Resolution"	"LEFT"	"LEFT"	692.824299999984	633.3333346	""	n/a	n/a	n/a	"False"	n/a	n/a	"2020-11-26 13:58:44.250163"	"2020-11-26 13:58:45.150342"	120	8.78525935
"S201126"	"Conflict_Resolution"	"RIGHT"	"RIGHT"	1160.57449999994	1333.333336	""	n/a	n/a	n/a	"True"	n/a	n/a	"2020-11-26 13:58:46.503074"	"2020-11-26 13:58:47.871553"	121	8.78525935
"S201126"	"Conflict_Resolution"	"LEFT"	"LEFT"	960.535299999947	1266.6666692	""	n/a	n/a	n/a	"True"	n/a	n/a	"2020-11-26 13:58:49.158905"	"2020-11-26 13:58:50.327001"	122	8.78525935
"S201126"	"Conflict_Resolution"	"RIGHT"	"Time_Max_Exceeded"	1500.07800000003	1466.6666696	""	n/a	n/a	n/a	"True"	n/a	n/a	"2020-11-26 13:58:51.811616"	"2020-11-26 13:58:53.311298"	123	8.78525935
"S201126"	"Conflict_Resolution"	"LEFT"	"LEFT"	1096.63649999993	683.3333347	"RIGHT"	-544.781	n/a	n/a	"True"	n/a	n/a	"2020-11-26 13:58:54.014678"	"2020-11-26 13:58:55.319543"	124	8.78525935
"S201126"	"Conflict_Resolution"	"LEFT"	"LEFT"	752.923099999862	916.6666685	""	n/a	n/a	n/a	"True"	n/a	n/a	"2020-11-26 13:58:56.254126"	"2020-11-26 13:58:57.215330"	125	8.78525935
"S201126"	"Conflict_Resolution"	"RIGHT"	"RIGHT"	1142.83530000012	950.0000019	""	n/a	n/a	n/a	"True"	n/a	n/a	"2020-11-26 13:58:58.184154"	"2020-11-26 13:58:59.534988"	126	8.78525935
"S201126"	"Conflict_Resolution"	"LEFT"	"LEFT"	815.46359999993	966.6666686	""	n/a	n/a	n/a	"True"	n/a	n/a	"2020-11-26 13:59:00.519367"	"2020-11-26 13:59:01.543213"	127	8.78525935
"S201126"	"Conflict_Resolution"	"LEFT"	"LEFT"	696.312300000045	1316.6666693	""	n/a	n/a	n/a	"False"	n/a	n/a	"2020-11-26 13:59:02.879294"	"2020-11-26 13:59:03.783859"	128	8.78525935
"S201126"	"Conflict_Resolution"	"LEFT"	"LEFT"	383.150599999908	916.6666685	""	n/a	n/a	n/a	"False"	n/a	n/a	"2020-11-26 13:59:04.720114"	"2020-11-26 13:59:05.311532"	129	8.78525935
"S201126"	"Conflict_Resolution"	"RIGHT"	"RIGHT"	441.454600000043	1316.6666693	""	n/a	n/a	n/a	"False"	n/a	n/a	"2020-11-26 13:59:06.645855"	"2020-11-26 13:59:07.294135"	130	8.78525935
"S201126"	"Conflict_Resolution"	"RIGHT"	"Time_Max_Exceeded"	1500.08209999987	1483.3333363	""	n/a	n/a	n/a	"True"	n/a	n/a	"2020-11-26 13:59:08.795400"	"2020-11-26 13:59:10.295580"	131	8.78525935
"S201126"	"Conflict_Resolution"	"RIGHT"	"RIGHT"	554.063300000053	1483.3333363	"LEFT"	-1280.045	n/a	n/a	"False"	n/a	n/a	"2020-11-26 13:59:11.798027"	"2020-11-26 13:59:12.559765"	132	8.78525935
"S201126"	"Conflict_Resolution"	"LEFT"	"LEFT"	530.078000000003	1266.6666692	""	n/a	n/a	n/a	"False"	n/a	n/a	"2020-11-26 13:59:13.845596"	"2020-11-26 13:59:14.582321"	133	8.78525935
"S201126"	"Conflict_Resolution"	"RIGHT"	"LEFT"	1308.2886000002	1233.3333358	""	n/a	n/a	n/a	"True"	n/a	n/a	"2020-11-26 13:59:15.834701"	"2020-11-26 13:59:17.352255"	134	8.78525935
"S201126"	"Conflict_Resolution"	"RIGHT"	"Time_Max_Exceeded"	1500.0591999999	933.3333352	""	n/a	n/a	n/a	"True"	n/a	n/a	"2020-11-26 13:59:18.305031"	"2020-11-26 13:59:19.804517"	135	8.78525935
"S201126"	"Conflict_Resolution"	"LEFT"	"LEFT"	482.451599999877	1116.6666689	""	n/a	n/a	n/a	"False"	n/a	n/a	"2020-11-26 13:59:20.940521"	"2020-11-26 13:59:21.631148"	136	8.78525935
"S201126"	"Conflict_Resolution"	"RIGHT"	"RIGHT"	1269.7028	1183.3333357	""	n/a	n/a	n/a	"True"	n/a	n/a	"2020-11-26 13:59:22.833193"	"2020-11-26 13:59:24.311503"	137	8.78525935
"S201126"	"Conflict_Resolution"	"RIGHT"	"RIGHT"	551.041400000031	950.0000019	""	n/a	n/a	n/a	"False"	n/a	n/a	"2020-11-26 13:59:25.280640"	"2020-11-26 13:59:26.039561"	138	8.78525935
"S201126"	"Conflict_Resolution"	"LEFT"	"LEFT"	460.491700000148	1216.6666691	""	n/a	n/a	n/a	"False"	n/a	n/a	"2020-11-26 13:59:27.275201"	"2020-11-26 13:59:27.943716"	139	8.78525935
"S201126"	"Conflict_Resolution"	"LEFT"	"LEFT"	461.680999999999	1166.666669	""	n/a	n/a	n/a	"False"	n/a	n/a	"2020-11-26 13:59:29.129284"	"2020-11-26 13:59:29.799134"	140	8.78525935
"S201126"	"Conflict_Resolution"	"RIGHT"	"RIGHT"	516.440999999986	1000.000002	""	n/a	n/a	n/a	"False"	n/a	n/a	"2020-11-26 13:59:30.819130"	"2020-11-26 13:59:31.543383"	141	8.78525935
"S201126"	"Conflict_Resolution"	"LEFT"	"RIGHT"	1312.53970000012	1116.6666689	""	n/a	n/a	n/a	"True"	n/a	n/a	"2020-11-26 13:59:32.679112"	"2020-11-26 13:59:34.198286"	142	8.78525935
"S201126"	"Conflict_Resolution"	"LEFT"	"LEFT"	601.689800000031	733.3333348	""	n/a	n/a	n/a	"False"	n/a	n/a	"2020-11-26 13:59:34.949429"	"2020-11-26 13:59:35.759491"	143	8.78525935
"S201126"	"Conflict_Resolution"	"LEFT"	"Time_Max_Exceeded"	1500.05710000005	1500.000003	""	n/a	n/a	n/a	"True"	n/a	n/a	"2020-11-26 13:59:37.279323"	"2020-11-26 13:59:38.779251"	144	8.78525935
"S201126"	"Conflict_Resolution"	"LEFT"	"LEFT"	609.154600000011	1366.6666694	"RIGHT"	-1328.545	n/a	n/a	"False"	n/a	n/a	"2020-11-26 13:59:40.166651"	"2020-11-26 13:59:40.983388"	145	8.78525935
"S201126"	"Conflict_Resolution"	"LEFT"	"LEFT"	412.549000000126	783.3333349	""	n/a	n/a	n/a	"False"	n/a	n/a	"2020-11-26 13:59:41.786609"	"2020-11-26 13:59:42.407746"	146	8.78525935
"S201126"	"Conflict_Resolution"	"LEFT"	"LEFT"	357.862300000079	1200.0000024	""	n/a	n/a	n/a	"False"	n/a	n/a	"2020-11-26 13:59:43.625641"	"2020-11-26 13:59:44.191486"	147	8.78525935
"S201126"	"Conflict_Resolution"	"RIGHT"	"RIGHT"	536.973900000021	933.3333352	""	n/a	n/a	n/a	"False"	n/a	n/a	"2020-11-26 13:59:45.142803"	"2020-11-26 13:59:45.887242"	148	8.78525935
"S201126"	"Conflict_Resolution"	"RIGHT"	"RIGHT"	1106.26189999994	900.0000018	""	n/a	n/a	n/a	"True"	n/a	n/a	"2020-11-26 13:59:46.804845"	"2020-11-26 13:59:48.119170"	149	8.78525935
"S201126"	"Conflict_Resolution"	"RIGHT"	"RIGHT"	906.11489999992	733.3333348	""	n/a	n/a	n/a	"True"	n/a	n/a	"2020-11-26 13:59:48.869950"	"2020-11-26 13:59:49.983431"	150	8.78525935
"S201126"	"Conflict_Resolution"	"LEFT"	"LEFT"	1278.6602000001	783.3333349	""	n/a	n/a	n/a	"True"	n/a	n/a	"2020-11-26 13:59:50.783976"	"2020-11-26 13:59:52.270991"	151	8.78525935
"S201126"	"Conflict_Resolution"	"RIGHT"	"RIGHT"	577.25500000015	700.0000014	""	n/a	n/a	n/a	"False"	n/a	n/a	"2020-11-26 13:59:52.990506"	"2020-11-26 13:59:53.775252"	152	8.78525935
"S201126"	"Conflict_Resolution"	"LEFT"	"LEFT"	423.929099999896	1100.0000022	""	n/a	n/a	n/a	"False"	n/a	n/a	"2020-11-26 13:59:54.895712"	"2020-11-26 13:59:55.527059"	153	8.78525935
"S201126"	"Conflict_Resolution"	"LEFT"	"LEFT"	482.960399999911	683.3333347	""	n/a	n/a	n/a	"False"	n/a	n/a	"2020-11-26 13:59:56.228195"	"2020-11-26 13:59:56.919461"	154	8.78525935
"S201126"	"Conflict_Resolution"	"RIGHT"	"RIGHT"	901.667699999962	583.3333345	""	n/a	n/a	n/a	"True"	n/a	n/a	"2020-11-26 13:59:57.521842"	"2020-11-26 13:59:58.631128"	155	8.78525935
"S201126"	"Conflict_Resolution"	"RIGHT"	"RIGHT"	1033.13010000011	500.000001	""	n/a	n/a	n/a	"True"	n/a	n/a	"2020-11-26 13:59:59.149699"	"2020-11-26 14:00:00.390990"	156	8.78525935
"S201126"	"Conflict_Resolution"	"LEFT"	"LEFT"	631.680899999992	583.3333345	""	n/a	n/a	n/a	"False"	n/a	n/a	"2020-11-26 14:00:00.991480"	"2020-11-26 14:00:01.831876"	157	8.78525935
"S201126"	"Conflict_Resolution"	"LEFT"	"Time_Max_Exceeded"	1500.05959999999	1316.6666693	""	n/a	n/a	n/a	"True"	n/a	n/a	"2020-11-26 14:00:03.168059"	"2020-11-26 14:00:04.668809"	158	8.78525935
"S201126"	"Conflict_Resolution"	"RIGHT"	"RIGHT"	555.789999999888	733.3333348	"RIGHT"	-599.592	n/a	n/a	"False"	n/a	n/a	"2020-11-26 14:00:05.418997"	"2020-11-26 14:00:06.183530"	159	8.78525935
"S201126"	"Conflict_Resolution"	"LEFT"	"LEFT"	391.284900000073	966.6666686	""	n/a	n/a	n/a	"False"	n/a	n/a	"2020-11-26 14:00:07.167641"	"2020-11-26 14:00:07.767731"	160	8.78525935
"S201126"	"Processing_Speed"	"LEFT"	"DOWN"	379.218199999997	783.3333349	""	n/a	n/a	n/a	n/a	n/a	n/a	"2020-11-26 13:39:49.348409"	"2020-11-26 13:39:49.954650"	1	2.67464783333333
"S201126"	"Processing_Speed"	"RIGHT"	"DOWN"	269.209799999999	983.3333353	""	n/a	n/a	n/a	n/a	n/a	n/a	"2020-11-26 13:39:50.946000"	"2020-11-26 13:39:51.423516"	2	2.67464783333333
"S201126"	"Processing_Speed"	"LEFT"	"DOWN"	344.977699999987	1366.6666694	""	n/a	n/a	n/a	n/a	n/a	n/a	"2020-11-26 13:39:52.798158"	"2020-11-26 13:39:53.351186"	3	2.67464783333333
"S201126"	"Processing_Speed"	"LEFT"	"DOWN"	291.371099999992	1116.6666689	""	n/a	n/a	n/a	n/a	n/a	n/a	"2020-11-26 13:39:54.476510"	"2020-11-26 13:39:54.975023"	4	2.67464783333333
"S201126"	"Processing_Speed"	"RIGHT"	"DOWN"	313.459800000004	1150.0000023	""	n/a	n/a	n/a	n/a	n/a	n/a	"2020-11-26 13:39:56.133939"	"2020-11-26 13:39:56.655544"	5	2.67464783333333
"S201126"	"Processing_Speed"	"RIGHT"	"DOWN"	297.884799999991	950.0000019	""	n/a	n/a	n/a	n/a	n/a	n/a	"2020-11-26 13:39:57.613569"	"2020-11-26 13:39:58.119332"	6	2.67464783333333
"S201126"	"Processing_Speed"	"LEFT"	"DOWN"	243.452300000001	916.6666685	""	n/a	n/a	n/a	n/a	n/a	n/a	"2020-11-26 13:39:59.044448"	"2020-11-26 13:39:59.494992"	7	2.67464783333333
"S201126"	"Processing_Speed"	"LEFT"	"DOWN"	250.413199999997	1333.333336	""	n/a	n/a	n/a	n/a	n/a	n/a	"2020-11-26 13:40:00.836826"	"2020-11-26 13:40:01.295631"	8	2.67464783333333
"S201126"	"Processing_Speed"	"RIGHT"	"DOWN"	258.805300000006	1116.6666689	""	n/a	n/a	n/a	n/a	n/a	n/a	"2020-11-26 13:40:02.420216"	"2020-11-26 13:40:02.887224"	9	2.67464783333333
"S201126"	"Processing_Speed"	"LEFT"	"DOWN"	317.227099999997	666.666668	""	n/a	n/a	n/a	n/a	n/a	n/a	"2020-11-26 13:40:03.562498"	"2020-11-26 13:40:04.087560"	10	2.67464783333333
"S201126"	"Processing_Speed"	"LEFT"	"DOWN"	247.922399999993	1183.3333357	""	n/a	n/a	n/a	n/a	n/a	n/a	"2020-11-26 13:40:05.279706"	"2020-11-26 13:40:05.735824"	11	2.67464783333333
"S201126"	"Processing_Speed"	"RIGHT"	"DOWN"	293.006099999985	633.3333346	""	n/a	n/a	n/a	n/a	n/a	n/a	"2020-11-26 13:40:06.378111"	"2020-11-26 13:40:06.879374"	12	2.67464783333333
"S201126"	"Processing_Speed"	"LEFT"	"DOWN"	260.768100000007	883.3333351	""	n/a	n/a	n/a	n/a	n/a	n/a	"2020-11-26 13:40:07.770952"	"2020-11-26 13:40:08.239237"	13	2.67464783333333
"S201126"	"Processing_Speed"	"RIGHT"	"DOWN"	247.921200000008	600.0000012	""	n/a	n/a	n/a	n/a	n/a	n/a	"2020-11-26 13:40:08.847181"	"2020-11-26 13:40:09.303546"	14	2.67464783333333
"S201126"	"Processing_Speed"	"LEFT"	"DOWN"	231.503400000008	1400.0000028	""	n/a	n/a	n/a	n/a	n/a	n/a	"2020-11-26 13:40:10.712453"	"2020-11-26 13:40:11.151628"	15	2.67464783333333
"S201126"	"Processing_Speed"	"LEFT"	"DOWN"	359.470200000004	600.0000012	""	n/a	n/a	n/a	n/a	n/a	n/a	"2020-11-26 13:40:11.759606"	"2020-11-26 13:40:12.327563"	16	2.67464783333333
"S201126"	"Processing_Speed"	"RIGHT"	"DOWN"	339.878400000003	500.000001	""	n/a	n/a	n/a	n/a	n/a	n/a	"2020-11-26 13:40:12.836022"	"2020-11-26 13:40:13.383745"	17	2.67464783333333
"S201126"	"Processing_Speed"	"RIGHT"	"DOWN"	224.204600000007	783.3333349	""	n/a	n/a	n/a	n/a	n/a	n/a	"2020-11-26 13:40:14.175163"	"2020-11-26 13:40:14.607329"	18	2.67464783333333
"S201126"	"Processing_Speed"	"RIGHT"	"DOWN"	236.372799999998	883.3333351	""	n/a	n/a	n/a	n/a	n/a	n/a	"2020-11-26 13:40:15.499020"	"2020-11-26 13:40:15.943398"	19	2.67464783333333
"S201126"	"Processing_Speed"	"LEFT"	"DOWN"	413.582699999978	850.0000017	""	n/a	n/a	n/a	n/a	n/a	n/a	"2020-11-26 13:40:16.801645"	"2020-11-26 13:40:17.422412"	20	2.67464783333333
"S201126"	"Processing_Speed"	"LEFT"	"DOWN"	453.519999999997	1083.3333355	""	n/a	n/a	n/a	n/a	n/a	n/a	"2020-11-26 13:40:18.514407"	"2020-11-26 13:40:19.176249"	21	2.67464783333333
"S201126"	"Processing_Speed"	"LEFT"	"DOWN"	341.648499999991	633.3333346	""	n/a	n/a	n/a	n/a	n/a	n/a	"2020-11-26 13:40:19.817712"	"2020-11-26 13:40:20.367434"	22	2.67464783333333
"S201126"	"Processing_Speed"	"RIGHT"	"DOWN"	244.872699999974	1466.6666696	""	n/a	n/a	n/a	n/a	n/a	n/a	"2020-11-26 13:40:21.842794"	"2020-11-26 13:40:22.295286"	23	2.67464783333333
"S201126"	"Processing_Speed"	"RIGHT"	"DOWN"	251.346400000017	916.6666685	""	n/a	n/a	n/a	n/a	n/a	n/a	"2020-11-26 13:40:23.220666"	"2020-11-26 13:40:23.679624"	24	2.67464783333333
"S201126"	"Processing_Speed"	"RIGHT"	"DOWN"	315.96399999998	1083.3333355	""	n/a	n/a	n/a	n/a	n/a	n/a	"2020-11-26 13:40:24.771365"	"2020-11-26 13:40:25.294967"	25	2.67464783333333
"S201126"	"Processing_Speed"	"RIGHT"	"DOWN"	346.500899999995	533.3333344	""	n/a	n/a	n/a	n/a	n/a	n/a	"2020-11-26 13:40:25.837212"	"2020-11-26 13:40:26.391080"	26	2.67464783333333
"S201126"	"Processing_Speed"	"RIGHT"	"DOWN"	365.639000000016	1266.6666692	""	n/a	n/a	n/a	n/a	n/a	n/a	"2020-11-26 13:40:27.666400"	"2020-11-26 13:40:28.240416"	27	2.67464783333333
"S201126"	"Processing_Speed"	"RIGHT"	"DOWN"	276.221700000008	666.666668	""	n/a	n/a	n/a	n/a	n/a	n/a	"2020-11-26 13:40:28.914880"	"2020-11-26 13:40:29.399603"	28	2.67464783333333
"S201126"	"Processing_Speed"	"RIGHT"	"DOWN"	267.639599999995	700.0000014	""	n/a	n/a	n/a	n/a	n/a	n/a	"2020-11-26 13:40:30.107744"	"2020-11-26 13:40:30.583185"	29	2.67464783333333
"S201126"	"Processing_Speed"	"RIGHT"	"DOWN"	255.832999999996	566.6666678	""	n/a	n/a	n/a	n/a	n/a	n/a	"2020-11-26 13:40:31.159611"	"2020-11-26 13:40:31.623595"	30	2.67464783333333
"S201126"	"Processing_Speed"	"RIGHT"	"DOWN"	258.152999999993	1333.333336	""	n/a	n/a	n/a	n/a	n/a	n/a	"2020-11-26 13:40:32.965672"	"2020-11-26 13:40:33.431771"	31	2.67464783333333
"S201126"	"Processing_Speed"	"RIGHT"	"DOWN"	261.908000000005	1016.6666687	""	n/a	n/a	n/a	n/a	n/a	n/a	"2020-11-26 13:40:34.457559"	"2020-11-26 13:40:34.925978"	32	2.67464783333333
"S201126"	"Processing_Speed"	"LEFT"	"DOWN"	334.846700000014	1050.0000021	""	n/a	n/a	n/a	n/a	n/a	n/a	"2020-11-26 13:40:35.984350"	"2020-11-26 13:40:36.527497"	33	2.67464783333333
"S201126"	"Processing_Speed"	"RIGHT"	"DOWN"	225.102800000002	1366.6666694	""	n/a	n/a	n/a	n/a	n/a	n/a	"2020-11-26 13:40:37.902300"	"2020-11-26 13:40:38.335187"	34	2.67464783333333
"S201126"	"Processing_Speed"	"LEFT"	"DOWN"	297.911200000016	1150.0000023	""	n/a	n/a	n/a	n/a	n/a	n/a	"2020-11-26 13:40:39.493506"	"2020-11-26 13:40:39.999196"	35	2.67464783333333
"S201126"	"Processing_Speed"	"RIGHT"	"DOWN"	238.69830000001	1433.3333362	""	n/a	n/a	n/a	n/a	n/a	n/a	"2020-11-26 13:40:41.440572"	"2020-11-26 13:40:41.886363"	36	2.67464783333333
"S201126"	"Processing_Speed"	"RIGHT"	"DOWN"	495.03709999999	850.0000017	""	n/a	n/a	n/a	n/a	n/a	n/a	"2020-11-26 13:40:42.744721"	"2020-11-26 13:40:43.447586"	37	2.67464783333333
"S201126"	"Processing_Speed"	"LEFT"	"DOWN"	268.6913	1466.6666696	""	n/a	n/a	n/a	n/a	n/a	n/a	"2020-11-26 13:40:44.923154"	"2020-11-26 13:40:45.400660"	38	2.67464783333333
"S201126"	"Processing_Speed"	"LEFT"	"DOWN"	277.826799999985	1216.6666691	""	n/a	n/a	n/a	n/a	n/a	n/a	"2020-11-26 13:40:46.625525"	"2020-11-26 13:40:47.111430"	39	2.67464783333333
"S201126"	"Processing_Speed"	"RIGHT"	"DOWN"	275.968599999999	1300.0000026	""	n/a	n/a	n/a	n/a	n/a	n/a	"2020-11-26 13:40:48.419611"	"2020-11-26 13:40:48.903612"	40	2.67464783333333
"S201126"	"Processing_Speed"	"LEFT"	"DOWN"	386.313999999999	733.3333348	""	n/a	n/a	n/a	n/a	n/a	n/a	"2020-11-26 13:40:49.644796"	"2020-11-26 13:40:50.239151"	41	2.67464783333333
"S201126"	"Processing_Speed"	"RIGHT"	"DOWN"	364.463899999976	1500.000003	"DOWN"	-255.359	n/a	n/a	n/a	n/a	n/a	"2020-11-26 13:40:51.747237"	"2020-11-26 13:40:52.319469"	42	2.67464783333333
"S201126"	"Processing_Speed"	"LEFT"	"DOWN"	291.723600000012	1500.000003	""	n/a	n/a	n/a	n/a	n/a	n/a	"2020-11-26 13:40:53.827998"	"2020-11-26 13:40:54.327831"	43	2.67464783333333
"S201126"	"Processing_Speed"	"RIGHT"	"DOWN"	285.412500000007	1050.0000021	""	n/a	n/a	n/a	n/a	n/a	n/a	"2020-11-26 13:40:55.386368"	"2020-11-26 13:40:55.879081"	44	2.67464783333333
"S201126"	"Processing_Speed"	"LEFT"	"DOWN"	244.014600000014	1300.0000026	""	n/a	n/a	n/a	n/a	n/a	n/a	"2020-11-26 13:40:57.187713"	"2020-11-26 13:40:57.639158"	45	2.67464783333333
"S201126"	"Processing_Speed"	"LEFT"	"DOWN"	286.801699999984	1433.3333362	""	n/a	n/a	n/a	n/a	n/a	n/a	"2020-11-26 13:40:59.081000"	"2020-11-26 13:40:59.575448"	46	2.67464783333333
"S201126"	"Processing_Speed"	"RIGHT"	"DOWN"	365.956699999998	816.6666683	""	n/a	n/a	n/a	n/a	n/a	n/a	"2020-11-26 13:41:00.402071"	"2020-11-26 13:41:00.975151"	47	2.67464783333333
"S201126"	"Processing_Speed"	"RIGHT"	"DOWN"	272.540300000003	1183.3333357	""	n/a	n/a	n/a	n/a	n/a	n/a	"2020-11-26 13:41:02.166866"	"2020-11-26 13:41:02.647908"	48	2.67464783333333
"S201126"	"Processing_Speed"	"RIGHT"	"DOWN"	262.768499999993	1400.0000028	""	n/a	n/a	n/a	n/a	n/a	n/a	"2020-11-26 13:41:04.056933"	"2020-11-26 13:41:04.527379"	49	2.67464783333333
"S201126"	"Processing_Speed"	"LEFT"	"DOWN"	313.816299999985	950.0000019	""	n/a	n/a	n/a	n/a	n/a	n/a	"2020-11-26 13:41:05.486013"	"2020-11-26 13:41:06.006944"	50	2.67464783333333
"S201126"	"Processing_Speed"	"RIGHT"	"DOWN"	263.39420000005	1216.6666691	""	n/a	n/a	n/a	n/a	n/a	n/a	"2020-11-26 13:41:07.232442"	"2020-11-26 13:41:07.703561"	51	2.67464783333333
"S201126"	"Processing_Speed"	"LEFT"	"DOWN"	264.135199999998	983.3333353	""	n/a	n/a	n/a	n/a	n/a	n/a	"2020-11-26 13:41:08.695155"	"2020-11-26 13:41:09.167910"	52	2.67464783333333
"S201126"	"Processing_Speed"	"LEFT"	"DOWN"	473.909100000014	533.3333344	""	n/a	n/a	n/a	n/a	n/a	n/a	"2020-11-26 13:41:09.710095"	"2020-11-26 13:41:10.391408"	53	2.67464783333333
"S201126"	"Processing_Speed"	"LEFT"	"DOWN"	272.841300000039	566.6666678	""	n/a	n/a	n/a	n/a	n/a	n/a	"2020-11-26 13:41:10.966846"	"2020-11-26 13:41:11.447505"	54	2.67464783333333
"S201126"	"Processing_Speed"	"RIGHT"	"DOWN"	353.177199999948	733.3333348	""	n/a	n/a	n/a	n/a	n/a	n/a	"2020-11-26 13:41:12.190780"	"2020-11-26 13:41:12.751416"	55	2.67464783333333
"S201126"	"Processing_Speed"	"LEFT"	"DOWN"	270.489400000031	1016.6666687	""	n/a	n/a	n/a	n/a	n/a	n/a	"2020-11-26 13:41:13.776748"	"2020-11-26 13:41:14.255581"	56	2.67464783333333
"S201126"	"Processing_Speed"	"LEFT"	"DOWN"	310.792800000002	816.6666683	""	n/a	n/a	n/a	n/a	n/a	n/a	"2020-11-26 13:41:15.080377"	"2020-11-26 13:41:15.600200"	57	2.67464783333333
"S201126"	"Processing_Speed"	"LEFT"	"DOWN"	274.858700000038	700.0000014	""	n/a	n/a	n/a	n/a	n/a	n/a	"2020-11-26 13:41:16.309103"	"2020-11-26 13:41:16.792714"	58	2.67464783333333
"S201126"	"Processing_Speed"	"LEFT"	"DOWN"	283.64739999995	1266.6666692	""	n/a	n/a	n/a	n/a	n/a	n/a	"2020-11-26 13:41:18.067493"	"2020-11-26 13:41:18.559164"	59	2.67464783333333
"S201126"	"Processing_Speed"	"LEFT"	"DOWN"	388.159099999996	500.000001	""	n/a	n/a	n/a	n/a	n/a	n/a	"2020-11-26 13:41:19.067567"	"2020-11-26 13:41:19.663741"	60	2.67464783333333
"S201126"	"Response_Inhibition"	"LEFT"	"LEFT"	516.371800000002	1366.6666694	n/a	n/a	n/a	n/a	n/a	n/a	n/a	"2020-11-26 13:45:59.882765"	"2020-11-26 13:46:00.607242"	1	6.59907606666667
"S201126"	"Response_Inhibition"	"LEFT"	"Time_Max_Exceeded"	1500.04920009997	950.0000019	n/a	n/a	n/a	n/a	n/a	n/a	n/a	"2020-11-26 13:46:01.565292"	"2020-11-26 13:46:03.068839"	2	6.59907606666667
"S201126"	"Response_Inhibition"	"LEFT"	"LEFT"	374.724433700033	783.3333349	n/a	n/a	n/a	n/a	n/a	n/a	n/a	"2020-11-26 13:46:03.861027"	"2020-11-26 13:46:04.447372"	3	6.59907606666667
"S201126"	"Response_Inhibition"	"LEFT"	"LEFT"	830.828600000018	1216.6666691	n/a	n/a	n/a	n/a	n/a	n/a	n/a	"2020-11-26 13:46:05.672723"	"2020-11-26 13:46:06.711081"	4	6.59907606666667
"S201126"	"Response_Inhibition"	"LEFT"	"Time_Max_Exceeded"	1500.04666679994	850.0000017	n/a	n/a	n/a	n/a	n/a	n/a	n/a	"2020-11-26 13:46:07.570032"	"2020-11-26 13:46:09.073216"	5	6.59907606666667
"S201126"	"Response_Inhibition"	"LEFT"	"LEFT"	632.018099999982	700.0000014	n/a	n/a	n/a	n/a	n/a	n/a	n/a	"2020-11-26 13:46:09.783574"	"2020-11-26 13:46:10.623485"	6	6.59907606666667
"S201126"	"Response_Inhibition"	"RIGHT"	"RIGHT"	616.864999999962	1366.6666694	n/a	n/a	n/a	n/a	n/a	n/a	n/a	"2020-11-26 13:46:11.998339"	"2020-11-26 13:46:12.823132"	7	6.59907606666667
"S201126"	"Response_Inhibition"	"RIGHT"	"RIGHT"	559.691499999985	800.0000016	n/a	n/a	n/a	n/a	n/a	n/a	n/a	"2020-11-26 13:46:13.632241"	"2020-11-26 13:46:14.399219"	8	6.59907606666667
"S201126"	"Response_Inhibition"	"RIGHT"	"Time_Max_Exceeded"	1500.05180019991	1000.000002	n/a	n/a	n/a	n/a	n/a	n/a	n/a	"2020-11-26 13:46:15.407925"	"2020-11-26 13:46:16.911622"	9	6.59907606666667
"S201126"	"Response_Inhibition"	"LEFT"	"LEFT"	500.737599999979	1466.6666696	n/a	n/a	n/a	n/a	n/a	n/a	n/a	"2020-11-26 13:46:18.387001"	"2020-11-26 13:46:19.095745"	10	6.59907606666667
"S201126"	"Response_Inhibition"	"RIGHT"	"Time_Max_Exceeded"	1500.04893360002	916.6666685	n/a	n/a	n/a	n/a	n/a	n/a	n/a	"2020-11-26 13:46:20.020686"	"2020-11-26 13:46:21.523894"	11	6.59907606666667
"S201126"	"Response_Inhibition"	"RIGHT"	"RIGHT"	678.735399999937	683.3333347	n/a	n/a	n/a	n/a	n/a	n/a	n/a	"2020-11-26 13:46:22.216674"	"2020-11-26 13:46:23.103750"	12	6.59907606666667
"S201126"	"Response_Inhibition"	"LEFT"	"LEFT"	702.102099999934	783.3333349	n/a	n/a	n/a	n/a	n/a	n/a	n/a	"2020-11-26 13:46:23.897298"	"2020-11-26 13:46:24.808179"	13	6.59907606666667
"S201126"	"Response_Inhibition"	"LEFT"	"LEFT"	590.255799999909	1416.6666695	n/a	n/a	n/a	n/a	n/a	n/a	n/a	"2020-11-26 13:46:26.232757"	"2020-11-26 13:46:27.030974"	14	6.59907606666667
"S201126"	"Response_Inhibition"	"RIGHT"	"RIGHT"	732.97320000006	683.3333347	n/a	n/a	n/a	n/a	n/a	n/a	n/a	"2020-11-26 13:46:27.722892"	"2020-11-26 13:46:28.664525"	15	6.59907606666667
"S201126"	"Response_Inhibition"	"LEFT"	"Time_Max_Exceeded"	1500.04876730002	1233.3333358	n/a	n/a	n/a	n/a	n/a	n/a	n/a	"2020-11-26 13:46:29.906231"	"2020-11-26 13:46:31.410042"	16	6.59907606666667
"S201126"	"Response_Inhibition"	"LEFT"	"Time_Max_Exceeded"	1500.05733350004	1200.0000024	n/a	n/a	n/a	n/a	n/a	n/a	n/a	"2020-11-26 13:46:32.619951"	"2020-11-26 13:46:34.123085"	17	6.59907606666667
"S201126"	"Response_Inhibition"	"RIGHT"	"RIGHT"	649.503299999992	850.0000017	n/a	n/a	n/a	n/a	n/a	n/a	n/a	"2020-11-26 13:46:34.982361"	"2020-11-26 13:46:35.839400"	18	6.59907606666667
"S201126"	"Response_Inhibition"	"LEFT"	"LEFT"	857.766800000036	950.0000019	n/a	n/a	n/a	n/a	n/a	n/a	n/a	"2020-11-26 13:46:36.797505"	"2020-11-26 13:46:37.862488"	19	6.59907606666667
"S201126"	"Response_Inhibition"	"LEFT"	"LEFT"	631.696099999999	616.6666679	n/a	n/a	n/a	n/a	n/a	n/a	n/a	"2020-11-26 13:46:38.487661"	"2020-11-26 13:46:39.327325"	20	6.59907606666667
"S201126"	"Response_Inhibition"	"RIGHT"	"RIGHT"	621.669900000029	850.0000017	n/a	n/a	n/a	n/a	n/a	n/a	n/a	"2020-11-26 13:46:40.186253"	"2020-11-26 13:46:41.015738"	21	6.59907606666667
"S201126"	"Response_Inhibition"	"LEFT"	"LEFT"	609.599900000035	733.3333348	n/a	n/a	n/a	n/a	n/a	n/a	n/a	"2020-11-26 13:46:41.757915"	"2020-11-26 13:46:42.575511"	22	6.59907606666667
"S201126"	"Response_Inhibition"	"RIGHT"	"RIGHT"	690.19179999998	733.3333348	n/a	n/a	n/a	n/a	n/a	n/a	n/a	"2020-11-26 13:46:43.317609"	"2020-11-26 13:46:44.215144"	23	6.59907606666667
"S201126"	"Response_Inhibition"	"RIGHT"	"Time_Max_Exceeded"	1500.04796720002	733.3333348	n/a	n/a	n/a	n/a	n/a	n/a	n/a	"2020-11-26 13:46:44.956713"	"2020-11-26 13:46:46.460593"	24	6.59907606666667
"S201126"	"Response_Inhibition"	"RIGHT"	"RIGHT"	988.743999999997	533.3333344	n/a	n/a	n/a	n/a	n/a	n/a	n/a	"2020-11-26 13:46:47.002251"	"2020-11-26 13:46:48.199504"	25	6.59907606666667
"S201126"	"Response_Inhibition"	"LEFT"	"LEFT"	352.385000000027	583.3333345	n/a	n/a	n/a	n/a	n/a	n/a	n/a	"2020-11-26 13:46:48.790954"	"2020-11-26 13:46:49.351610"	26	6.59907606666667
"S201126"	"Response_Inhibition"	"RIGHT"	"Time_Max_Exceeded"	1500.0502669	633.3333346	n/a	n/a	n/a	n/a	n/a	n/a	n/a	"2020-11-26 13:46:49.992876"	"2020-11-26 13:46:51.496507"	27	6.59907606666667
"S201126"	"Response_Inhibition"	"RIGHT"	"Time_Max_Exceeded"	1500.04900030001	866.6666684	n/a	n/a	n/a	n/a	n/a	n/a	n/a	"2020-11-26 13:46:52.371286"	"2020-11-26 13:46:53.875242"	28	6.59907606666667
"S201126"	"Response_Inhibition"	"RIGHT"	"Time_Max_Exceeded"	1500.05943380003	500.000001	n/a	n/a	n/a	n/a	n/a	n/a	n/a	"2020-11-26 13:46:54.385137"	"2020-11-26 13:46:55.888268"	29	6.59907606666667
"S201126"	"Response_Inhibition"	"LEFT"	"LEFT"	738.273299999946	1066.6666688	n/a	n/a	n/a	n/a	n/a	n/a	n/a	"2020-11-26 13:46:56.965425"	"2020-11-26 13:46:57.912870"	30	6.59907606666667
"S201126"	"Response_Inhibition"	"LEFT"	"Time_Max_Exceeded"	1500.05193350008	666.666668	n/a	n/a	n/a	n/a	n/a	n/a	n/a	"2020-11-26 13:46:58.588173"	"2020-11-26 13:47:00.091943"	31	6.59907606666667
"S201126"	"Response_Inhibition"	"LEFT"	"LEFT"	750.009300000102	900.0000018	n/a	n/a	n/a	n/a	n/a	n/a	n/a	"2020-11-26 13:47:01.001319"	"2020-11-26 13:47:01.958170"	32	6.59907606666667
"S201126"	"Response_Inhibition"	"RIGHT"	"RIGHT"	680.381099999977	1216.6666691	n/a	n/a	n/a	n/a	n/a	n/a	n/a	"2020-11-26 13:47:03.183303"	"2020-11-26 13:47:04.071605"	33	6.59907606666667
"S201126"	"Response_Inhibition"	"LEFT"	"LEFT"	820.229400000017	1483.3333363	n/a	n/a	n/a	n/a	n/a	n/a	n/a	"2020-11-26 13:47:05.563017"	"2020-11-26 13:47:06.591530"	34	6.59907606666667
"S201126"	"Response_Inhibition"	"RIGHT"	"Time_Max_Exceeded"	1500.07273380001	1433.3333362	n/a	n/a	n/a	n/a	n/a	n/a	n/a	"2020-11-26 13:47:08.033523"	"2020-11-26 13:47:09.536924"	35	6.59907606666667
"S201126"	"Response_Inhibition"	"RIGHT"	"RIGHT"	513.387599999987	1316.6666693	n/a	n/a	n/a	n/a	n/a	n/a	n/a	"2020-11-26 13:47:10.861798"	"2020-11-26 13:47:11.583385"	36	6.59907606666667
"S201126"	"Response_Inhibition"	"RIGHT"	"Time_Max_Exceeded"	1500.05763370003	1400.0000028	n/a	n/a	n/a	n/a	n/a	n/a	n/a	"2020-11-26 13:47:12.992677"	"2020-11-26 13:47:14.496392"	37	6.59907606666667
"S201126"	"Response_Inhibition"	"RIGHT"	"Time_Max_Exceeded"	1500.05930050009	550.0000011	n/a	n/a	n/a	n/a	n/a	n/a	n/a	"2020-11-26 13:47:15.055028"	"2020-11-26 13:47:16.558660"	38	6.59907606666667
"S201126"	"Response_Inhibition"	"RIGHT"	"RIGHT"	732.714699999974	1283.3333359	n/a	n/a	n/a	n/a	n/a	n/a	n/a	"2020-11-26 13:47:17.850985"	"2020-11-26 13:47:18.790946"	39	6.59907606666667
"S201126"	"Response_Inhibition"	"LEFT"	"Time_Max_Exceeded"	1500.07283359999	600.0000012	n/a	n/a	n/a	n/a	n/a	n/a	n/a	"2020-11-26 13:47:19.399890"	"2020-11-26 13:47:20.903713"	40	6.59907606666667
"S201126"	"Response_Inhibition"	"RIGHT"	"RIGHT"	382.340766699978	716.6666681	n/a	n/a	n/a	n/a	n/a	n/a	n/a	"2020-11-26 13:47:21.629107"	"2020-11-26 13:47:22.223152"	41	6.59907606666667
"S201126"	"Response_Inhibition"	"LEFT"	"LEFT"	816.919299999995	566.6666678	n/a	n/a	n/a	n/a	n/a	n/a	n/a	"2020-11-26 13:47:22.798366"	"2020-11-26 13:47:23.822922"	42	6.59907606666667
"S201126"	"Response_Inhibition"	"LEFT"	"LEFT"	798.996500000044	1433.3333362	n/a	n/a	n/a	n/a	n/a	n/a	n/a	"2020-11-26 13:47:25.264207"	"2020-11-26 13:47:26.271104"	43	6.59907606666667
"S201126"	"Response_Inhibition"	"LEFT"	"LEFT"	604.433799999924	1083.3333355	n/a	n/a	n/a	n/a	n/a	n/a	n/a	"2020-11-26 13:47:27.362598"	"2020-11-26 13:47:28.175647"	44	6.59907606666667
"S201126"	"Response_Inhibition"	"LEFT"	"LEFT"	606.204599999955	1033.3333354	n/a	n/a	n/a	n/a	n/a	n/a	n/a	"2020-11-26 13:47:29.217193"	"2020-11-26 13:47:30.030309"	45	6.59907606666667
"S201126"	"Response_Inhibition"	"LEFT"	"LEFT"	740.236299999992	1116.6666689	n/a	n/a	n/a	n/a	n/a	n/a	n/a	"2020-11-26 13:47:31.154944"	"2020-11-26 13:47:32.104671"	46	6.59907606666667
"S201126"	"Response_Inhibition"	"RIGHT"	"RIGHT"	620.10470000007	1066.6666688	n/a	n/a	n/a	n/a	n/a	n/a	n/a	"2020-11-26 13:47:33.179325"	"2020-11-26 13:47:34.007146"	47	6.59907606666667
"S201126"	"Response_Inhibition"	"RIGHT"	"RIGHT"	698.018200000092	950.0000019	n/a	n/a	n/a	n/a	n/a	n/a	n/a	"2020-11-26 13:47:34.965263"	"2020-11-26 13:47:35.871572"	48	6.59907606666667
"S201126"	"Response_Inhibition"	"RIGHT"	"RIGHT"	677.795400000036	1466.6666696	n/a	n/a	n/a	n/a	n/a	n/a	n/a	"2020-11-26 13:47:37.346404"	"2020-11-26 13:47:38.232302"	49	6.59907606666667
"S201126"	"Response_Inhibition"	"RIGHT"	"RIGHT"	413.248367199956	1150.0000023	n/a	n/a	n/a	n/a	n/a	n/a	n/a	"2020-11-26 13:47:39.390816"	"2020-11-26 13:47:40.015104"	50	6.59907606666667
"S201126"	"Response_Inhibition"	"RIGHT"	"RIGHT"	708.126300000004	1100.0000022	n/a	n/a	n/a	n/a	n/a	n/a	n/a	"2020-11-26 13:47:41.123387"	"2020-11-26 13:47:42.039187"	51	6.59907606666667
"S201126"	"Response_Inhibition"	"LEFT"	"LEFT"	399.207199999978	1000.000002	n/a	n/a	n/a	n/a	n/a	n/a	n/a	"2020-11-26 13:47:43.048306"	"2020-11-26 13:47:43.654751"	52	6.59907606666667
"S201126"	"Response_Inhibition"	"LEFT"	"LEFT"	579.644200000075	500.000001	n/a	n/a	n/a	n/a	n/a	n/a	n/a	"2020-11-26 13:47:44.164099"	"2020-11-26 13:47:44.951362"	53	6.59907606666667
"S201126"	"Response_Inhibition"	"RIGHT"	"RIGHT"	495.980600000053	766.6666682	n/a	n/a	n/a	n/a	n/a	n/a	n/a	"2020-11-26 13:47:45.727183"	"2020-11-26 13:47:46.431522"	54	6.59907606666667
"S201126"	"Response_Inhibition"	"LEFT"	"LEFT"	644.906599999899	1266.6666692	n/a	n/a	n/a	n/a	n/a	n/a	n/a	"2020-11-26 13:47:47.706234"	"2020-11-26 13:47:48.559552"	55	6.59907606666667
"S201126"	"Response_Inhibition"	"RIGHT"	"RIGHT"	509.37399999998	833.333335	n/a	n/a	n/a	n/a	n/a	n/a	n/a	"2020-11-26 13:47:49.401995"	"2020-11-26 13:47:50.119022"	56	6.59907606666667
"S201126"	"Response_Inhibition"	"RIGHT"	"RIGHT"	557.565300000078	1266.6666692	n/a	n/a	n/a	n/a	n/a	n/a	n/a	"2020-11-26 13:47:51.393759"	"2020-11-26 13:47:52.159344"	57	6.59907606666667
"S201126"	"Response_Inhibition"	"LEFT"	"Time_Max_Exceeded"	1500.05840040001	850.0000017	n/a	n/a	n/a	n/a	n/a	n/a	n/a	"2020-11-26 13:47:53.018569"	"2020-11-26 13:47:54.522262"	58	6.59907606666667
"S201126"	"Response_Inhibition"	"RIGHT"	"Time_Max_Exceeded"	1500.05820060006	950.0000019	n/a	n/a	n/a	n/a	n/a	n/a	n/a	"2020-11-26 13:47:55.481621"	"2020-11-26 13:47:56.985211"	59	6.59907606666667
"S201126"	"Response_Inhibition"	"LEFT"	"LEFT"	505.254300000047	1500.000003	n/a	n/a	n/a	n/a	n/a	n/a	n/a	"2020-11-26 13:47:58.494578"	"2020-11-26 13:47:59.206357"	60	6.59907606666667
"S201126"	"Response_Inhibition"	"RIGHT"	"RIGHT"	647.902000000045	1383.3333361	n/a	n/a	n/a	n/a	n/a	n/a	n/a	"2020-11-26 13:48:00.599219"	"2020-11-26 13:48:01.455167"	61	6.59907606666667
"S201126"	"Response_Inhibition"	"LEFT"	"Time_Max_Exceeded"	1500.06229999997	916.6666685	n/a	n/a	n/a	n/a	n/a	n/a	n/a	"2020-11-26 13:48:02.380683"	"2020-11-26 13:48:03.880441"	62	6.59907606666667
"S201126"	"Response_Inhibition"	"RIGHT"	"Time_Max_Exceeded"	1500.05080040001	1133.3333356	n/a	n/a	n/a	n/a	n/a	n/a	n/a	"2020-11-26 13:48:05.023499"	"2020-11-26 13:48:06.526881"	63	6.59907606666667
"S201126"	"Response_Inhibition"	"RIGHT"	"RIGHT"	510.733200000004	1033.3333354	n/a	n/a	n/a	n/a	n/a	n/a	n/a	"2020-11-26 13:48:07.568345"	"2020-11-26 13:48:08.287422"	64	6.59907606666667
"S201126"	"Response_Inhibition"	"RIGHT"	"RIGHT"	521.746500000063	1150.0000023	n/a	n/a	n/a	n/a	n/a	n/a	n/a	"2020-11-26 13:48:09.445582"	"2020-11-26 13:48:10.174404"	65	6.59907606666667
"S201126"	"Response_Inhibition"	"RIGHT"	"Time_Max_Exceeded"	1500.05450059996	1300.0000026	n/a	n/a	n/a	n/a	n/a	n/a	n/a	"2020-11-26 13:48:11.482684"	"2020-11-26 13:48:12.986175"	66	6.59907606666667
"S201126"	"Response_Inhibition"	"LEFT"	"Time_Max_Exceeded"	1500.04610019994	633.3333346	n/a	n/a	n/a	n/a	n/a	n/a	n/a	"2020-11-26 13:48:13.629227"	"2020-11-26 13:48:15.132237"	67	6.59907606666667
"S201126"	"Response_Inhibition"	"RIGHT"	"RIGHT"	744.889499999999	616.6666679	n/a	n/a	n/a	n/a	n/a	n/a	n/a	"2020-11-26 13:48:15.758833"	"2020-11-26 13:48:16.711055"	68	6.59907606666667
"S201126"	"Response_Inhibition"	"LEFT"	"LEFT"	758.097899999939	1050.0000021	n/a	n/a	n/a	n/a	n/a	n/a	n/a	"2020-11-26 13:48:17.769420"	"2020-11-26 13:48:18.734984"	69	6.59907606666667
"S201126"	"Response_Inhibition"	"LEFT"	"Time_Max_Exceeded"	1500.04523389995	1000.000002	n/a	n/a	n/a	n/a	n/a	n/a	n/a	"2020-11-26 13:48:19.743582"	"2020-11-26 13:48:21.246515"	70	6.59907606666667
"S201126"	"Response_Inhibition"	"RIGHT"	"RIGHT"	636.592800000017	1083.3333355	n/a	n/a	n/a	n/a	n/a	n/a	n/a	"2020-11-26 13:48:22.338907"	"2020-11-26 13:48:23.183118"	71	6.59907606666667
"S201126"	"Response_Inhibition"	"RIGHT"	"RIGHT"	616.202900000076	583.3333345	n/a	n/a	n/a	n/a	n/a	n/a	n/a	"2020-11-26 13:48:23.774830"	"2020-11-26 13:48:24.598371"	72	6.59907606666667
"S201126"	"Response_Inhibition"	"LEFT"	"Time_Max_Exceeded"	1500.06013359992	766.6666682	n/a	n/a	n/a	n/a	n/a	n/a	n/a	"2020-11-26 13:48:25.373960"	"2020-11-26 13:48:26.877414"	73	6.59907606666667
"S201126"	"Response_Inhibition"	"RIGHT"	"RIGHT"	554.19710000001	983.3333353	n/a	n/a	n/a	n/a	n/a	n/a	n/a	"2020-11-26 13:48:27.869666"	"2020-11-26 13:48:28.630357"	74	6.59907606666667
"S201126"	"Response_Inhibition"	"LEFT"	"LEFT"	656.06020000007	1016.6666687	n/a	n/a	n/a	n/a	n/a	n/a	n/a	"2020-11-26 13:48:29.655720"	"2020-11-26 13:48:30.519058"	75	6.59907606666667
"S201126"	"Response_Inhibition"	"LEFT"	"LEFT"	465.566700000068	533.3333344	n/a	n/a	n/a	n/a	n/a	n/a	n/a	"2020-11-26 13:48:31.062220"	"2020-11-26 13:48:31.735029"	76	6.59907606666667
"S201126"	"Response_Inhibition"	"RIGHT"	"RIGHT"	663.872699999956	1000.000002	n/a	n/a	n/a	n/a	n/a	n/a	n/a	"2020-11-26 13:48:32.743894"	"2020-11-26 13:48:33.615202"	77	6.59907606666667
"S201126"	"Response_Inhibition"	"RIGHT"	"RIGHT"	437.742999999955	1050.0000021	n/a	n/a	n/a	n/a	n/a	n/a	n/a	"2020-11-26 13:48:34.674138"	"2020-11-26 13:48:35.319510"	78	6.59907606666667
"S201126"	"Response_Inhibition"	"RIGHT"	"RIGHT"	536.441500000024	1183.3333357	n/a	n/a	n/a	n/a	n/a	n/a	n/a	"2020-11-26 13:48:36.511168"	"2020-11-26 13:48:37.254384"	79	6.59907606666667
"S201126"	"Response_Inhibition"	"LEFT"	"Time_Max_Exceeded"	1500.06950010004	716.6666681	n/a	n/a	n/a	n/a	n/a	n/a	n/a	"2020-11-26 13:48:37.979667"	"2020-11-26 13:48:39.483061"	80	6.59907606666667
"S201126"	"Response_Inhibition"	"RIGHT"	"Time_Max_Exceeded"	1500.05443339997	900.0000018	n/a	n/a	n/a	n/a	n/a	n/a	n/a	"2020-11-26 13:48:40.391278"	"2020-11-26 13:48:41.895189"	81	6.59907606666667
"S201126"	"Response_Inhibition"	"RIGHT"	"RIGHT"	522.147400000108	1316.6666693	n/a	n/a	n/a	n/a	n/a	n/a	n/a	"2020-11-26 13:48:43.221077"	"2020-11-26 13:48:43.951188"	82	6.59907606666667
"S201126"	"Response_Inhibition"	"LEFT"	"LEFT"	410.788300000036	733.3333348	n/a	n/a	n/a	n/a	n/a	n/a	n/a	"2020-11-26 13:48:44.692808"	"2020-11-26 13:48:45.311041"	83	6.59907606666667
"S201126"	"Response_Inhibition"	"RIGHT"	"RIGHT"	381.321899999989	650.0000013	n/a	n/a	n/a	n/a	n/a	n/a	n/a	"2020-11-26 13:48:45.969640"	"2020-11-26 13:48:46.559236"	84	6.59907606666667
"S201126"	"Response_Inhibition"	"RIGHT"	"RIGHT"	409.770300399946	666.666668	n/a	n/a	n/a	n/a	n/a	n/a	n/a	"2020-11-26 13:48:47.233895"	"2020-11-26 13:48:47.855556"	85	6.59907606666667
"S201126"	"Response_Inhibition"	"RIGHT"	"Time_Max_Exceeded"	1500.05786720003	816.6666683	n/a	n/a	n/a	n/a	n/a	n/a	n/a	"2020-11-26 13:48:48.680597"	"2020-11-26 13:48:50.183880"	86	6.59907606666667
"S201126"	"Response_Inhibition"	"LEFT"	"LEFT"	623.583099999905	1383.3333361	n/a	n/a	n/a	n/a	n/a	n/a	n/a	"2020-11-26 13:48:51.575457"	"2020-11-26 13:48:52.407438"	87	6.59907606666667
"S201126"	"Response_Inhibition"	"LEFT"	"LEFT"	479.792200599952	1316.6666693	n/a	n/a	n/a	n/a	n/a	n/a	n/a	"2020-11-26 13:48:53.732699"	"2020-11-26 13:48:54.424909"	88	6.59907606666667
"S201126"	"Response_Inhibition"	"RIGHT"	"Time_Max_Exceeded"	1500.04840010001	783.3333349	n/a	n/a	n/a	n/a	n/a	n/a	n/a	"2020-11-26 13:48:55.216486"	"2020-11-26 13:48:56.720404"	89	6.59907606666667
"S201126"	"Response_Inhibition"	"RIGHT"	"RIGHT"	565.210500000035	633.3333346	n/a	n/a	n/a	n/a	n/a	n/a	n/a	"2020-11-26 13:48:57.362597"	"2020-11-26 13:48:58.134293"	90	6.59907606666667
"S201126"	"Response_Inhibition"	"LEFT"	"LEFT"	575.179899999966	633.3333346	n/a	n/a	n/a	n/a	n/a	n/a	n/a	"2020-11-26 13:48:58.775817"	"2020-11-26 13:48:59.559116"	91	6.59907606666667
"S201126"	"Response_Inhibition"	"LEFT"	"Time_Max_Exceeded"	1500.05506689994	1050.0000021	n/a	n/a	n/a	n/a	n/a	n/a	n/a	"2020-11-26 13:49:00.617617"	"2020-11-26 13:49:02.120509"	92	6.59907606666667
"S201126"	"Response_Inhibition"	"RIGHT"	"RIGHT"	610.181499999953	883.3333351	n/a	n/a	n/a	n/a	n/a	n/a	n/a	"2020-11-26 13:49:03.013604"	"2020-11-26 13:49:03.831377"	93	6.59907606666667
"S201126"	"Response_Inhibition"	"LEFT"	"LEFT"	448.500200000012	983.3333353	n/a	n/a	n/a	n/a	n/a	n/a	n/a	"2020-11-26 13:49:04.823413"	"2020-11-26 13:49:05.479405"	94	6.59907606666667
"S201126"	"Response_Inhibition"	"LEFT"	"LEFT"	466.387599999962	1333.333336	n/a	n/a	n/a	n/a	n/a	n/a	n/a	"2020-11-26 13:49:06.820571"	"2020-11-26 13:49:07.495870"	95	6.59907606666667
"S201126"	"Response_Inhibition"	"RIGHT"	"RIGHT"	469.176000000061	1450.0000029	n/a	n/a	n/a	n/a	n/a	n/a	n/a	"2020-11-26 13:49:08.954006"	"2020-11-26 13:49:09.630354"	96	6.59907606666667
"S201126"	"Response_Inhibition"	"RIGHT"	"RIGHT"	504.133899999943	1016.6666687	n/a	n/a	n/a	n/a	n/a	n/a	n/a	"2020-11-26 13:49:10.654806"	"2020-11-26 13:49:11.367859"	97	6.59907606666667
"S201126"	"Response_Inhibition"	"RIGHT"	"RIGHT"	483.356400000048	700.0000014	n/a	n/a	n/a	n/a	n/a	n/a	n/a	"2020-11-26 13:49:12.075934"	"2020-11-26 13:49:12.767759"	98	6.59907606666667
"S201126"	"Response_Inhibition"	"LEFT"	"Time_Max_Exceeded"	1500.07256709993	1133.3333356	n/a	n/a	n/a	n/a	n/a	n/a	n/a	"2020-11-26 13:49:13.912935"	"2020-11-26 13:49:15.416140"	99	6.59907606666667
"S201126"	"Response_Inhibition"	"RIGHT"	"RIGHT"	582.706199999961	783.3333349	n/a	n/a	n/a	n/a	n/a	n/a	n/a	"2020-11-26 13:49:16.209362"	"2020-11-26 13:49:16.999817"	100	6.59907606666667
"S201126"	"Response_Inhibition"	"LEFT"	"LEFT"	589.261100000044	650.0000013	n/a	n/a	n/a	n/a	n/a	n/a	n/a	"2020-11-26 13:49:17.657917"	"2020-11-26 13:49:18.455375"	101	6.59907606666667
"S201126"	"Response_Inhibition"	"LEFT"	"LEFT"	431.036500000005	1216.6666691	n/a	n/a	n/a	n/a	n/a	n/a	n/a	"2020-11-26 13:49:19.680311"	"2020-11-26 13:49:20.319231"	102	6.59907606666667
"S201126"	"Response_Inhibition"	"LEFT"	"LEFT"	660.73270000004	683.3333347	n/a	n/a	n/a	n/a	n/a	n/a	n/a	"2020-11-26 13:49:21.010283"	"2020-11-26 13:49:21.879256"	103	6.59907606666667
"S201126"	"Response_Inhibition"	"RIGHT"	"Time_Max_Exceeded"	1500.06073380004	1350.0000027	n/a	n/a	n/a	n/a	n/a	n/a	n/a	"2020-11-26 13:49:23.237672"	"2020-11-26 13:49:24.741353"	104	6.59907606666667
"S201126"	"Response_Inhibition"	"LEFT"	"Time_Max_Exceeded"	1500.05030029991	516.6666677	n/a	n/a	n/a	n/a	n/a	n/a	n/a	"2020-11-26 13:49:25.268110"	"2020-11-26 13:49:26.771393"	105	6.59907606666667
"S201126"	"Response_Inhibition"	"LEFT"	"LEFT"	660.827400000016	1150.0000023	n/a	n/a	n/a	n/a	n/a	n/a	n/a	"2020-11-26 13:49:27.931075"	"2020-11-26 13:49:28.799234"	106	6.59907606666667
"S201126"	"Response_Inhibition"	"LEFT"	"LEFT"	782.127200000104	1250.0000025	n/a	n/a	n/a	n/a	n/a	n/a	n/a	"2020-11-26 13:49:30.057513"	"2020-11-26 13:49:31.046168"	107	6.59907606666667
"S201126"	"Response_Inhibition"	"RIGHT"	"RIGHT"	514.299600000072	1166.666669	n/a	n/a	n/a	n/a	n/a	n/a	n/a	"2020-11-26 13:49:32.221068"	"2020-11-26 13:49:32.943192"	108	6.59907606666667
"S201126"	"Response_Inhibition"	"RIGHT"	"RIGHT"	651.073099999962	516.6666677	n/a	n/a	n/a	n/a	n/a	n/a	n/a	"2020-11-26 13:49:33.467847"	"2020-11-26 13:49:34.326310"	109	6.59907606666667
"S201126"	"Response_Inhibition"	"RIGHT"	"RIGHT"	700.95809999998	1116.6666689	n/a	n/a	n/a	n/a	n/a	n/a	n/a	"2020-11-26 13:49:35.451609"	"2020-11-26 13:49:36.360125"	110	6.59907606666667
"S201126"	"Response_Inhibition"	"RIGHT"	"RIGHT"	503.708800000027	583.3333345	n/a	n/a	n/a	n/a	n/a	n/a	n/a	"2020-11-26 13:49:36.951563"	"2020-11-26 13:49:37.664920"	111	6.59907606666667
"S201126"	"Response_Inhibition"	"RIGHT"	"RIGHT"	847.615899999937	566.6666678	n/a	n/a	n/a	n/a	n/a	n/a	n/a	"2020-11-26 13:49:38.240384"	"2020-11-26 13:49:39.294967"	112	6.59907606666667
"S201126"	"Response_Inhibition"	"RIGHT"	"RIGHT"	626.15679999999	750.0000015	n/a	n/a	n/a	n/a	n/a	n/a	n/a	"2020-11-26 13:49:40.052926"	"2020-11-26 13:49:40.887281"	113	6.59907606666667
"S201126"	"Response_Inhibition"	"LEFT"	"LEFT"	567.830000000072	1183.3333357	n/a	n/a	n/a	n/a	n/a	n/a	n/a	"2020-11-26 13:49:42.079767"	"2020-11-26 13:49:42.855403"	114	6.59907606666667
"S201126"	"Response_Inhibition"	"RIGHT"	"RIGHT"	589.297299999998	1250.0000025	n/a	n/a	n/a	n/a	n/a	n/a	n/a	"2020-11-26 13:49:44.113761"	"2020-11-26 13:49:44.911904"	115	6.59907606666667
"S201126"	"Response_Inhibition"	"LEFT"	"Time_Max_Exceeded"	1500.04726690001	550.0000011	n/a	n/a	n/a	n/a	n/a	n/a	n/a	"2020-11-26 13:49:45.471117"	"2020-11-26 13:49:46.973970"	116	6.59907606666667
"S201126"	"Response_Inhibition"	"LEFT"	"LEFT"	511.487200000033	816.6666683	n/a	n/a	n/a	n/a	n/a	n/a	n/a	"2020-11-26 13:49:47.800036"	"2020-11-26 13:49:48.519419"	117	6.59907606666667
"S201126"	"Response_Inhibition"	"LEFT"	"LEFT"	553.163600000062	1350.0000027	n/a	n/a	n/a	n/a	n/a	n/a	n/a	"2020-11-26 13:49:49.878099"	"2020-11-26 13:49:50.639212"	118	6.59907606666667
"S201126"	"Response_Inhibition"	"LEFT"	"LEFT"	410.822400000029	933.3333352	n/a	n/a	n/a	n/a	n/a	n/a	n/a	"2020-11-26 13:49:51.580711"	"2020-11-26 13:49:52.199746"	119	6.59907606666667
"S201126"	"Response_Inhibition"	"LEFT"	"LEFT"	542.789399999947	1416.6666695	n/a	n/a	n/a	n/a	n/a	n/a	n/a	"2020-11-26 13:49:53.625100"	"2020-11-26 13:49:54.375776"	120	6.59907606666667
"S201126"	"Response_Inhibition"	"LEFT"	"LEFT"	513.354200000094	750.0000015	n/a	n/a	n/a	n/a	n/a	n/a	n/a	"2020-11-26 13:49:55.134711"	"2020-11-26 13:49:55.855662"	121	6.59907606666667
"S201126"	"Response_Inhibition"	"RIGHT"	"RIGHT"	632.692499999962	1366.6666694	n/a	n/a	n/a	n/a	n/a	n/a	n/a	"2020-11-26 13:49:57.230293"	"2020-11-26 13:49:58.071364"	122	6.59907606666667
"S201126"	"Response_Inhibition"	"RIGHT"	"Time_Max_Exceeded"	1500.05006670009	600.0000012	n/a	n/a	n/a	n/a	n/a	n/a	n/a	"2020-11-26 13:49:58.679738"	"2020-11-26 13:50:00.182398"	123	6.59907606666667
"S201126"	"Response_Inhibition"	"RIGHT"	"RIGHT"	447.540900000035	1200.0000024	n/a	n/a	n/a	n/a	n/a	n/a	n/a	"2020-11-26 13:50:01.392192"	"2020-11-26 13:50:02.048423"	124	6.59907606666667
"S201126"	"Response_Inhibition"	"RIGHT"	"Time_Max_Exceeded"	1500.07043340005	1216.6666691	n/a	n/a	n/a	n/a	n/a	n/a	n/a	"2020-11-26 13:50:03.273061"	"2020-11-26 13:50:04.777151"	125	6.59907606666667
"S201126"	"Response_Inhibition"	"LEFT"	"LEFT"	410.247799999979	866.6666684	n/a	n/a	n/a	n/a	n/a	n/a	n/a	"2020-11-26 13:50:05.653153"	"2020-11-26 13:50:06.271347"	126	6.59907606666667
"S201126"	"Response_Inhibition"	"LEFT"	"LEFT"	441.769633899948	1466.6666696	n/a	n/a	n/a	n/a	n/a	n/a	n/a	"2020-11-26 13:50:07.746529"	"2020-11-26 13:50:08.398269"	127	6.59907606666667
"S201126"	"Response_Inhibition"	"LEFT"	"LEFT"	565.230100000008	683.3333347	n/a	n/a	n/a	n/a	n/a	n/a	n/a	"2020-11-26 13:50:09.090614"	"2020-11-26 13:50:09.862961"	128	6.59907606666667
"S201126"	"Response_Inhibition"	"LEFT"	"LEFT"	481.206699999916	1166.666669	n/a	n/a	n/a	n/a	n/a	n/a	n/a	"2020-11-26 13:50:11.038226"	"2020-11-26 13:50:11.728793"	129	6.59907606666667
"S201126"	"Response_Inhibition"	"LEFT"	"LEFT"	607.065799999987	583.3333345	n/a	n/a	n/a	n/a	n/a	n/a	n/a	"2020-11-26 13:50:12.320444"	"2020-11-26 13:50:13.135266"	130	6.59907606666667
"S201126"	"Response_Inhibition"	"LEFT"	"Time_Max_Exceeded"	1500.0481668	1300.0000026	n/a	n/a	n/a	n/a	n/a	n/a	n/a	"2020-11-26 13:50:14.443080"	"2020-11-26 13:50:15.947273"	131	6.59907606666667
"S201126"	"Response_Inhibition"	"RIGHT"	"RIGHT"	367.135100500041	1233.3333358	n/a	n/a	n/a	n/a	n/a	n/a	n/a	"2020-11-26 13:50:17.189501"	"2020-11-26 13:50:17.766961"	132	6.59907606666667
"S201126"	"Response_Inhibition"	"RIGHT"	"Time_Max_Exceeded"	1500.06196680003	1266.6666692	n/a	n/a	n/a	n/a	n/a	n/a	n/a	"2020-11-26 13:50:19.041629"	"2020-11-26 13:50:20.545684"	133	6.59907606666667
"S201126"	"Response_Inhibition"	"LEFT"	"LEFT"	807.416500000045	533.3333344	n/a	n/a	n/a	n/a	n/a	n/a	n/a	"2020-11-26 13:50:21.087984"	"2020-11-26 13:50:22.103269"	134	6.59907606666667
"S201126"	"Response_Inhibition"	"RIGHT"	"RIGHT"	1042.6374000001	933.3333352	n/a	n/a	n/a	n/a	n/a	n/a	n/a	"2020-11-26 13:50:23.044818"	"2020-11-26 13:50:24.295356"	135	6.59907606666667
"S201126"	"Response_Inhibition"	"RIGHT"	"RIGHT"	651.513600000044	900.0000018	n/a	n/a	n/a	n/a	n/a	n/a	n/a	"2020-11-26 13:50:25.204136"	"2020-11-26 13:50:26.063078"	136	6.59907606666667
"S201126"	"Response_Inhibition"	"RIGHT"	"Time_Max_Exceeded"	1500.05616699995	1100.0000022	n/a	n/a	n/a	n/a	n/a	n/a	n/a	"2020-11-26 13:50:27.171859"	"2020-11-26 13:50:28.674356"	137	6.59907606666667
"S201126"	"Response_Inhibition"	"LEFT"	"LEFT"	659.828599999969	800.0000016	n/a	n/a	n/a	n/a	n/a	n/a	n/a	"2020-11-26 13:50:29.484006"	"2020-11-26 13:50:30.351545"	138	6.59907606666667
"S201126"	"Response_Inhibition"	"LEFT"	"LEFT"	578.632900000002	1316.6666693	n/a	n/a	n/a	n/a	n/a	n/a	n/a	"2020-11-26 13:50:31.677110"	"2020-11-26 13:50:32.463571"	139	6.59907606666667
"S201126"	"Response_Inhibition"	"LEFT"	"LEFT"	356.713600000035	1266.6666692	n/a	n/a	n/a	n/a	n/a	n/a	n/a	"2020-11-26 13:50:33.738350"	"2020-11-26 13:50:34.303666"	140	6.59907606666667
"S201126"	"Response_Inhibition"	"LEFT"	"Time_Max_Exceeded"	1500.05716700006	1366.6666694	n/a	n/a	n/a	n/a	n/a	n/a	n/a	"2020-11-26 13:50:35.679247"	"2020-11-26 13:50:37.182466"	141	6.59907606666667
"S201126"	"Response_Inhibition"	"RIGHT"	"RIGHT"	692.156199999999	1483.3333363	n/a	n/a	n/a	n/a	n/a	n/a	n/a	"2020-11-26 13:50:38.675654"	"2020-11-26 13:50:39.575423"	142	6.59907606666667
"S201126"	"Response_Inhibition"	"LEFT"	"Time_Max_Exceeded"	1500.1029	1450.0000029	n/a	n/a	n/a	n/a	n/a	n/a	n/a	"2020-11-26 13:50:41.033556"	"2020-11-26 13:50:42.534520"	143	6.59907606666667
"S201126"	"Response_Inhibition"	"RIGHT"	"RIGHT"	633.849800000007	966.6666686	n/a	n/a	n/a	n/a	n/a	n/a	n/a	"2020-11-26 13:50:43.509558"	"2020-11-26 13:50:44.351169"	144	6.59907606666667
"S201126"	"Response_Inhibition"	"LEFT"	"LEFT"	540.793300000018	1283.3333359	n/a	n/a	n/a	n/a	n/a	n/a	n/a	"2020-11-26 13:50:45.642967"	"2020-11-26 13:50:46.391133"	145	6.59907606666667
"S201126"	"Response_Inhibition"	"LEFT"	"LEFT"	531.680599999959	900.0000018	n/a	n/a	n/a	n/a	n/a	n/a	n/a	"2020-11-26 13:50:47.299837"	"2020-11-26 13:50:48.039557"	146	6.59907606666667
"S201126"	"Response_Inhibition"	"LEFT"	"Time_Max_Exceeded"	1500.05846669994	1150.0000023	n/a	n/a	n/a	n/a	n/a	n/a	n/a	"2020-11-26 13:50:49.197505"	"2020-11-26 13:50:50.701453"	147	6.59907606666667
"S201126"	"Response_Inhibition"	"RIGHT"	"Time_Max_Exceeded"	1500.04883369999	1500.000003	n/a	n/a	n/a	n/a	n/a	n/a	n/a	"2020-11-26 13:50:52.209676"	"2020-11-26 13:50:53.712720"	148	6.59907606666667
"S201126"	"Response_Inhibition"	"RIGHT"	"RIGHT"	468.615099999965	1416.6666695	n/a	n/a	n/a	n/a	n/a	n/a	n/a	"2020-11-26 13:50:55.138397"	"2020-11-26 13:50:55.814257"	149	6.59907606666667
"S201126"	"Response_Inhibition"	"LEFT"	"Time_Max_Exceeded"	1500.05446699997	1100.0000022	n/a	n/a	n/a	n/a	n/a	n/a	n/a	"2020-11-26 13:50:56.921990"	"2020-11-26 13:50:58.426139"	150	6.59907606666667
"S201126"	"Response_Inhibition"	"RIGHT"	"Time_Max_Exceeded"	1500.0501670999	1466.6666696	n/a	n/a	n/a	n/a	n/a	n/a	n/a	"2020-11-26 13:50:59.901049"	"2020-11-26 13:51:01.404554"	151	6.59907606666667
"S201126"	"Response_Inhibition"	"RIGHT"	"Time_Max_Exceeded"	1500.05276730001	1050.0000021	n/a	n/a	n/a	n/a	n/a	n/a	n/a	"2020-11-26 13:51:02.463836"	"2020-11-26 13:51:03.967130"	152	6.59907606666667
"S201126"	"Response_Inhibition"	"RIGHT"	"RIGHT"	585.785900000019	533.3333344	n/a	n/a	n/a	n/a	n/a	n/a	n/a	"2020-11-26 13:51:04.509417"	"2020-11-26 13:51:05.302419"	153	6.59907606666667
"S201126"	"Response_Inhibition"	"LEFT"	"Time_Max_Exceeded"	1500.05373349992	1400.0000028	n/a	n/a	n/a	n/a	n/a	n/a	n/a	"2020-11-26 13:51:06.711883"	"2020-11-26 13:51:08.214931"	154	6.59907606666667
"S201126"	"Response_Inhibition"	"LEFT"	"LEFT"	722.895200000039	1100.0000022	n/a	n/a	n/a	n/a	n/a	n/a	n/a	"2020-11-26 13:51:09.324219"	"2020-11-26 13:51:10.255050"	155	6.59907606666667
"S201126"	"Response_Inhibition"	"RIGHT"	"RIGHT"	702.92429999995	1416.6666695	n/a	n/a	n/a	n/a	n/a	n/a	n/a	"2020-11-26 13:51:11.681026"	"2020-11-26 13:51:12.591024"	156	6.59907606666667
"S201126"	"Response_Inhibition"	"LEFT"	"LEFT"	652.708800000028	883.3333351	n/a	n/a	n/a	n/a	n/a	n/a	n/a	"2020-11-26 13:51:13.482886"	"2020-11-26 13:51:14.342767"	157	6.59907606666667
"S201126"	"Response_Inhibition"	"RIGHT"	"RIGHT"	546.831699999984	1333.333336	n/a	n/a	n/a	n/a	n/a	n/a	n/a	"2020-11-26 13:51:15.684789"	"2020-11-26 13:51:16.439604"	158	6.59907606666667
"S201126"	"Response_Inhibition"	"LEFT"	"Time_Max_Exceeded"	1500.05000049999	966.6666686	n/a	n/a	n/a	n/a	n/a	n/a	n/a	"2020-11-26 13:51:17.415055"	"2020-11-26 13:51:18.918063"	159	6.59907606666667
"S201126"	"Response_Inhibition"	"LEFT"	"LEFT"	599.506900000051	833.333335	n/a	n/a	n/a	n/a	n/a	n/a	n/a	"2020-11-26 13:51:19.760005"	"2020-11-26 13:51:20.567858"	160	6.59907606666667
"S201126"	"Response_Selection"	"LEFT"	"LEFT"	300.840800000003	650.0000013	n/a	n/a	n/a	n/a	n/a	n/a	n/a	"2020-11-26 13:42:41.514717"	"2020-11-26 13:42:42.023253"	1	3.38308318333333
"S201126"	"Response_Selection"	"LEFT"	"LEFT"	361.154399999975	1166.666669	n/a	n/a	n/a	n/a	n/a	n/a	n/a	"2020-11-26 13:42:43.197975"	"2020-11-26 13:42:43.767873"	2	3.38308318333333
"S201126"	"Response_Selection"	"LEFT"	"LEFT"	324.740799999972	1066.6666688	n/a	n/a	n/a	n/a	n/a	n/a	n/a	"2020-11-26 13:42:44.843043"	"2020-11-26 13:42:45.375071"	3	3.38308318333333
"S201126"	"Response_Selection"	"LEFT"	"LEFT"	295.411300000012	1216.6666691	n/a	n/a	n/a	n/a	n/a	n/a	n/a	"2020-11-26 13:42:46.600340"	"2020-11-26 13:42:47.103489"	4	3.38308318333333
"S201126"	"Response_Selection"	"RIGHT"	"RIGHT"	410.668600000008	916.6666685	n/a	n/a	n/a	n/a	n/a	n/a	n/a	"2020-11-26 13:42:48.028675"	"2020-11-26 13:42:48.647180"	5	3.38308318333333
"S201126"	"Response_Selection"	"RIGHT"	"RIGHT"	366.608399999961	633.3333346	n/a	n/a	n/a	n/a	n/a	n/a	n/a	"2020-11-26 13:42:49.288497"	"2020-11-26 13:42:49.863521"	6	3.38308318333333
"S201126"	"Response_Selection"	"LEFT"	"LEFT"	266.313799999978	1133.3333356	n/a	n/a	n/a	n/a	n/a	n/a	n/a	"2020-11-26 13:42:51.005611"	"2020-11-26 13:42:51.479258"	7	3.38308318333333
"S201126"	"Response_Selection"	"RIGHT"	"RIGHT"	351.196200000004	1216.6666691	n/a	n/a	n/a	n/a	n/a	n/a	n/a	"2020-11-26 13:42:52.703834"	"2020-11-26 13:42:53.263053"	8	3.38308318333333
"S201126"	"Response_Selection"	"RIGHT"	"RIGHT"	384.152099999994	600.0000012	n/a	n/a	n/a	n/a	n/a	n/a	n/a	"2020-11-26 13:42:53.871264"	"2020-11-26 13:42:54.463276"	9	3.38308318333333
"S201126"	"Response_Selection"	"LEFT"	"LEFT"	271.851400000003	800.0000016	n/a	n/a	n/a	n/a	n/a	n/a	n/a	"2020-11-26 13:42:55.271714"	"2020-11-26 13:42:55.750914"	10	3.38308318333333
"S201126"	"Response_Selection"	"LEFT"	"LEFT"	298.449699999992	750.0000015	n/a	n/a	n/a	n/a	n/a	n/a	n/a	"2020-11-26 13:42:56.508859"	"2020-11-26 13:42:57.015795"	11	3.38308318333333
"S201126"	"Response_Selection"	"RIGHT"	"RIGHT"	299.401999999986	1300.0000026	n/a	n/a	n/a	n/a	n/a	n/a	n/a	"2020-11-26 13:42:58.323830"	"2020-11-26 13:42:58.831283"	12	3.38308318333333
"S201126"	"Response_Selection"	"RIGHT"	"RIGHT"	312.467599999991	1366.6666694	n/a	n/a	n/a	n/a	n/a	n/a	n/a	"2020-11-26 13:43:00.206653"	"2020-11-26 13:43:00.727783"	13	3.38308318333333
"S201126"	"Response_Selection"	"LEFT"	"LEFT"	427.204599999982	500.000001	n/a	n/a	n/a	n/a	n/a	n/a	n/a	"2020-11-26 13:43:01.236101"	"2020-11-26 13:43:01.871869"	14	3.38308318333333
"S201126"	"Response_Selection"	"LEFT"	"LEFT"	343.92600000001	783.3333349	n/a	n/a	n/a	n/a	n/a	n/a	n/a	"2020-11-26 13:43:02.663758"	"2020-11-26 13:43:03.215462"	15	3.38308318333333
"S201126"	"Response_Selection"	"RIGHT"	"RIGHT"	276.883300000009	866.6666684	n/a	n/a	n/a	n/a	n/a	n/a	n/a	"2020-11-26 13:43:04.090187"	"2020-11-26 13:43:04.575280"	16	3.38308318333333
"S201126"	"Response_Selection"	"LEFT"	"LEFT"	246.061999999995	1033.3333354	n/a	n/a	n/a	n/a	n/a	n/a	n/a	"2020-11-26 13:43:05.617899"	"2020-11-26 13:43:06.071516"	17	3.38308318333333
"S201126"	"Response_Selection"	"RIGHT"	"RIGHT"	313.830199999984	933.3333352	n/a	n/a	n/a	n/a	n/a	n/a	n/a	"2020-11-26 13:43:07.013794"	"2020-11-26 13:43:07.535308"	18	3.38308318333333
"S201126"	"Response_Selection"	"LEFT"	"LEFT"	263.6933	1200.0000024	n/a	n/a	n/a	n/a	n/a	n/a	n/a	"2020-11-26 13:43:08.743441"	"2020-11-26 13:43:09.215184"	19	3.38308318333333
"S201126"	"Response_Selection"	"LEFT"	"LEFT"	364.093800000035	700.0000014	n/a	n/a	n/a	n/a	n/a	n/a	n/a	"2020-11-26 13:43:09.923781"	"2020-11-26 13:43:10.495259"	20	3.38308318333333
"S201126"	"Response_Selection"	"LEFT"	"LEFT"	277.203499999985	1466.6666696	n/a	n/a	n/a	n/a	n/a	n/a	n/a	"2020-11-26 13:43:11.970114"	"2020-11-26 13:43:12.455210"	21	3.38308318333333
"S201126"	"Response_Selection"	"RIGHT"	"RIGHT"	327.853400000038	1200.0000024	n/a	n/a	n/a	n/a	n/a	n/a	n/a	"2020-11-26 13:43:13.663906"	"2020-11-26 13:43:14.199227"	22	3.38308318333333
"S201126"	"Response_Selection"	"RIGHT"	"RIGHT"	336.387800000011	983.3333353	n/a	n/a	n/a	n/a	n/a	n/a	n/a	"2020-11-26 13:43:15.191527"	"2020-11-26 13:43:15.735004"	23	3.38308318333333
"S201126"	"Response_Selection"	"RIGHT"	"RIGHT"	399.540099999967	1016.6666687	n/a	n/a	n/a	n/a	n/a	n/a	n/a	"2020-11-26 13:43:16.760449"	"2020-11-26 13:43:17.367492"	24	3.38308318333333
"S201126"	"Response_Selection"	"LEFT"	"LEFT"	307.959600000004	1500.000003	n/a	n/a	n/a	n/a	n/a	n/a	n/a	"2020-11-26 13:43:18.875776"	"2020-11-26 13:43:19.391395"	25	3.38308318333333
"S201126"	"Response_Selection"	"LEFT"	"LEFT"	311.08340000003	1016.6666687	n/a	n/a	n/a	n/a	n/a	n/a	n/a	"2020-11-26 13:43:20.416202"	"2020-11-26 13:43:20.935406"	26	3.38308318333333
"S201126"	"Response_Selection"	"LEFT"	"LEFT"	291.285100000039	1316.6666693	n/a	n/a	n/a	n/a	n/a	n/a	n/a	"2020-11-26 13:43:22.260076"	"2020-11-26 13:43:22.758159"	27	3.38308318333333
"S201126"	"Response_Selection"	"LEFT"	"LEFT"	451.057800000001	550.0000011	n/a	n/a	n/a	n/a	n/a	n/a	n/a	"2020-11-26 13:43:23.316653"	"2020-11-26 13:43:23.975462"	28	3.38308318333333
"S201126"	"Response_Selection"	"RIGHT"	"RIGHT"	415.249899999992	783.3333349	n/a	n/a	n/a	n/a	n/a	n/a	n/a	"2020-11-26 13:43:24.768585"	"2020-11-26 13:43:25.391546"	29	3.38308318333333
"S201126"	"Response_Selection"	"RIGHT"	"RIGHT"	361.808900000028	550.0000011	n/a	n/a	n/a	n/a	n/a	n/a	n/a	"2020-11-26 13:43:25.949456"	"2020-11-26 13:43:26.519226"	30	3.38308318333333
"S201126"	"Response_Selection"	"LEFT"	"LEFT"	262.037400000054	1450.0000029	n/a	n/a	n/a	n/a	n/a	n/a	n/a	"2020-11-26 13:43:27.977598"	"2020-11-26 13:43:28.447645"	31	3.38308318333333
"S201126"	"Response_Selection"	"LEFT"	"LEFT"	290.003800000022	933.3333352	n/a	n/a	n/a	n/a	n/a	n/a	n/a	"2020-11-26 13:43:29.389321"	"2020-11-26 13:43:29.887378"	32	3.38308318333333
"S201126"	"Response_Selection"	"LEFT"	"LEFT"	386.319000000015	533.3333344	n/a	n/a	n/a	n/a	n/a	n/a	n/a	"2020-11-26 13:43:30.429565"	"2020-11-26 13:43:31.023019"	33	3.38308318333333
"S201126"	"Response_Selection"	"RIGHT"	"RIGHT"	270.097799999974	1250.0000025	n/a	n/a	n/a	n/a	n/a	n/a	n/a	"2020-11-26 13:43:32.281481"	"2020-11-26 13:43:32.759737"	34	3.38308318333333
"S201126"	"Response_Selection"	"LEFT"	"LEFT"	227.07760000003	1116.6666689	n/a	n/a	n/a	n/a	n/a	n/a	n/a	"2020-11-26 13:43:33.884398"	"2020-11-26 13:43:34.319859"	35	3.38308318333333
"S201126"	"Response_Selection"	"RIGHT"	"RIGHT"	288.990500000011	1166.666669	n/a	n/a	n/a	n/a	n/a	n/a	n/a	"2020-11-26 13:43:35.494682"	"2020-11-26 13:43:35.991368"	36	3.38308318333333
"S201126"	"Response_Selection"	"RIGHT"	"RIGHT"	366.333800000007	833.333335	n/a	n/a	n/a	n/a	n/a	n/a	n/a	"2020-11-26 13:43:36.833441"	"2020-11-26 13:43:37.408472"	37	3.38308318333333
"S201126"	"Response_Selection"	"LEFT"	"LEFT"	247.742900000048	1366.6666694	n/a	n/a	n/a	n/a	n/a	n/a	n/a	"2020-11-26 13:43:38.783611"	"2020-11-26 13:43:39.239975"	38	3.38308318333333
"S201126"	"Response_Selection"	"RIGHT"	"LEFT"	301.008000000024	1450.0000029	n/a	n/a	n/a	n/a	n/a	n/a	n/a	"2020-11-26 13:43:40.698855"	"2020-11-26 13:43:41.207482"	39	3.38308318333333
"S201126"	"Response_Selection"	"RIGHT"	"RIGHT"	546.47650000004	733.3333348	n/a	n/a	n/a	n/a	n/a	n/a	n/a	"2020-11-26 13:43:41.948780"	"2020-11-26 13:43:42.703200"	40	3.38308318333333
"S201126"	"Response_Selection"	"RIGHT"	"RIGHT"	346.438200000023	1133.3333356	n/a	n/a	n/a	n/a	n/a	n/a	n/a	"2020-11-26 13:43:43.844970"	"2020-11-26 13:43:44.399159"	41	3.38308318333333
"S201126"	"Response_Selection"	"LEFT"	"LEFT"	305.985000000021	1350.0000027	n/a	n/a	n/a	n/a	n/a	n/a	n/a	"2020-11-26 13:43:45.757236"	"2020-11-26 13:43:46.271442"	42	3.38308318333333
"S201126"	"Response_Selection"	"RIGHT"	"RIGHT"	310.430999999994	1416.6666695	n/a	n/a	n/a	n/a	n/a	n/a	n/a	"2020-11-26 13:43:47.697384"	"2020-11-26 13:43:48.215990"	43	3.38308318333333
"S201126"	"Response_Selection"	"LEFT"	"LEFT"	318.459599999983	1400.0000028	n/a	n/a	n/a	n/a	n/a	n/a	n/a	"2020-11-26 13:43:49.625607"	"2020-11-26 13:43:50.151238"	44	3.38308318333333
"S201126"	"Response_Selection"	"LEFT"	"LEFT"	339.880799999946	1300.0000026	n/a	n/a	n/a	n/a	n/a	n/a	n/a	"2020-11-26 13:43:51.460061"	"2020-11-26 13:43:52.007465"	45	3.38308318333333
"S201126"	"Response_Selection"	"RIGHT"	"RIGHT"	340.202799999986	883.3333351	n/a	n/a	n/a	n/a	n/a	n/a	n/a	"2020-11-26 13:43:52.899283"	"2020-11-26 13:43:53.447395"	46	3.38308318333333
"S201126"	"Response_Selection"	"LEFT"	"LEFT"	324.29860000002	883.3333351	n/a	n/a	n/a	n/a	n/a	n/a	n/a	"2020-11-26 13:43:54.339604"	"2020-11-26 13:43:54.871626"	47	3.38308318333333
"S201126"	"Response_Selection"	"LEFT"	"LEFT"	316.128600000013	1083.3333355	n/a	n/a	n/a	n/a	n/a	n/a	n/a	"2020-11-26 13:43:55.963766"	"2020-11-26 13:43:56.487650"	48	3.38308318333333
"S201126"	"Response_Selection"	"LEFT"	"LEFT"	367.55850000003	600.0000012	n/a	n/a	n/a	n/a	n/a	n/a	n/a	"2020-11-26 13:43:57.095912"	"2020-11-26 13:43:57.671110"	49	3.38308318333333
"S201126"	"Response_Selection"	"RIGHT"	"RIGHT"	320.454600000005	583.3333345	n/a	n/a	n/a	n/a	n/a	n/a	n/a	"2020-11-26 13:43:58.263217"	"2020-11-26 13:43:58.791429"	50	3.38308318333333
"S201126"	"Response_Selection"	"RIGHT"	"RIGHT"	347.090799999989	683.3333347	n/a	n/a	n/a	n/a	n/a	n/a	n/a	"2020-11-26 13:43:59.484322"	"2020-11-26 13:44:00.039562"	51	3.38308318333333
"S201126"	"Response_Selection"	"LEFT"	"LEFT"	333.298000000013	633.3333346	n/a	n/a	n/a	n/a	n/a	n/a	n/a	"2020-11-26 13:44:00.682058"	"2020-11-26 13:44:01.222959"	52	3.38308318333333
"S201126"	"Response_Selection"	"RIGHT"	"RIGHT"	324.717200000009	1083.3333355	n/a	n/a	n/a	n/a	n/a	n/a	n/a	"2020-11-26 13:44:02.314428"	"2020-11-26 13:44:02.846971"	53	3.38308318333333
"S201126"	"Response_Selection"	"LEFT"	"LEFT"	299.521900000002	916.6666685	n/a	n/a	n/a	n/a	n/a	n/a	n/a	"2020-11-26 13:44:03.771754"	"2020-11-26 13:44:04.279045"	54	3.38308318333333
"S201126"	"Response_Selection"	"RIGHT"	"RIGHT"	331.389299999955	1316.6666693	n/a	n/a	n/a	n/a	n/a	n/a	n/a	"2020-11-26 13:44:05.603996"	"2020-11-26 13:44:06.143603"	55	3.38308318333333
"S201126"	"Response_Selection"	"RIGHT"	"RIGHT"	384.804099999997	966.6666686	n/a	n/a	n/a	n/a	n/a	n/a	n/a	"2020-11-26 13:44:07.118548"	"2020-11-26 13:44:07.711588"	56	3.38308318333333
"S201126"	"Response_Selection"	"RIGHT"	"RIGHT"	386.144400000035	533.3333344	n/a	n/a	n/a	n/a	n/a	n/a	n/a	"2020-11-26 13:44:08.253297"	"2020-11-26 13:44:08.846921"	57	3.38308318333333
"S201126"	"Response_Selection"	"RIGHT"	"RIGHT"	333.426699999961	1266.6666692	n/a	n/a	n/a	n/a	n/a	n/a	n/a	"2020-11-26 13:44:10.122515"	"2020-11-26 13:44:10.663403"	58	3.38308318333333
"S201126"	"Response_Selection"	"LEFT"	"LEFT"	346.090599999968	733.3333348	n/a	n/a	n/a	n/a	n/a	n/a	n/a	"2020-11-26 13:44:11.405450"	"2020-11-26 13:44:11.959689"	59	3.38308318333333
"S201126"	"Response_Selection"	"RIGHT"	"RIGHT"	333.823700000039	1033.3333354	n/a	n/a	n/a	n/a	n/a	n/a	n/a	"2020-11-26 13:44:13.001388"	"2020-11-26 13:44:13.542969"	60	3.38308318333333
"S201126"	"Response_Selection"	"LEFT"	"LEFT"	325.516900000025	866.6666684	n/a	n/a	n/a	n/a	n/a	n/a	n/a	"2020-11-26 13:44:14.417711"	"2020-11-26 13:44:14.950978"	61	3.38308318333333
"S201126"	"Response_Selection"	"LEFT"	"LEFT"	295.357700000011	1416.6666695	n/a	n/a	n/a	n/a	n/a	n/a	n/a	"2020-11-26 13:44:16.376543"	"2020-11-26 13:44:16.879642"	62	3.38308318333333
"S201126"	"Response_Selection"	"LEFT"	"LEFT"	375.866599999995	583.3333345	n/a	n/a	n/a	n/a	n/a	n/a	n/a	"2020-11-26 13:44:17.471848"	"2020-11-26 13:44:18.055401"	63	3.38308318333333
"S201126"	"Response_Selection"	"RIGHT"	"RIGHT"	284.047199999975	1466.6666696	n/a	n/a	n/a	n/a	n/a	n/a	n/a	"2020-11-26 13:44:19.531967"	"2020-11-26 13:44:20.023665"	64	3.38308318333333
"S201126"	"Response_Selection"	"LEFT"	"LEFT"	291.605199999992	683.3333347	n/a	n/a	n/a	n/a	n/a	n/a	n/a	"2020-11-26 13:44:20.716021"	"2020-11-26 13:44:21.215134"	65	3.38308318333333
"S201126"	"Response_Selection"	"RIGHT"	"RIGHT"	307.258100000013	1116.6666689	n/a	n/a	n/a	n/a	n/a	n/a	n/a	"2020-11-26 13:44:22.339938"	"2020-11-26 13:44:22.854975"	66	3.38308318333333
"S201126"	"Response_Selection"	"RIGHT"	"RIGHT"	309.492299999988	1066.6666688	n/a	n/a	n/a	n/a	n/a	n/a	n/a	"2020-11-26 13:44:23.930241"	"2020-11-26 13:44:24.447460"	67	3.38308318333333
"S201126"	"Response_Selection"	"RIGHT"	"RIGHT"	271.810700000003	800.0000016	n/a	n/a	n/a	n/a	n/a	n/a	n/a	"2020-11-26 13:44:25.255954"	"2020-11-26 13:44:25.735161"	68	3.38308318333333
"S201126"	"Response_Selection"	"RIGHT"	"RIGHT"	323.982199999989	1500.000003	n/a	n/a	n/a	n/a	n/a	n/a	n/a	"2020-11-26 13:44:27.243484"	"2020-11-26 13:44:27.775147"	69	3.38308318333333
"S201126"	"Response_Selection"	"LEFT"	"LEFT"	328.591000000017	983.3333353	n/a	n/a	n/a	n/a	n/a	n/a	n/a	"2020-11-26 13:44:28.767037"	"2020-11-26 13:44:29.302988"	70	3.38308318333333
"S201126"	"Response_Selection"	"RIGHT"	"RIGHT"	305.951199999981	1350.0000027	n/a	n/a	n/a	n/a	n/a	n/a	n/a	"2020-11-26 13:44:30.661616"	"2020-11-26 13:44:31.175223"	71	3.38308318333333
"S201126"	"Response_Selection"	"RIGHT"	"RIGHT"	460.098599999981	700.0000014	n/a	n/a	n/a	n/a	n/a	n/a	n/a	"2020-11-26 13:44:31.883016"	"2020-11-26 13:44:32.551296"	72	3.38308318333333
"S201126"	"Response_Selection"	"RIGHT"	"RIGHT"	297.902399999998	750.0000015	n/a	n/a	n/a	n/a	n/a	n/a	n/a	"2020-11-26 13:44:33.309998"	"2020-11-26 13:44:33.815162"	73	3.38308318333333
"S201126"	"Response_Selection"	"RIGHT"	"RIGHT"	300.212700000031	500.000001	n/a	n/a	n/a	n/a	n/a	n/a	n/a	"2020-11-26 13:44:34.322811"	"2020-11-26 13:44:34.831423"	74	3.38308318333333
"S201126"	"Response_Selection"	"RIGHT"	"RIGHT"	303.778299999976	1400.0000028	n/a	n/a	n/a	n/a	n/a	n/a	n/a	"2020-11-26 13:44:36.239621"	"2020-11-26 13:44:36.751189"	75	3.38308318333333
"S201126"	"Response_Selection"	"LEFT"	"LEFT"	352.980000000002	966.6666686	n/a	n/a	n/a	n/a	n/a	n/a	n/a	"2020-11-26 13:44:37.726734"	"2020-11-26 13:44:38.287821"	76	3.38308318333333
"S201126"	"Response_Selection"	"RIGHT"	"RIGHT"	388.981999999999	650.0000013	n/a	n/a	n/a	n/a	n/a	n/a	n/a	"2020-11-26 13:44:38.946614"	"2020-11-26 13:44:39.543559"	77	3.38308318333333
"S201126"	"Response_Selection"	"LEFT"	"LEFT"	358.253599999955	833.333335	n/a	n/a	n/a	n/a	n/a	n/a	n/a	"2020-11-26 13:44:40.384874"	"2020-11-26 13:44:40.951279"	78	3.38308318333333
"S201126"	"Response_Selection"	"LEFT"	"LEFT"	316.97650000001	1266.6666692	n/a	n/a	n/a	n/a	n/a	n/a	n/a	"2020-11-26 13:44:42.226650"	"2020-11-26 13:44:42.751005"	79	3.38308318333333
"S201126"	"Response_Selection"	"LEFT"	"LEFT"	333.849900000018	1250.0000025	n/a	n/a	n/a	n/a	n/a	n/a	n/a	"2020-11-26 13:44:44.009948"	"2020-11-26 13:44:44.551517"	80	3.38308318333333
