index	Trial_Type	Participant_ID	Trial_Probability	Question_Position_Prediction_Correct	Question_Position_Prediction_Agent	Question_Position_Comparison_Self	Question_Position_Comparison_Irrelevant	Trial_Stake	Trial_Stake_Jitter	Trial_Type_Jitter	Trial_Result_Jitter	Balance_Update_Jitter	Question_Comparison_Condition	Question_Comparison_Type	Question_Comparison_Question	Question_Comparison_Label	Question_Comparison_Item	Question_Comparison_Proportion_Yes	Question_Factual_Condition	Question_Factual_Item	Question_Factual_Question	Question_Factual_Label	Question_Factual_Proportion_DontKnow	Question_Factual_Type	Answer_Prediction_Correct	Answer_Prediction_Correct_RT	Answer_Prediction_Agent	Answer_Prediction_Agent_RT	Answer_Self	Answer_Self_RT	Answer_Irrelevant	Answer_Irrelevant_RT	Trial_Balance	Trial_Balance_Effect	Trial_Condition	Trial_ProbableSide	Prediction_Choice	Prediction_Result	Prediction_RT	Trial_Order	Trial_Datetime
34	Self	S200310	0.8333333333333334	1	2	1	2	0.3	1216.6666691	1216.6666691	1500.000003	1933.3333372	Minor	Wrong_doings	49	You have watched a pirated movie	C2_8	1.0	Hard	I2_39	39	There are 9 rings in the Olympic flag	0.0555555555555556	No	RIGHT	885.7090999999855	RIGHT	688.8991000000146	LEFT	1286.320499999988	LEFT	2215.766900000005	10.3	0.3	Probable_Lie	RIGHT	RIGHT	1	983.6162999999942	0	2020-03-10 14:00:48.241766
44	Self	S200310	0.8333333333333334	2	1	2	1	0.1	1433.3333362	1283.3333359	1500.000003	2066.6666708	Minor	Good_deeds	36	You have engaged in drink-driving	C2_30	0.0	Easy	I2_35	6	R. Amundsen discovered the South Pole	0.888888888888889	Yes	RIGHT	686.9106000000329	RIGHT	852.5849000000107	LEFT	1159.753300000034	RIGHT	3846.329400000002	10.4	0.1	Probable_Truth	RIGHT	RIGHT	3	867.0913999999925	1	2020-03-10 14:01:14.516578
4	Self	S200310	0.5	1	2	2	1	0.6	1150.0000023	1500.000003	2216.6666711000003	2216.6666711000003	Minor	Good_deeds	13	You have said thank you when you have received help	C2_53	1.0	Easy	I1_29	52	Acoustic Kitty refers to cat with implants	0.666666666666667	No	RIGHT	1279.7266000000036	LEFT	1696.3106999999695	RIGHT	640.758500000004	Time_Max_Exceeded	5000.354600000037	10.4	0.6	Probable_Lie	RIGHT	LEFT	5	2410.5633000000357	2	2020-03-10 14:01:45.201730
28	Self	S200310	0.6666666666666666	2	1	2	1	0.3	1000.000002	1283.3333359	1650.0000033	2216.6666711000003	Minor	Wrong_doings	52	You have risked your life to save another person's life	C1_8	0.85	Easy	I1_14	46	Arabi is the oldest surviving breed of horse	0.888888888888889	No	LEFT	623.9455000000476	LEFT	1119.8467000000392	RIGHT	1143.2492000000138	RIGHT	2952.560099999971	10.4	0.3	Probable_Lie	LEFT	LEFT	5	741.3563000000067	3	2020-03-10 14:02:10.506174
16	Self	S200310	0.6666666666666666	1	2	1	2	0.7	1500.000003	1000.000002	1933.3333372	2216.6666711000003	Major	Good_deeds	43	You have rescued others from a catastrophe	C1_29	0.7	Hard	I2_28	30	Airbags in cars are filled with sodium azide	0.0	Yes	RIGHT	731.5947000000165	RIGHT	520.6536000000028	RIGHT	2145.88950000001	RIGHT	3247.581700000012	11.1	0.7	Probable_Truth	RIGHT	RIGHT	6	1043.469000000016	4	2020-03-10 14:02:37.418180
74	Self	S200310	0.6666666666666666	2	1	1	2	0.5	1000.000002	1150.0000023	1783.3333369	2350.0000047	Minor	Good_deeds	48	You have kept your promises	C2_19	0.0	Hard	I2_26	26	The first Grammy awards was held in 1959	0.777777777777778	Yes	RIGHT	847.9738999999427	RIGHT	1362.9413000000454	RIGHT	1516.357599999992	RIGHT	2967.2157999999627	11.6	0.5	Probable_Lie	RIGHT	RIGHT	2	802.8869999999984	5	2020-03-10 14:03:03.771493
62	Self	S200310	0.5	2	1	2	1	0.1	1500.000003	1500.000003	2066.6666708	1783.3333369	Minor	Good_deeds	40	You have adopted a zero-waste lifestyle	C2_42	0.0	Easy	I1_11	21	Animals are living things	0.0	Yes	LEFT	1103.644700000018	RIGHT	1002.7009000000362	RIGHT	966.2104000000228	RIGHT	1243.0428999999776	11.5	0.1	Probable_Lie	LEFT	LEFT	4	798.7239000000272	6	2020-03-10 14:03:28.329639
63	Self	S200310	0.5	2	1	2	1	0.5	1150.0000023	1350.0000027	1783.3333369	2350.0000047	Major	Wrong_doings	22	You have started an NGO using your savings	C2_11	1.0	Hard	I1_44	42	There are 20 bones in the human skull	0.0	No	LEFT	679.2173999999704	LEFT	968.353900000011	RIGHT	1422.9771999999912	RIGHT	2091.608799999904	11.5	0.5	Probable_Lie	LEFT	RIGHT	2	839.7572000000082	7	2020-03-10 14:03:53.546515
91	Self	S200310	0.8333333333333334	2	1	1	2	0.8	1000.000002	1066.6666688	1650.0000033	2500.000005	Major	Wrong_doings	58	You have bribed a police officer	C2_1	0.1	Easy	I1_25	47	North Korea is more developed than South Korea	0.0555555555555556	Yes	RIGHT	592.2791000000416	RIGHT	760.1476000000957	LEFT	1732.6445999999578	LEFT	1550.1623000000109	12.3	0.8	Probable_Truth	RIGHT	RIGHT	5	906.6838999999618	8	2020-03-10 14:04:17.882247
102	Computer	S200310	0.5	1	2	2	1	0.5	1350.0000027	1500.000003	1500.000003	1783.3333369	Major	Good_deeds	27	You have made someone cry	C1_13	0.95	Hard	I1_27	16	Milwaukee Art Museum is located in California	0.722222222222222	Yes	RIGHT	861.2755000000334	RIGHT	639.4275999999763	LEFT	1567.5036999999747	LEFT	2346.598399999948	12.8	0.5	Probable_Truth	LEFT	LEFT	1	610.1902763980631	9	2020-03-10 14:04:42.618011
29	Self	S200310	0.6666666666666666	2	1	2	1	0.6	1433.3333362	1433.3333362	2500.000005	1500.000003	Minor	Wrong_doings	8	You have used heroin	C2_23	0.05	Easy	I1_46	14	The first Olympic Games was held in the 5th century B.C	0.0	No	RIGHT	600.8289000000104	RIGHT	700.8617999999842	LEFT	840.2780000000121	RIGHT	2205.10969999998	13.4	0.6	Probable_Lie	RIGHT	RIGHT	2	744.1796000000522	10	2020-03-10 14:05:07.146111
133	Computer	S200310	0.8333333333333334	1	2	2	1	0.1	1066.6666688	1433.3333362	2350.0000047	1783.3333369	Major	Good_deeds	26	You have stopped using plastics completely	C1_35	0.0	Easy	I2_33	54	Statute of Liberty is in New York	0.0555555555555556	No	LEFT	875.2168000000893	RIGHT	712.1934000000465	RIGHT	1295.628800000031	RIGHT	2458.792399999993	13.3	0.1	Probable_Lie	LEFT	LEFT	6	995.3310044240424	11	2020-03-10 14:05:32.690469
32	Self	S200310	0.8333333333333334	1	2	1	2	0.2	1000.000002	1000.000002	1650.0000033	1500.000003	Major	Wrong_doings	8	You have returned your trays in food courts	C2_26	1.0	Hard	I1_58	24	Astatine is the rarest element in the Earth's crust	0.777777777777778	Yes	RIGHT	862.518199999954	RIGHT	719.9107999999796	RIGHT	1428.1334999999444	RIGHT	4752.088399999934	13.5	0.2	Probable_Lie	RIGHT	RIGHT	1	655.7573999999704	12	2020-03-10 14:05:58.834475
116	Computer	S200310	0.6666666666666666	1	2	2	1	0.8	1283.3333359	1350.0000027	2066.6666708	2500.000005	Minor	Good_deeds	37	You have organized a violent protest	C2_18	0.0	Easy	I1_12	12	It is 20th Century now	0.0	No	LEFT	1757.5912000000926	LEFT	1119.46039999998	LEFT	1128.3268999999336	LEFT	1909.8249999999557	13.5	0.8	Probable_Lie	LEFT	RIGHT	2	855.5519581816914	13	2020-03-10 14:06:25.369710
19	Self	S200310	0.6666666666666666	1	2	1	2	0.3	1350.0000027	1216.6666691	1650.0000033	1933.3333372	Major	Wrong_doings	18	You have helped your parents when asked to	C1_4	0.05	Hard	I2_1	36	Marijuana is legal in Singapore	0.833333333333333	Yes	RIGHT	760.1908999999978	RIGHT	558.4380000000237	RIGHT	2235.5733000000555	LEFT	1335.673899999961	13.8	0.3	Probable_Truth	LEFT	LEFT	2	737.8021000000672	14	2020-03-10 14:06:49.721244
119	Computer	S200310	0.6666666666666666	1	2	2	1	0.4	1500.000003	1500.000003	1783.3333369	1933.3333372	Minor	Wrong_doings	4	You have been convicted in court	C1_53	0.0	Hard	I2_30	42	"Statue of Liberty is 151 feet tall"	0.0	No	RIGHT	879.9751000000242	RIGHT	543.445399999996	LEFT	808.8019000000486	RIGHT	2851.355099999978	14.2	0.4	Probable_Lie	LEFT	RIGHT	2	758.2267777139098	15	2020-03-10 14:07:14.842532
135	Computer	S200310	0.8333333333333334	1	2	2	1	0.3	1350.0000027	1216.6666691	1933.3333372	2066.6666708	Minor	Good_deeds	24	You have used a fake name online	C1_24	0.45	Easy	I2_48	48	The current century is 21st	0.611111111111111	Yes	RIGHT	926.1698999999908	LEFT	640.2631999999358	LEFT	1359.9722000000156	RIGHT	1485.005699999988	14.2	0.3	Probable_Truth	LEFT	LEFT	1	545.1427939372171	16	2020-03-10 14:07:38.946323
3	Self	S200310	0.5	1	2	1	2	0.7	1000.000002	1433.3333362	1500.000003	2066.6666708	Major	Good_deeds	53	You have told someone's secret to others	C1_34	0.1	Easy	I1_39	56	There are 10 continents in the World	0.111111111111111	No	RIGHT	572.9127999999264	RIGHT	616.557099999909	LEFT	1548.5856999999896	RIGHT	2784.017800000015	14.9	0.7	Probable_Truth	LEFT	RIGHT	4	2770.871199999988	17	2020-03-10 14:08:05.818474
61	Self	S200310	0.5	2	1	2	1	0.8	1433.3333362	1216.6666691	2350.0000047	2500.000005	Major	Wrong_doings	28	You have cheated on a test	C2_50	0.85	Hard	I2_42	17	Last day of the year is 30th December	0.0	No	RIGHT	552.34710000002	RIGHT	763.071200000013	LEFT	1095.944500000087	LEFT	2182.4518000000808	15.7	0.8	Probable_Truth	LEFT	LEFT	2	979.5460999999932	18	2020-03-10 14:08:31.464633
37	Self	S200310	0.8333333333333334	1	2	2	1	0.8	1150.0000023	1500.000003	2066.6666708	1783.3333369	Major	Good_deeds	26	You have stopped using plastics completely	C1_35	0.0	Easy	I2_33	54	Statute of Liberty is in New York	0.0555555555555556	No	RIGHT	461.6290000000163	RIGHT	823.1245000000627	RIGHT	879.1231000000153	RIGHT	1281.2228999999888	16.5	0.8	Probable_Truth	RIGHT	RIGHT	4	933.192100000042	19	2020-03-10 14:08:54.921874
80	Self	S200310	0.8333333333333334	1	2	1	2	0.7	1500.000003	1216.6666691	2350.0000047	2350.0000047	Minor	Wrong_doings	48	You have offered a listening ear to a friend	C2_24	0.05	Hard	I2_18	37	Today is Sunday	0.611111111111111	Yes	RIGHT	508.1291000000192	RIGHT	495.3183000000081	RIGHT	1107.814200000007	LEFT	1471.9261000000188	17.2	0.7	Probable_Truth	RIGHT	RIGHT	6	785.1643999999851	20	2020-03-10 14:09:19.282498
139	Computer	S200310	0.8333333333333334	2	1	1	2	0.5	1500.000003	1433.3333362	2066.6666708	1650.0000033	Major	Wrong_doings	57	You have fabricated facts about yourself	C1_57	0.05	Easy	I1_6	41	Singapore has four seasons	0.888888888888889	Yes	RIGHT	577.2703000000092	RIGHT	574.0589999999202	LEFT	1287.4067999999852	LEFT	1512.4964999999977	17.7	0.5	Probable_Truth	LEFT	LEFT	1	932.105149746032	21	2020-03-10 14:09:43.385978
85	Self	S200310	0.8333333333333334	1	2	2	1	0.5	1283.3333359	1350.0000027	2500.000005	1500.000003	Major	Wrong_doings	19	You have kidnapped someone	C1_47	0.95	Easy	I1_37	36	It is night time now	0.0	Yes	RIGHT	470.2758999999333	RIGHT	487.2970000000123	LEFT	840.9235999999964	LEFT	2103.850599999987	18.2	0.5	Probable_Truth	LEFT	LEFT	1	599.6441000000914	22	2020-03-10 14:10:07.089993
27	Self	S200310	0.6666666666666666	2	1	1	2	0.8	1283.3333359	1000.000002	1500.000003	2066.6666708	Major	Good_deeds	23	You have bought cocaine	C1_44	0.0	Hard	I2_53	13	The Moon orbits around the Earth	0.888888888888889	Yes	LEFT	848.0266999999913	RIGHT	821.5873000000329	LEFT	950.044200000093	RIGHT	2112.8385000000662	17.4	0.8	Probable_Lie	RIGHT	RIGHT	1	855.7881000000407	23	2020-03-10 14:10:31.106603
123	Computer	S200310	0.6666666666666666	2	1	1	2	0.6	1433.3333362	1350.0000027	1783.3333369	1500.000003	Major	Good_deeds	23	You have bought cocaine	C1_44	0.0	Hard	I2_53	13	The Moon orbits around the Earth	0.888888888888889	Yes	LEFT	462.473300000056	LEFT	840.3571999999713	LEFT	871.8046000000186	RIGHT	1992.466700000023	17.4	0.6	Probable_Lie	LEFT	RIGHT	2	757.4373535894642	24	2020-03-10 14:10:54.657929
39	Self	S200310	0.8333333333333334	1	2	2	1	0.7	1433.3333362	1433.3333362	1783.3333369	2350.0000047	Minor	Good_deeds	24	You have used a fake name online	C1_24	0.45	Easy	I2_48	48	The current century is 21st	0.611111111111111	Yes	RIGHT	778.3805999999913	RIGHT	807.478099999912	LEFT	862.6048999999512	RIGHT	780.5998999999701	18.1	0.7	Probable_Truth	RIGHT	RIGHT	4	882.2803000000476	25	2020-03-10 14:11:18.354082
101	Computer	S200310	0.5	1	2	2	1	0.6	1216.6666691	1433.3333362	1650.0000033	2066.6666708	Major	Wrong_doings	34	You have signed up as a bone marrow donor	C1_7	0.05	Hard	I1_35	35	Earth's atmosphere extends up to 10,000km into space	0.833333333333333	Yes	LEFT	567.1413999998549	LEFT	431.9217999998273	RIGHT	1326.5430999999808	LEFT	3423.539399999981	18.1	0.6	Probable_Lie	LEFT	LEFT	4	898.1424075940441	26	2020-03-10 14:11:43.962229
81	Self	S200310	0.8333333333333334	1	2	1	2	0.4	1350.0000027	1500.000003	1650.0000033	2066.6666708	Major	Wrong_doings	6	You have gossiped about your best friend	C1_6	0.0	Easy	I2_40	18	Hot chocolate was created by the Mayan culture	0.888888888888889	No	RIGHT	594.7496000001138	RIGHT	590.930999999955	LEFT	1112.1286000000057	RIGHT	1839.484999999968	18.5	0.4	Probable_Truth	RIGHT	RIGHT	2	772.5591999999324	27	2020-03-10 14:12:08.034118
129	Computer	S200310	0.8333333333333334	1	2	1	2	0.8	1216.6666691	1350.0000027	1500.000003	1933.3333372	Minor	Wrong_doings	20	You have bought cigarettes for a minor	C2_31	0.05	Hard	I2_60	58	The Amazon forest covers an area of 1 billion acres	0.0	Yes	RIGHT	652.7372999998988	RIGHT	479.9577000001136	LEFT	1571.7553999998015	RIGHT	3447.7524999999787	19.3	0.8	Probable_Truth	RIGHT	LEFT	1	614.402499062847	28	2020-03-10 14:12:33.377962
17	Self	S200310	0.6666666666666666	1	2	1	2	0.8	1066.6666688	1150.0000023	2350.0000047	1650.0000033	Major	Good_deeds	3	You have deceived a loved one	C2_3	0.0	Hard	I1_42	28	Beef comes from cows	0.0	No	RIGHT	474.7841999999309	RIGHT	440.52419999979975	LEFT	1102.3113999999623	RIGHT	1384.187600000132	20.1	0.8	Probable_Truth	RIGHT	RIGHT	3	731.9291999999678	29	2020-03-10 14:12:56.305259
12	Self	S200310	0.5	2	1	2	1	0.1	1283.3333359	1066.6666688	1650.0000033	1783.3333369	Major	Good_deeds	33	You have assisted in a crime	C1_5	0.0	Easy	I2_24	27	The Seine river is 50 feet above sea level	0.0	No	RIGHT	544.0442999999959	RIGHT	525.8011999999326	LEFT	976.2713999998596	RIGHT	3131.016399999908	20.2	0.1	Probable_Truth	RIGHT	LEFT	1	885.0698000001103	30	2020-03-10 14:13:20.722547
18	Self	S200310	0.6666666666666666	1	2	1	2	0.5	1150.0000023	1500.000003	2500.000005	2500.000005	Major	Good_deeds	29	You have downloaded pirated movies	C1_43	1.0	Easy	I1_26	1	Some owl species hunt fish	0.944444444444444	No	LEFT	861.5545999998631	LEFT	439.91249999999127	LEFT	1069.3604000000505	RIGHT	2399.8377000000346	20.2	0.5	Probable_Lie	LEFT	LEFT	5	1293.4468000000834	31	2020-03-10 14:13:47.010557
42	Self	S200310	0.8333333333333334	2	1	1	2	0.5	1216.6666691	1150.0000023	1933.3333372	2216.6666711000003	Minor	Wrong_doings	60	You have a non-judgmental attitude towards everyone	C2_60	1.0	Hard	I1_38	11	A triangle has three sides	0.722222222222222	No	LEFT	656.4025000000129	RIGHT	1204.1360999999142	RIGHT	2063.1248999998206	RIGHT	920.0538000000053	19.7	0.5	Probable_Lie	LEFT	LEFT	6	766.7189000001144	32	2020-03-10 14:14:11.714485
31	Self	S200310	0.6666666666666666	2	1	2	1	0.5	1150.0000023	1216.6666691	2350.0000047	1783.3333369	Major	Good_deeds	38	You have sheltered others from disasters	C2_52	0.0	Hard	I2_41	31	Slavery was abolished in Cuba in 1886	0.0	No	RIGHT	449.4902000001275	RIGHT	610.7782999999927	RIGHT	1552.1908000000622	LEFT	2800.793399999975	20.2	0.5	Probable_Truth	LEFT	LEFT	1	1076.3196000000337	33	2020-03-10 14:14:37.282395
13	Self	S200310	0.5	2	1	2	1	0.3	1216.6666691	1150.0000023	1500.000003	2066.6666708	Major	Good_deeds	25	You have started a movement to support a cause	C1_33	0.85	Hard	I2_27	60	A caterpillar has more muscle than a human	0.722222222222222	Yes	RIGHT	391.1157000000003	RIGHT	924.9968000001444	RIGHT	1007.7552999998716	LEFT	1941.5853000000425	20.5	0.3	Probable_Truth	LEFT	RIGHT	5	1038.8918000001013	34	2020-03-10 14:15:01.097959
59	Self	S200310	0.5	2	1	1	2	0.3	1216.6666691	1283.3333359	2500.000005	2216.6666711000003	Minor	Good_deeds	46	You have cursed at others	C1_46	0.0	Easy	I2_44	44	A square has 3 corners	0.833333333333333	Yes	RIGHT	359.05049999996663	RIGHT	701.727099999971	LEFT	1502.1303000000898	LEFT	1688.4995000000345	20.8	0.3	Probable_Truth	LEFT	LEFT	3	806.9758999999976	35	2020-03-10 14:15:25.944994
40	Self	S200310	0.8333333333333334	2	1	1	2	0.6	1283.3333359	1216.6666691	2216.6666711000003	1933.3333372	Major	Good_deeds	23	You have donated a pay cheque to charity	C1_23	0.25	Easy	I2_11	35	Lehman Brothers went bankrupt on 20th September	0.0	No	RIGHT	297.04900000001544	RIGHT	1735.628499999848	RIGHT	1515.471899999966	RIGHT	3760.7672000001457	21.4	0.6	Probable_Truth	LEFT	LEFT	1	883.6651999999958	36	2020-03-10 14:15:53.361338
20	Self	S200310	0.6666666666666666	1	2	2	1	0.4	1283.3333359	1066.6666688	1500.000003	1783.3333369	Minor	Good_deeds	37	You have organized a violent protest	C2_18	0.0	Easy	I1_12	12	It is 20th Century now	0.0	No	RIGHT	668.653200000108	LEFT	568.6682000000474	LEFT	1254.8927000000276	LEFT	1852.4130000000696	21.4	0.4	Probable_Truth	RIGHT	RIGHT	4	716.4883000000373	37	2020-03-10 14:16:16.625334
78	Self	S200310	0.6666666666666666	2	1	2	1	0.8	1216.6666691	1000.000002	2066.6666708	1933.3333372	Major	Wrong_doings	58	You have lost everything just to help others	C2_9	0.0	Easy	I1_9	5	The sun rises at night	0.0	No	RIGHT	728.4419000000071	RIGHT	717.7550999999767	RIGHT	1991.077199999836	LEFT	1541.9103000001542	22.200000000000003	0.8	Probable_Lie	RIGHT	RIGHT	1	924.9116999999388	38	2020-03-10 14:16:41.320933
131	Computer	S200310	0.8333333333333334	1	2	1	2	0.6	1500.000003	1000.000002	1650.0000033	2500.000005	Major	Good_deeds	35	You have illegally stayed in a country	C2_59	1.0	Easy	I1_24	60	Fibers in oranges can be used to make fabric	0.0	No	LEFT	855.920499999911	LEFT	769.3077999999787	LEFT	1255.7262000000264	RIGHT	1783.7873999999374	22.200000000000003	0.6	Probable_Lie	RIGHT	LEFT	4	766.8039921133898	39	2020-03-10 14:17:05.968880
142	Computer	S200310	0.8333333333333334	2	1	2	1	0.6	1150.0000023	1066.6666688	1783.3333369	2066.6666708	Minor	Good_deeds	31	You have given up your seat in the MRT	C1_31	0.75	Hard	I1_15	15	There are 6 million animal species on Earth	0.0	Yes	RIGHT	407.4474999999893	RIGHT	617.0786000000135	RIGHT	968.5429999999542	RIGHT	2991.9416000000183	22.800000000000004	0.6	Probable_Lie	RIGHT	LEFT	6	827.97705391716	40	2020-03-10 14:17:30.425852
130	Computer	S200310	0.8333333333333334	1	2	1	2	0.5	1150.0000023	1150.0000023	1783.3333369	1500.000003	Minor	Wrong_doings	49	You have watched a pirated movie	C2_8	1.0	Hard	I2_39	39	There are 9 rings in the Olympic flag	0.0555555555555556	No	LEFT	710.5289000000994	LEFT	744.4273999999496	RIGHT	1502.1553000001404	LEFT	2118.918299999905	22.800000000000004	0.5	Probable_Lie	LEFT	RIGHT	1	656.5935050408841	41	2020-03-10 14:17:54.304885
11	Self	S200310	0.5	2	1	1	2	0.2	1350.0000027	1500.000003	2066.6666708	2500.000005	Minor	Good_deeds	39	You have shown your appreciation to your teachers	C2_25	0.0	Easy	I1_60	43	The Franco-Prussian War occurred in the 19th century	0.944444444444444	No	RIGHT	384.5313000001625	RIGHT	710.3256000000329	RIGHT	1359.1065000000526	RIGHT	3519.99950000004	23.000000000000004	0.2	Probable_Truth	RIGHT	LEFT	2	1047.5920999999744	42	2020-03-10 14:18:21.312823
41	Self	S200310	0.8333333333333334	2	1	1	2	0.4	1000.000002	1000.000002	2350.0000047	2500.000005	Major	Wrong_doings	13	You have queued to enter the MRT train	C2_36	0.95	Hard	I2_43	43	Cleopatra was born in Greece	0.0	Yes	RIGHT	375.7425999999669	RIGHT	508.2933999999568	RIGHT	1779.8537999999553	LEFT	1736.5070000000742	23.4	0.4	Probable_Truth	RIGHT	RIGHT	4	1328.0439000000115	43	2020-03-10 14:18:46.466215
127	Computer	S200310	0.6666666666666666	2	1	2	1	0.4	1350.0000027	1283.3333359	2500.000005	2350.0000047	Major	Good_deeds	38	You have sheltered others from disasters	C2_52	0.0	Hard	I2_41	31	Slavery was abolished in Cuba in 1886	0.0	No	RIGHT	607.5051000000258	LEFT	776.0934000000361	RIGHT	1142.346699999962	LEFT	1443.7371999999868	23.4	0.4	Probable_Lie	LEFT	RIGHT	2	538.7396908604205	44	2020-03-10 14:19:11.025321
68	Self	S200310	0.6666666666666666	1	2	2	1	0.7	1066.6666688	1066.6666688	1500.000003	2216.6666711000003	Minor	Wrong_doings	42	You have provided shelter for stray animals	C1_39	1.0	Hard	I1_19	53	It takes 112 years to build the Pisa Tower	1.0	No	RIGHT	932.9675999999836	RIGHT	872.34669999998	RIGHT	1078.3188000000337	Time_Max_Exceeded	5000.970100000131	24.1	0.7	Probable_Lie	RIGHT	RIGHT	2	881.4006000000063	45	2020-03-10 14:19:38.224623
107	Computer	S200310	0.5	2	1	1	2	0.3	1000.000002	1283.3333359	1500.000003	2500.000005	Minor	Good_deeds	39	You have shown your appreciation to your teachers	C2_25	0.0	Easy	I1_60	43	The Franco-Prussian War occurred in the 19th century	0.944444444444444	No	LEFT	512.1924000000035	LEFT	785.0569999998243	RIGHT	854.1294999999991	RIGHT	1919.6150000000216	24.1	0.3	Probable_Lie	RIGHT	RIGHT	3	920.8724645093016	46	2020-03-10 14:20:02.073508
57	Self	S200310	0.5	2	1	1	2	0.6	1000.000002	1150.0000023	2216.6666711000003	1500.000003	Minor	Good_deeds	6	You have taken part in burglary	C1_22	0.0	Easy	I1_40	11	There is typically 0.6 grams of mercury in glass thermometer	0.944444444444444	No	LEFT	679.3457999999646	RIGHT	920.6967000000076	LEFT	1204.5614000001024	RIGHT	3488.260099999934	23.5	0.6	Probable_Lie	RIGHT	LEFT	4	1335.1356000000578	47	2020-03-10 14:20:28.145590
87	Self	S200310	0.8333333333333334	1	2	2	1	0.2	1433.3333362	1283.3333359	2216.6666711000003	2216.6666711000003	Major	Good_deeds	40	You have been restricting your electricity consumption	C1_19	0.0	Hard	I1_1	33	The Earth is round	0.666666666666667	Yes	RIGHT	720.5791000001227	RIGHT	568.9328000000842	RIGHT	959.730400000126	RIGHT	1080.1621999999045	23.7	0.2	Probable_Lie	LEFT	LEFT	4	714.9021000000175	48	2020-03-10 14:22:30.201367
99	Computer	S200310	0.5	1	2	1	2	0.4	1433.3333362	1066.6666688	2216.6666711000003	1933.3333372	Major	Good_deeds	53	You have told someone's secret to others	C1_34	0.1	Easy	I1_39	56	There are 10 continents in the World	0.111111111111111	No	RIGHT	2258.214700000053	LEFT	2998.7032999999883	LEFT	1397.0474000000197	LEFT	1920.4822000001516	23.7	0.4	Probable_Truth	RIGHT	RIGHT	4	715.0541947882257	49	2020-03-10 14:22:58.712968
72	Self	S200310	0.6666666666666666	2	1	1	2	0.6	1066.6666688	1500.000003	1650.0000033	1650.0000033	Major	Good_deeds	30	You have drunk alcohol when you were underage	C1_58	0.9	Easy	I1_57	9	The hardest bone in human body is the jawbone	0.611111111111111	Yes	RIGHT	735.8071999999538	RIGHT	575.5435999999463	LEFT	1111.650999999938	RIGHT	2878.225799999882	24.3	0.6	Probable_Lie	LEFT	LEFT	4	936.4947999999912	50	2020-03-10 14:23:23.393684
140	Computer	S200310	0.8333333333333334	2	1	2	1	0.2	1433.3333362	1283.3333359	2216.6666711000003	1783.3333369	Minor	Good_deeds	36	You have engaged in drink-driving	C2_30	0.0	Easy	I2_35	6	R. Amundsen discovered the South Pole	0.888888888888889	Yes	LEFT	416.2739999999303	LEFT	781.4253999999892	LEFT	935.2566000000024	RIGHT	2819.764899999882	24.3	0.2	Probable_Lie	LEFT	RIGHT	1	548.0885924257947	51	2020-03-10 14:23:48.187494
49	Self	S200310	0.5	1	2	1	2	0.2	1433.3333362	1350.0000027	1933.3333372	2350.0000047	Major	Wrong_doings	56	You have coveted things that belong to others	C1_9	0.95	Easy	I2_4	45	Feijoa is a type of grape	0.0	Yes	LEFT	789.8047999999562	RIGHT	678.6442000000079	LEFT	1084.8576000000776	RIGHT	2999.9173999999584	24.1	0.2	Probable_Lie	RIGHT	LEFT	4	873.8519000000906	52	2020-03-10 14:24:14.258543
54	Self	S200310	0.5	1	2	2	1	0.6	1150.0000023	1150.0000023	2066.6666708	2216.6666711000003	Major	Good_deeds	38	You have taken part in violent demonstration	C2_38	0.1	Hard	I2_50	4	Mageirocophobia is a fear of deathly disease	0.777777777777778	No	LEFT	868.7239000000773	RIGHT	825.1898000000892	LEFT	1040.3772999998182	RIGHT	3072.2983999999087	23.5	0.6	Probable_Lie	LEFT	RIGHT	3	864.1359999999167	53	2020-03-10 14:24:40.088831
143	Computer	S200310	0.8333333333333334	2	1	2	1	0.4	1350.0000027	1150.0000023	2350.0000047	1500.000003	Major	Good_deeds	30	You have engaged in money laundering	C1_16	0.5	Easy	I1_41	58	Nanyang Technological University is in Australia	1.0	No	RIGHT	543.5436999998728	LEFT	1088.9179000000695	LEFT	1055.929800000058	LEFT	1405.4247000001396	23.5	0.4	Probable_Truth	RIGHT	RIGHT	4	863.8949495359959	54	2020-03-10 14:25:03.969319
8	Self	S200310	0.5	2	1	1	2	0.5	1500.000003	1216.6666691	1933.3333372	1933.3333372	Minor	Wrong_doings	5	You have eaten something in the MRT train	C2_39	1.0	Hard	I2_6	49	Singapore is a poor country	0.0	No	LEFT	720.514699999967	LEFT	1202.2223999999824	LEFT	1691.1764999999832	LEFT	1280.2255999999943	23.5	0.5	Probable_Lie	RIGHT	LEFT	4	911.4941000000272	55	2020-03-10 14:25:28.937430
53	Self	S200310	0.5	1	2	2	1	0.8	1500.000003	1216.6666691	2216.6666711000003	1933.3333372	Minor	Good_deeds	50	You have switched off appliances when not in use	C1_59	0.55	Easy	I2_45	50	South East Asia is currently free from polio	0.944444444444444	No	LEFT	736.1317000002146	LEFT	568.6249000000316	RIGHT	1455.419699999993	LEFT	2851.328100000046	23.5	0.8	Probable_Lie	RIGHT	RIGHT	1	815.1672999999846	56	2020-03-10 14:25:54.809140
110	Computer	S200310	0.5	2	1	2	1	0.8	1216.6666691	1150.0000023	2216.6666711000003	2216.6666711000003	Minor	Wrong_doings	36	You have been sued	C2_57	0.0	Easy	I1_43	6	Pyramid of Giza is 468 feet tall	0.888888888888889	Yes	RIGHT	448.647899999969	RIGHT	557.5768000001062	LEFT	895.0187000000369	RIGHT	3709.621900000002	24.3	0.8	Probable_Lie	LEFT	LEFT	6	978.4555773796674	57	2020-03-10 14:26:20.777418
69	Self	S200310	0.6666666666666666	1	2	2	1	0.6	1500.000003	1350.0000027	1783.3333369	1650.0000033	Major	Wrong_doings	7	You have held the elevator doors for others	C2_35	0.95	Easy	I1_3	19	Carnivore refers to meat-eater	0.0	Yes	RIGHT	874.8387000000548	RIGHT	352.203099999997	RIGHT	958.7758000000122	RIGHT	1241.5247999999792	24.9	0.6	Probable_Truth	LEFT	LEFT	2	661.7929000001368	58	2020-03-10 14:26:43.720679
23	Self	S200310	0.6666666666666666	1	2	2	1	0.6	1000.000002	1283.3333359	2066.6666708	2066.6666708	Minor	Wrong_doings	4	You have been convicted in court	C1_53	0.0	Hard	I2_30	42	"Statue of Liberty is 151 feet tall"	0.0	No	RIGHT	645.6476999999268	RIGHT	400.4648000000088	LEFT	896.194400000013	RIGHT	2679.6994000001177	25.500000000000004	0.6	Probable_Lie	LEFT	LEFT	4	740.3783999998268	59	2020-03-10 14:27:08.073288
10	Self	S200310	0.5	2	1	1	2	0.6	1433.3333362	1283.3333359	2350.0000047	1650.0000033	Minor	Wrong_doings	28	You have failed to keep promises	C1_36	0.85	Hard	I1_8	17	There are 30 hours in a day	0.944444444444444	Yes	RIGHT	767.6793000000544	LEFT	1315.2612999999749	LEFT	1617.6120000000085	LEFT	991.7488999999478	25.500000000000004	0.6	Probable_Lie	LEFT	LEFT	6	1523.2544999998936	60	2020-03-10 14:27:33.577205
26	Self	S200310	0.6666666666666666	2	1	1	2	0.2	1500.000003	1500.000003	1783.3333369	1650.0000033	Minor	Wrong_doings	44	You have watched an M18 movie when you were underage	C2_16	0.15	Easy	I2_38	41	Teddy Roosevelt was the youngest US President	0.0555555555555556	No	RIGHT	400.5064000000402	RIGHT	354.2595000001256	LEFT	1496.43570000012	RIGHT	2647.894899999983	25.700000000000003	0.2	Probable_Truth	LEFT	LEFT	1	676.7601999999897	61	2020-03-10 14:27:58.161603
30	Self	S200310	0.6666666666666666	2	1	2	1	0.1	1350.0000027	1350.0000027	1933.3333372	1933.3333372	Minor	Good_deeds	47	You have cursed at your loved ones	C1_1	0.95	Easy	I1_45	45	Obama is the USA president now	0.833333333333333	Yes	RIGHT	536.1814000000322	RIGHT	428.1465999999909	LEFT	976.2210999999752	LEFT	1620.7443999999214	25.800000000000004	0.1	Probable_Truth	RIGHT	RIGHT	6	649.2478999998639	62	2020-03-10 14:28:21.514467
60	Self	S200310	0.5	2	1	2	1	0.7	1350.0000027	1000.000002	1933.3333372	1650.0000033	Major	Wrong_doings	50	You have made counterfeit money	C2_6	1.0	Easy	I1_21	3	Mozambique is the world's poorest country	0.833333333333333	Yes	RIGHT	839.9878999998691	LEFT	979.024500000378	LEFT	911.7923999997402	LEFT	2647.2069000001284	25.800000000000004	0.7	Probable_Lie	RIGHT	LEFT	5	1422.0858000003318	63	2020-03-10 14:28:46.825309
33	Self	S200310	0.8333333333333334	1	2	1	2	0.4	1350.0000027	1283.3333359	2500.000005	2066.6666708	Minor	Wrong_doings	20	You have bought cigarettes for a minor	C2_31	0.05	Hard	I2_60	58	The Amazon forest covers an area of 1 billion acres	0.0	Yes	RIGHT	699.7893000002477	RIGHT	664.1595000000962	LEFT	1189.0312999998969	RIGHT	991.2873000002946	26.200000000000003	0.4	Probable_Truth	RIGHT	RIGHT	6	737.1722000002592	64	2020-03-10 14:29:10.889027
100	Computer	S200310	0.5	1	2	2	1	0.1	1283.3333359	1283.3333359	2066.6666708	2500.000005	Minor	Good_deeds	13	You have said thank you when you have received help	C2_53	1.0	Easy	I1_29	52	Acoustic Kitty refers to cat with implants	0.666666666666667	No	LEFT	826.9636999998511	LEFT	407.9553999999917	RIGHT	1327.2864999999	RIGHT	1485.4035000003023	26.200000000000003	0.1	Probable_Lie	RIGHT	LEFT	6	766.7323472636803	65	2020-03-10 14:29:35.408922
47	Self	S200310	0.8333333333333334	2	1	2	1	0.2	1150.0000023	1433.3333362	1783.3333369	2350.0000047	Major	Good_deeds	30	You have engaged in money laundering	C1_16	0.5	Easy	I1_41	58	Nanyang Technological University is in Australia	1.0	No	RIGHT	664.8013999997602	RIGHT	649.268299999676	LEFT	831.5542000000278	LEFT	938.8265999996293	26.4	0.2	Probable_Truth	RIGHT	RIGHT	3	778.8737999999285	66	2020-03-10 14:29:58.561525
73	Self	S200310	0.6666666666666666	2	1	1	2	0.3	1150.0000023	1433.3333362	2350.0000047	2500.000005	Minor	Wrong_doings	9	You have participated in a scamming business	C2_46	0.0	Hard	I2_5	23	Saturn's rings are between 30 and 300 feet thick	0.944444444444444	Yes	RIGHT	519.9506000003566	RIGHT	737.8794000001108	LEFT	1439.2879000001813	RIGHT	4102.829999999813	26.700000000000003	0.3	Probable_Truth	RIGHT	RIGHT	5	875.5431999998109	67	2020-03-10 14:30:26.249792
56	Self	S200310	0.5	2	1	1	2	0.4	1283.3333359	1433.3333362	1500.000003	2066.6666708	Minor	Wrong_doings	11	You have given way to the handicapped	C1_40	0.05	Hard	I2_17	40	A dog has four legs	0.0555555555555556	Yes	RIGHT	335.2093000003151	RIGHT	544.6528000002218	RIGHT	2600.6344000002173	RIGHT	1350.5608000000393	27.1	0.4	Probable_Truth	LEFT	LEFT	3	850.9818000002269	68	2020-03-10 14:30:50.809558
50	Self	S200310	0.5	1	2	1	2	0.7	1066.6666688	1433.3333362	2350.0000047	1650.0000033	Major	Wrong_doings	15	You have engaged in underage smoking	C2_17	0.2	Hard	I1_4	32	There are 7 days in a week	0.0	No	RIGHT	870.1221000001169	RIGHT	951.1035999998968	LEFT	1210.6975000001512	RIGHT	1446.305399999801	27.8	0.7	Probable_Truth	LEFT	RIGHT	6	796.5138999998089	69	2020-03-10 14:31:15.178712
1	Self	S200310	0.5	1	2	1	2	0.1	1500.000003	1283.3333359	2500.000005	1783.3333369	Minor	Good_deeds	7	You have taken months off to volunteer	C2_10	0.05	Easy	I2_16	22	Christmas Day is in March	0.0	Yes	LEFT	735.0558999996792	RIGHT	639.7289999999884	RIGHT	1525.1327000000856	LEFT	1063.2842999998502	27.7	0.1	Probable_Lie	RIGHT	LEFT	4	894.7747999995954	70	2020-03-10 14:31:39.696675
104	Computer	S200310	0.5	2	1	1	2	0.2	1283.3333359	1500.000003	2066.6666708	1500.000003	Minor	Wrong_doings	5	You have eaten something in the MRT train	C2_39	1.0	Hard	I2_6	49	Singapore is a poor country	0.0	No	RIGHT	511.7367999996532	LEFT	1049.3007999998554	LEFT	1616.3948999997046	LEFT	1750.3474000000097	27.7	0.2	Probable_Truth	LEFT	LEFT	1	932.1589856432144	71	2020-03-10 14:32:04.497871
98	Computer	S200310	0.5	1	2	1	2	0.2	1500.000003	1216.6666691	1783.3333369	2350.0000047	Minor	Wrong_doings	33	You have extorted money from anyone	C2_27	1.0	Easy	I2_52	39	Afghan Hound is the first cloned cat	0.0	No	RIGHT	1824.8065000002496	LEFT	542.2011000000566	LEFT	1838.5439999997288	LEFT	2461.8172000000413	27.7	0.2	Probable_Truth	RIGHT	RIGHT	5	516.3675923853507	72	2020-03-10 14:32:31.129068
120	Computer	S200310	0.6666666666666666	2	1	1	2	0.5	1500.000003	1150.0000023	1500.000003	1650.0000033	Major	Wrong_doings	16	You have followed instructions	C2_47	0.7	Hard	I2_31	53	February has 30 days	1.0	Yes	RIGHT	558.8499000000411	RIGHT	888.3926999997129	RIGHT	1466.7153999998843	LEFT	4262.642700000015	28.2	0.5	Probable_Lie	LEFT	LEFT	4	623.584375380681	73	2020-03-10 14:32:57.320884
112	Computer	S200310	0.6666666666666666	1	2	1	2	0.2	1066.6666688	1000.000002	1650.0000033	1500.000003	Major	Good_deeds	43	You have rescued others from a catastrophe	C1_29	0.7	Hard	I2_28	30	Airbags in cars are filled with sodium azide	0.0	Yes	LEFT	658.7626999998974	LEFT	933.6763999999675	RIGHT	1029.7218999999131	RIGHT	1355.9692999997424	28.2	0.2	Probable_Lie	LEFT	RIGHT	1	743.8202428482542	74	2020-03-10 14:33:19.865025
2	Self	S200310	0.5	1	2	1	2	0.2	1216.6666691	1350.0000027	2066.6666708	1933.3333372	Minor	Wrong_doings	33	You have extorted money from anyone	C2_27	1.0	Easy	I2_52	39	Afghan Hound is the first cloned cat	0.0	No	LEFT	748.0017999996562	RIGHT	479.5368000000053	LEFT	828.3541000000696	LEFT	1000.3130999998576	28.0	0.2	Probable_Lie	LEFT	RIGHT	1	834.2468999999255	75	2020-03-10 14:33:42.905491
22	Self	S200310	0.6666666666666666	1	2	2	1	0.1	1216.6666691	1350.0000027	2216.6666711000003	1500.000003	Minor	Wrong_doings	34	You have held the door open for a stranger	C2_34	0.95	Easy	I1_36	34	China is a part of Asia	0.833333333333333	Yes	RIGHT	734.8053999999138	RIGHT	232.1819999997388	RIGHT	655.2445000002081	RIGHT	1229.6644999996715	28.1	0.1	Probable_Lie	RIGHT	RIGHT	1	733.7800000000243	76	2020-03-10 14:34:05.352261
82	Self	S200310	0.8333333333333334	1	2	1	2	0.1	1150.0000023	1000.000002	2066.6666708	1783.3333369	Minor	Wrong_doings	60	You have pretended to be busy to avoid a social situation	C2_2	0.55	Easy	I2_36	2	Dutch is the 6th Europe's most widely spoken language	0.666666666666667	No	RIGHT	334.14600000014616	RIGHT	296.6017999997348	LEFT	2207.8278999997565	RIGHT	3423.814499999935	28.200000000000003	0.1	Probable_Truth	LEFT	LEFT	1	776.8894000000728	77	2020-03-10 14:34:30.968560
45	Self	S200310	0.8333333333333334	2	1	2	1	0.3	1066.6666688	1350.0000027	1650.0000033	1783.3333369	Minor	Wrong_doings	16	You have violated a traffic law	C2_13	0.2	Hard	I2_58	38	Chickens lay eggs	0.0	No	RIGHT	304.230500000358	RIGHT	591.1501000000499	LEFT	799.9875999998949	RIGHT	1035.4510000001935	28.500000000000004	0.3	Probable_Truth	RIGHT	RIGHT	5	536.4282000000458	78	2020-03-10 14:34:52.664499
96	Computer	S200310	0.5	1	2	1	2	0.3	1066.6666688	1150.0000023	2350.0000047	1500.000003	Major	Wrong_doings	10	You have cheated on a national exam	C1_45	0.8	Hard	I2_56	29	Summer is hotter than winter	0.0	No	RIGHT	1286.3734000002296	RIGHT	553.1318000003012	LEFT	1094.8174000000108	RIGHT	1446.2303000000247	28.800000000000004	0.3	Probable_Lie	LEFT	RIGHT	2	980.8247717460332	79	2020-03-10 14:35:16.664678
86	Self	S200310	0.8333333333333334	1	2	2	1	0.6	1066.6666688	1066.6666688	1783.3333369	1650.0000033	Minor	Good_deeds	24	You have sign up to sponsor a needy child	C2_48	0.95	Hard	I2_12	1	Africa is the continent with the least rainfall	0.0	No	RIGHT	465.8184999998412	RIGHT	351.6735999996854	RIGHT	3128.5579000000325	RIGHT	3688.302399999884	29.40000000000001	0.6	Probable_Lie	LEFT	LEFT	3	758.9387000002716	80	2020-03-10 14:35:43.200966
111	Computer	S200310	0.5	2	1	2	1	0.6	1500.000003	1433.3333362	2500.000005	2350.0000047	Major	Wrong_doings	57	You have let a homeless man into your house	C1_14	1.0	Hard	I1_17	24	Red is a color	0.0	Yes	RIGHT	671.4148000000932	RIGHT	857.6193999997486	RIGHT	840.1653000000806	RIGHT	1498.3306000003722	30.000000000000007	0.6	Probable_Lie	LEFT	RIGHT	2	933.853326278628	81	2020-03-10 14:36:08.359916
128	Computer	S200310	0.8333333333333334	1	2	1	2	0.4	1000.000002	1066.6666688	2500.000005	2350.0000047	Major	Wrong_doings	8	You have returned your trays in food courts	C2_26	1.0	Hard	I1_58	24	Astatine is the rarest element in the Earth's crust	0.777777777777778	Yes	RIGHT	1501.8817000000126	RIGHT	601.0780999999952	RIGHT	1651.3792999999168	RIGHT	1550.463399999899	30.40000000000001	0.4	Probable_Lie	RIGHT	LEFT	3	847.0151168302273	82	2020-03-10 14:36:34.008884
84	Self	S200310	0.8333333333333334	1	2	2	1	0.3	1000.000002	1433.3333362	1933.3333372	1933.3333372	Minor	Good_deeds	2	You have been arrested	C1_60	0.45	Hard	I1_2	12	Fishes can swim in water	0.0	No	RIGHT	802.2720000003574	RIGHT	434.0551000000232	LEFT	976.6144999998688	RIGHT	908.696299999974	30.700000000000006	0.3	Probable_Truth	RIGHT	RIGHT	4	830.1502999997865	83	2020-03-10 14:36:56.832652
70	Self	S200310	0.6666666666666666	1	2	2	1	0.3	1216.6666691	1150.0000023	2216.6666711000003	2066.6666708	Minor	Wrong_doings	39	You have stolen something	C1_17	0.15	Easy	I2_25	48	Cheese is an Asian staple	0.944444444444444	No	RIGHT	534.8017000001164	RIGHT	391.7488000001868	LEFT	935.8932000000096	LEFT	1972.3864999996292	31.000000000000007	0.3	Probable_Truth	LEFT	LEFT	2	878.415700000005	84	2020-03-10 14:37:20.775864
6	Self	S200310	0.5	1	2	2	1	0.5	1066.6666688	1216.6666691	1783.3333369	1500.000003	Major	Good_deeds	27	You have made someone cry	C1_13	0.95	Hard	I1_27	16	Milwaukee Art Museum is located in California	0.722222222222222	Yes	RIGHT	540.4576999999335	RIGHT	488.4299000000283	LEFT	904.7693999996228	LEFT	1130.436699999791	31.500000000000007	0.5	Probable_Truth	RIGHT	RIGHT	4	754.7889000002215	85	2020-03-10 14:37:42.736649
138	Computer	S200310	0.8333333333333334	2	1	1	2	0.1	1283.3333359	1350.0000027	2500.000005	1933.3333372	Minor	Wrong_doings	60	You have a non-judgmental attitude towards everyone	C2_60	1.0	Hard	I1_38	11	A triangle has three sides	0.722222222222222	No	RIGHT	505.50909999992655	LEFT	717.904599999656	RIGHT	1070.6451999999445	RIGHT	728.0713000000105	31.500000000000007	0.1	Probable_Truth	LEFT	LEFT	1	943.2970247053784	86	2020-03-10 14:38:06.344726
97	Computer	S200310	0.5	1	2	1	2	0.7	1150.0000023	1000.000002	2500.000005	1650.0000033	Minor	Good_deeds	7	You have taken months off to volunteer	C2_10	0.05	Easy	I2_16	22	Christmas Day is in March	0.0	Yes	RIGHT	745.1716000000488	RIGHT	944.7074999998222	RIGHT	1001.5069000000948	LEFT	2024.492900000041	32.20000000000001	0.7	Probable_Lie	LEFT	RIGHT	2	703.3655053950563	87	2020-03-10 14:38:30.633435
58	Self	S200310	0.5	2	1	1	2	0.2	1066.6666688	1066.6666688	1650.0000033	1933.3333372	Major	Good_deeds	42	You have helped others to pick up their belongings	C1_28	0.65	Hard	I2_3	44	Nomophobia is the fear of being without a phone or computer	0.764705882352941	No	RIGHT	712.9685999998401	RIGHT	1366.7120999998588	RIGHT	2605.5099999998674	LEFT	3623.6629	32.40000000000001	0.2	Probable_Lie	LEFT	LEFT	5	1730.3369999999632	88	2020-03-10 14:38:58.968245
108	Computer	S200310	0.5	2	1	2	1	0.5	1350.0000027	1350.0000027	2350.0000047	1783.3333369	Major	Good_deeds	33	You have assisted in a crime	C1_5	0.0	Easy	I2_24	27	The Seine river is 50 feet above sea level	0.0	No	RIGHT	1000.0222000003304	RIGHT	1695.8756000003632	RIGHT	1486.7755000000216	RIGHT	1546.8415999998797	32.90000000000001	0.5	Probable_Truth	RIGHT	LEFT	3	929.6878543591356	89	2020-03-10 14:39:25.041434
79	Self	S200310	0.6666666666666666	2	1	2	1	0.1	1350.0000027	1283.3333359	2216.6666711000003	2216.6666711000003	Minor	Good_deeds	46	You have done something against your values	C1_48	0.85	Easy	I2_54	52	The hyoid bone is the only jointless bone	0.0	No	RIGHT	535.8880999997382	RIGHT	1081.9688999999926	LEFT	2888.9408000000003	RIGHT	3872.711399999844	33.000000000000014	0.1	Probable_Truth	RIGHT	RIGHT	4	1285.8457999996062	90	2020-03-10 14:39:54.344501
51	Self	S200310	0.5	1	2	1	2	0.4	1350.0000027	1066.6666688	1783.3333369	1783.3333369	Minor	Wrong_doings	20	You have attended all lectures as a student	C1_50	0.9	Hard	I2_21	10	French is Singapore's official language	0.777777777777778	Yes	RIGHT	971.23640000018	RIGHT	614.8087000001397	RIGHT	1284.6263000001272	LEFT	1080.22660000006	33.40000000000001	0.4	Probable_Lie	LEFT	RIGHT	2	849.7686999999132	91	2020-03-10 14:40:17.704962
118	Computer	S200310	0.6666666666666666	1	2	2	1	0.6	1000.000002	1150.0000023	1500.000003	1650.0000033	Minor	Wrong_doings	34	You have held the door open for a stranger	C2_34	0.95	Easy	I1_36	34	China is a part of Asia	0.833333333333333	Yes	RIGHT	776.0333000001083	RIGHT	647.9217000000972	RIGHT	1159.0981000003922	RIGHT	920.9851999999046	34.000000000000014	0.6	Probable_Lie	LEFT	LEFT	4	871.3569098840248	92	2020-03-10 14:40:39.945594
113	Computer	S200310	0.6666666666666666	1	2	1	2	0.3	1433.3333362	1283.3333359	2500.000005	2350.0000047	Major	Good_deeds	3	You have deceived a loved one	C2_3	0.0	Hard	I1_42	28	Beef comes from cows	0.0	No	RIGHT	712.4054999999316	RIGHT	367.7896999997756	LEFT	1083.712099999957	RIGHT	903.3613000001424	34.30000000000001	0.3	Probable_Lie	RIGHT	LEFT	4	585.157412263579	93	2020-03-10 14:41:03.737470
52	Self	S200310	0.5	1	2	2	1	0.3	1283.3333359	1000.000002	1500.000003	2066.6666708	Minor	Wrong_doings	9	You have complimented others for good work	C2_56	0.7	Hard	I1_10	21	Singapore is in Africa	0.0	Yes	RIGHT	366.3222999998652	RIGHT	359.79379999980665	RIGHT	878.3653999998933	LEFT	2383.396300000186	34.60000000000001	0.3	Probable_Truth	RIGHT	LEFT	3	1256.5134000001308	94	2020-03-10 14:41:27.409493
137	Computer	S200310	0.8333333333333334	2	1	1	2	0.8	1216.6666691	1500.000003	1500.000003	2216.6666711000003	Major	Wrong_doings	13	You have queued to enter the MRT train	C2_36	0.95	Hard	I2_43	43	Cleopatra was born in Greece	0.0	Yes	RIGHT	529.2741999996906	RIGHT	910.7116999998652	RIGHT	2097.369300000082	LEFT	1239.9735999997574	35.400000000000006	0.8	Probable_Lie	LEFT	RIGHT	1	623.7871311868219	95	2020-03-10 14:41:51.808633
105	Computer	S200310	0.5	2	1	1	2	0.4	1433.3333362	1216.6666691	1783.3333369	1933.3333372	Major	Good_deeds	14	You have helped with household chores	C2_28	0.0	Easy	I2_49	8	The Eiffel Tower is in Paris	0.0555555555555556	No	RIGHT	520.4129000003377	RIGHT	732.1043999995709	RIGHT	1050.0307000002067	RIGHT	1024.054200000137	35.800000000000004	0.4	Probable_Truth	RIGHT	RIGHT	6	967.6903855720954	96	2020-03-10 14:44:24.984005
103	Computer	S200310	0.5	1	2	2	1	0.8	1000.000002	1350.0000027	1933.3333372	2216.6666711000003	Minor	Wrong_doings	45	You have helped a friend in need	C2_33	0.05	Hard	I2_22	27	Singapore is a country	0.666666666666667	Yes	RIGHT	793.8547999997354	RIGHT	584.4179000000622	RIGHT	718.8125000002401	RIGHT	1168.011899999783	36.6	0.8	Probable_Truth	LEFT	LEFT	2	947.1671268526538	97	2020-03-10 14:44:48.272573
92	Self	S200310	0.8333333333333334	2	1	2	1	0.4	1433.3333362	1216.6666691	1933.3333372	2350.0000047	Minor	Wrong_doings	29	You have borrowed things and never returned	C2_29	0.0	Easy	I1_47	13	It sometimes snows in Singapore	1.0	Yes	RIGHT	335.59699999977965	RIGHT	427.1616999999424	LEFT	1584.6127999998316	LEFT	1187.3101000001045	37.0	0.4	Probable_Lie	LEFT	LEFT	3	739.5292999999583	98	2020-03-10 14:45:12.056516
90	Self	S200310	0.8333333333333334	2	1	1	2	0.1	1283.3333359	1150.0000023	2066.6666708	1500.000003	Minor	Wrong_doings	11	You have lied to your parents	C1_12	0.95	Hard	I1_50	28	Malay is one of the races in Singapore	0.888888888888889	No	RIGHT	337.02279999988605	RIGHT	1534.6104999998715	LEFT	820.6497999999556	RIGHT	1023.3965000002172	37.1	0.1	Probable_Truth	LEFT	LEFT	1	564.9913000002016	99	2020-03-10 14:45:34.911646
75	Self	S200310	0.6666666666666666	2	1	1	2	0.7	1283.3333359	1216.6666691	1500.000003	1783.3333369	Major	Wrong_doings	27	You have intentionally let others cut in line	C1_27	0.55	Hard	I2_8	57	Vegetarians can eat vegetable products	0.944444444444444	No	RIGHT	400.3029999998944	RIGHT	1149.61459999995	LEFT	1194.3707999998878	RIGHT	1910.958599999958	37.8	0.7	Probable_Lie	RIGHT	RIGHT	1	906.0059000003092	100	2020-03-10 14:45:58.832599
89	Self	S200310	0.8333333333333334	2	1	1	2	0.2	1216.6666691	1283.3333359	1500.000003	2216.6666711000003	Minor	Good_deeds	37	You have started a hotline for victims of bully	C1_51	1.0	Easy	I2_2	2	Most plants emit oxygen in the day	0.0555555555555556	Yes	RIGHT	344.8720000001231	RIGHT	820.2423000002455	RIGHT	1409.6948000001248	RIGHT	1143.8538000002154	38.00000000000001	0.2	Probable_Truth	LEFT	LEFT	1	575.0443999995696	101	2020-03-10 14:46:21.920438
88	Self	S200310	0.8333333333333334	2	1	1	2	0.5	1066.6666688	1000.000002	2500.000005	1783.3333369	Major	Good_deeds	45	You have confessed to your mistake	C1_11	0.0	Hard	I1_28	25	Singapore ranked 8th in World's smallest countries	0.0	No	RIGHT	280.110500000319	RIGHT	580.5691999998999	RIGHT	1778.161799999907	RIGHT	2247.272800000246	38.50000000000001	0.5	Probable_Lie	LEFT	LEFT	3	665.7109000002492	102	2020-03-10 14:46:46.399739
48	Self	S200310	0.5	1	2	1	2	0.1	1000.000002	1283.3333359	2500.000005	1500.000003	Major	Good_deeds	17	You have stopped using products tested on animals	C2_20	0.0	Easy	I1_31	31	Today is a weekday	0.888888888888889	No	LEFT	781.3123000000814	RIGHT	288.5102000000188	RIGHT	1446.272599999702	RIGHT	1095.8943000000545	38.400000000000006	0.1	Probable_Lie	RIGHT	LEFT	5	790.8695000000989	103	2020-03-10 14:47:09.664209
15	Self	S200310	0.5	2	1	2	1	0.8	1000.000002	1350.0000027	2216.6666711000003	2216.6666711000003	Major	Wrong_doings	57	You have let a homeless man into your house	C1_14	1.0	Hard	I1_17	24	Red is a color	0.0	Yes	RIGHT	496.3299000000916	RIGHT	1207.6155999998264	RIGHT	2207.982599999923	RIGHT	865.0331999997434	39.2	0.8	Probable_Lie	RIGHT	RIGHT	2	742.1973000000435	104	2020-03-10 14:47:34.543906
55	Self	S200310	0.5	1	2	2	1	0.5	1216.6666691	1500.000003	1650.0000033	2500.000005	Minor	Good_deeds	59	You have claimed doing things that you never did	C1_15	0.05	Easy	I1_32	4	There are 6000 spoken languages in the World	0.0	Yes	RIGHT	694.8444000004201	RIGHT	407.1524999999383	LEFT	1199.4267000000036	RIGHT	2117.0047000000523	39.7	0.5	Probable_Truth	RIGHT	LEFT	1	1008.0144999997174	105	2020-03-10 14:47:59.416052
24	Self	S200310	0.6666666666666666	2	1	1	2	0.4	1066.6666688	1150.0000023	2066.6666708	2500.000005	Major	Wrong_doings	16	You have followed instructions	C2_47	0.7	Hard	I2_31	53	February has 30 days	1.0	Yes	RIGHT	456.7669999996724	RIGHT	886.1713000001146	RIGHT	974.0450999997848	LEFT	926.974599999994	40.1	0.4	Probable_Lie	RIGHT	RIGHT	2	657.2393999999804	106	2020-03-10 14:48:22.680388
124	Computer	S200310	0.6666666666666666	2	1	2	1	0.1	1216.6666691	1500.000003	2350.0000047	2066.6666708	Minor	Wrong_doings	52	You have risked your life to save another person's life	C1_8	0.85	Easy	I1_14	46	Arabi is the oldest surviving breed of horse	0.888888888888889	No	RIGHT	88.01730000004682	RIGHT	656.03050000027	RIGHT	880.1309000000401	RIGHT	2210.952200000065	40.2	0.1	Probable_Lie	LEFT	RIGHT	1	759.8075415456789	107	2020-03-10 14:48:46.992794
64	Self	S200310	0.6666666666666666	1	2	1	2	0.2	1433.3333362	1500.000003	2500.000005	2350.0000047	Minor	Good_deeds	14	You have bribed someone to improve a grade	C2_14	0.2	Easy	I2_59	55	Septicemia is a lung infection condition	1.0	No	RIGHT	1108.984199999668	RIGHT	704.2890000002444	LEFT	2498.226799999884	LEFT	2871.503400000165	40.400000000000006	0.2	Probable_Truth	LEFT	LEFT	2	687.1703000001617	108	2020-03-10 14:49:15.223854
0	Self	S200310	0.5	1	2	1	2	0.8	1433.3333362	1150.0000023	2350.0000047	2350.0000047	Major	Wrong_doings	10	You have cheated on a national exam	C1_45	0.8	Hard	I2_56	29	Summer is hotter than winter	0.0	No	RIGHT	1115.9973000003447	RIGHT	720.7026999999471	LEFT	1138.213199999882	LEFT	1015.592799999922	41.2	0.8	Probable_Lie	LEFT	RIGHT	1	804.134200000135	109	2020-03-10 14:49:39.879726
93	Self	S200310	0.8333333333333334	2	1	2	1	0.6	1150.0000023	1433.3333362	1783.3333369	2066.6666708	Minor	Good_deeds	51	You have taken responsibility for your actions	C2_45	1.0	Hard	I2_51	51	Mexico's National Day is September 16	0.777777777777778	Yes	RIGHT	288.6834999999337	RIGHT	825.6214000002728	RIGHT	967.9863999999724	RIGHT	2349.913900000047	41.8	0.6	Probable_Truth	RIGHT	RIGHT	2	543.7676999999894	110	2020-03-10 14:50:03.863860
117	Computer	S200310	0.6666666666666666	1	2	2	1	0.1	1350.0000027	1433.3333362	2216.6666711000003	2066.6666708	Minor	Wrong_doings	53	You have been donating all your excess food to a food bank	C2_37	0.65	Easy	I2_34	26	Algeria is Africa's second largest country	0.888888888888889	Yes	RIGHT	343.1465999997272	RIGHT	264.64190000024246	RIGHT	959.3605000000024	RIGHT	3080.9074999997392	41.900000000000006	0.1	Probable_Lie	LEFT	RIGHT	1	915.6790712576892	111	2020-03-10 14:50:29.064009
7	Self	S200310	0.5	1	2	2	1	0.4	1283.3333359	1000.000002	1650.0000033	1650.0000033	Minor	Wrong_doings	45	You have helped a friend in need	C2_33	0.05	Hard	I2_22	27	Singapore is a country	0.666666666666667	Yes	RIGHT	447.926699999698	RIGHT	192.36270000010336	RIGHT	791.926699999749	RIGHT	856.7874000000302	42.3	0.4	Probable_Truth	LEFT	LEFT	3	767.3878999999033	112	2020-03-10 14:50:50.280083
141	Computer	S200310	0.8333333333333334	2	1	2	1	0.7	1000.000002	1000.000002	1650.0000033	2350.0000047	Minor	Wrong_doings	16	You have violated a traffic law	C2_13	0.2	Hard	I2_58	38	Chickens lay eggs	0.0	No	RIGHT	639.9455999999191	RIGHT	1031.7534000000703	LEFT	1591.6096000000834	RIGHT	940.71490000033	43.00000000000001	0.7	Probable_Lie	LEFT	RIGHT	1	964.735779878464	113	2020-03-10 14:51:14.023793
115	Computer	S200310	0.6666666666666666	1	2	1	2	0.5	1150.0000023	1066.6666688	1933.3333372	2216.6666711000003	Major	Wrong_doings	18	You have helped your parents when asked to	C1_4	0.05	Hard	I2_1	36	Marijuana is legal in Singapore	0.833333333333333	Yes	LEFT	3210.7617000001483	LEFT	864.2723000002661	RIGHT	1169.948199999908	LEFT	807.7391000001626	43.00000000000001	0.5	Probable_Lie	RIGHT	LEFT	5	800.8756703664792	114	2020-03-10 14:51:39.816251
21	Self	S200310	0.6666666666666666	1	2	2	1	0.2	1433.3333362	1433.3333362	1783.3333369	2350.0000047	Minor	Wrong_doings	53	You have been donating all your excess food to a food bank	C2_37	0.65	Easy	I2_34	26	Algeria is Africa's second largest country	0.888888888888889	Yes	RIGHT	536.5870000000541	RIGHT	360.4576000002453	RIGHT	671.3623999999072	RIGHT	1147.2537999998167	43.20000000000001	0.2	Probable_Lie	LEFT	LEFT	6	515.1785999996719	115	2020-03-10 14:52:02.624432
25	Self	S200310	0.6666666666666666	2	1	1	2	0.7	1216.6666691	1066.6666688	2216.6666711000003	2350.0000047	Major	Good_deeds	1	You have sorted your trash into recycling bin	C1_38	0.65	Hard	I1_13	38	Brazil is in South America	0.0555555555555556	Yes	RIGHT	273.1832999998005	RIGHT	616.1408000002666	RIGHT	796.1193999999523	RIGHT	1544.4194000001517	43.90000000000001	0.7	Probable_Truth	RIGHT	RIGHT	4	751.5604999998686	116	2020-03-10 14:52:26.032365
46	Self	S200310	0.8333333333333334	2	1	2	1	0.7	1500.000003	1066.6666688	2066.6666708	1650.0000033	Minor	Good_deeds	31	You have given up your seat in the MRT	C1_31	0.75	Hard	I1_15	15	There are 6 million animal species on Earth	0.0	Yes	RIGHT	231.84219999984637	RIGHT	806.1947999999575	RIGHT	1113.1444000002375	RIGHT	943.668400000206	44.600000000000016	0.7	Probable_Truth	RIGHT	RIGHT	3	549.0321999996013	117	2020-03-10 14:52:48.536110
132	Computer	S200310	0.8333333333333334	1	2	2	1	0.2	1433.3333362	1283.3333359	2066.6666708	2216.6666711000003	Major	Good_deeds	59	You have been physically hurt to protect others	C1_49	0.0	Hard	I1_54	5	Penguin can fly with their wings	0.722222222222222	No	RIGHT	591.2008999998761	RIGHT	183.5922999998729	RIGHT	1167.5483999997596	LEFT	1480.343599999742	44.80000000000002	0.2	Probable_Lie	LEFT	RIGHT	1	861.3141582711894	118	2020-03-10 14:53:12.400367
125	Computer	S200310	0.6666666666666666	2	1	2	1	0.3	1066.6666688	1433.3333362	1933.3333372	1783.3333369	Minor	Wrong_doings	8	You have used heroin	C2_23	0.05	Easy	I1_46	14	The first Olympic Games was held in the 5th century B.C	0.0	No	RIGHT	376.3649000002261	RIGHT	523.004199999832	LEFT	839.9343999999473	RIGHT	2610.725699999876	45.100000000000016	0.3	Probable_Lie	RIGHT	LEFT	5	537.8309392147816	119	2020-03-10 14:53:36.072538
83	Self	S200310	0.8333333333333334	1	2	1	2	0.8	1216.6666691	1150.0000023	1500.000003	2500.000005	Major	Good_deeds	47	You have said sorry when you were rude	C2_40	1.0	Easy	I1_33	40	Bears have the biggest eyes among mammals	0.0	Yes	RIGHT	349.4108999998389	RIGHT	88.19769999990967	RIGHT	1022.838899999897	LEFT	3727.8605999999854	45.90000000000001	0.8	Probable_Truth	LEFT	LEFT	1	582.2143999998843	120	2020-03-10 14:54:00.784060
14	Self	S200310	0.5	2	1	2	1	0.4	1150.0000023	1000.000002	2500.000005	1500.000003	Minor	Wrong_doings	36	You have been sued	C2_57	0.0	Easy	I1_43	6	Pyramid of Giza is 468 feet tall	0.888888888888889	Yes	RIGHT	103.96670000000086	RIGHT	917.612199999894	LEFT	975.623099999666	RIGHT	853.6600000002181	46.30000000000001	0.4	Probable_Lie	LEFT	LEFT	5	1981.0891000001905	121	2020-03-10 14:54:24.342934
94	Self	S200310	0.8333333333333334	2	1	2	1	0.3	1500.000003	1350.0000027	2216.6666711000003	1933.3333372	Major	Wrong_doings	12	You have donated blood every 6 months for many years	C2_58	0.8	Easy	I2_46	46	The Earth turns the closest to the sun in May	0.0555555555555556	No	RIGHT	184.22459999965213	RIGHT	544.8809999998048	LEFT	4.305399999793735	Time_Max_Exceeded	5000.316299999668	46.60000000000001	0.3	Probable_Truth	LEFT	LEFT	1	681.631599999946	122	2020-03-10 14:54:50.338162
35	Self	S200310	0.8333333333333334	1	2	1	2	0.6	1066.6666688	1066.6666688	2350.0000047	1650.0000033	Major	Good_deeds	35	You have illegally stayed in a country	C2_59	1.0	Easy	I1_24	60	Fibers in oranges can be used to make fabric	0.0	No	RIGHT	338.57399999988047	RIGHT	440.212099999826	LEFT	1103.086600000097	RIGHT	1175.2040000001216	47.20000000000001	0.6	Probable_Truth	LEFT	LEFT	1	493.54459999995015	123	2020-03-10 14:55:12.600287
38	Self	S200310	0.8333333333333334	1	2	2	1	0.5	1283.3333359	1350.0000027	1933.3333372	2216.6666711000003	Minor	Wrong_doings	31	You have thrown your trash into the bin	C1_20	0.7	Easy	I1_5	33	It takes 500 days to travel from Earth to Mars	0.888888888888889	Yes	RIGHT	1377.084400000058	RIGHT	1447.577899999942	RIGHT	1031.9335000003775	RIGHT	4768.103200000041	47.70000000000001	0.5	Probable_Truth	RIGHT	RIGHT	5	922.6720000001478	124	2020-03-10 14:55:41.512227
109	Computer	S200310	0.5	2	1	2	1	0.7	1066.6666688	1000.000002	1650.0000033	1650.0000033	Major	Good_deeds	25	You have started a movement to support a cause	C1_33	0.85	Hard	I2_27	60	A caterpillar has more muscle than a human	0.722222222222222	Yes	LEFT	703.9534000000458	LEFT	867.2997000003306	RIGHT	935.0005000001148	LEFT	1285.1753999998436	47.70000000000001	0.7	Probable_Truth	LEFT	LEFT	1	611.9515465023858	125	2020-03-10 14:56:03.864324
9	Self	S200310	0.5	2	1	1	2	0.7	1066.6666688	1433.3333362	1783.3333369	2350.0000047	Major	Good_deeds	14	You have helped with household chores	C2_28	0.0	Easy	I2_49	8	The Eiffel Tower is in Paris	0.0555555555555556	No	RIGHT	423.7003999996887	RIGHT	457.5998000000254	RIGHT	3716.199499999675	RIGHT	720.9648999996716	48.40000000000001	0.7	Probable_Truth	RIGHT	RIGHT	4	823.4047000000828	126	2020-03-10 14:56:29.216368
76	Self	S200310	0.6666666666666666	2	1	2	1	0.4	1500.000003	1350.0000027	2500.000005	1500.000003	Minor	Good_deeds	19	You have volunteered for a disaster-related humanitarian mission	C1_30	0.05	Easy	I1_52	8	Kangaroos live in Africa	0.166666666666667	Yes	RIGHT	215.48250000023472	RIGHT	636.0273000000234	RIGHT	725.4146999998738	LEFT	1605.7424000000535	48.80000000000001	0.4	Probable_Truth	RIGHT	RIGHT	3	879.6087000000625	127	2020-03-10 14:56:52.727739
136	Computer	S200310	0.8333333333333334	2	1	1	2	0.3	1066.6666688	1216.6666691	1933.3333372	2500.000005	Major	Good_deeds	23	You have donated a pay cheque to charity	C1_23	0.25	Easy	I2_11	35	Lehman Brothers went bankrupt on 20th September	0.0	No	RIGHT	486.7746999998417	RIGHT	498.1619000000137	RIGHT	1327.654000000166	RIGHT	943.2338999999956	49.10000000000001	0.3	Probable_Lie	LEFT	RIGHT	1	841.7833522604533	128	2020-03-10 14:57:16.128523
121	Computer	S200310	0.6666666666666666	2	1	1	2	0.2	1150.0000023	1000.000002	2066.6666708	2500.000005	Major	Good_deeds	1	You have sorted your trash into recycling bin	C1_38	0.65	Hard	I1_13	38	Brazil is in South America	0.0555555555555556	Yes	LEFT	215.133700000024	LEFT	709.0534999997544	RIGHT	741.1065999999664	LEFT	1511.0724999999547	49.10000000000001	0.2	Probable_Lie	RIGHT	RIGHT	1	529.2847568771853	129	2020-03-10 14:57:39.152447
43	Self	S200310	0.8333333333333334	2	1	1	2	0.8	1350.0000027	1500.000003	2500.000005	1500.000003	Major	Wrong_doings	57	You have fabricated facts about yourself	C1_57	0.05	Easy	I1_6	41	Singapore has four seasons	0.888888888888889	Yes	RIGHT	820.9831999997732	RIGHT	1255.7623000002422	LEFT	1296.894400000383	LEFT	1791.6165999999976	49.900000000000006	0.8	Probable_Truth	RIGHT	RIGHT	4	923.0747000001428	130	2020-03-10 14:58:04.688433
66	Self	S200310	0.6666666666666666	1	2	1	2	0.4	1283.3333359	1283.3333359	1650.0000033	2500.000005	Major	Good_deeds	35	You have engaged in arson	C2_43	0.0	Hard	I2_23	25	Beer is an alcoholic drink	0.666666666666667	No	RIGHT	1499.7034000002714	RIGHT	783.2210999999916	LEFT	1490.9560000000963	RIGHT	942.2393999998347	50.3	0.4	Probable_Truth	RIGHT	RIGHT	6	925.5106000000524	131	2020-03-10 14:58:29.640055
77	Self	S200310	0.6666666666666666	2	1	2	1	0.2	1433.3333362	1066.6666688	1933.3333372	2066.6666708	Major	Wrong_doings	54	You have blackmailed others for money	C2_54	0.85	Hard	I1_23	54	December is the last month of the year	0.0	No	RIGHT	198.7357000002703	RIGHT	2814.357100000052	LEFT	844.2140000001928	RIGHT	1112.4337000001103	50.50000000000001	0.2	Probable_Truth	LEFT	LEFT	1	1145.8308999999645	132	2020-03-10 14:58:54.854859
106	Computer	S200310	0.5	2	1	1	2	0.1	1150.0000023	1066.6666688	1933.3333372	2066.6666708	Minor	Wrong_doings	28	You have failed to keep promises	C1_36	0.85	Hard	I1_8	17	There are 30 hours in a day	0.944444444444444	Yes	LEFT	150.16390000027968	LEFT	584.4603000000461	LEFT	913.4893999998894	LEFT	951.1993999999504	50.50000000000001	0.1	Probable_Lie	RIGHT	LEFT	4	927.7548701919496	133	2020-03-10 14:59:17.200421
65	Self	S200310	0.6666666666666666	1	2	1	2	0.1	1350.0000027	1000.000002	2066.6666708	1783.3333369	Minor	Wrong_doings	3	You have volunteered every week for many years	C1_3	0.9	Hard	I2_55	23	It is snowing outside now	0.0	Yes	RIGHT	1537.6809999997931	RIGHT	391.57310000018697	RIGHT	1458.8420000000042	LEFT	1285.8252999999422	50.60000000000001	0.1	Probable_Lie	RIGHT	RIGHT	2	911.95770000013	134	2020-03-10 14:59:41.584419
71	Self	S200310	0.6666666666666666	1	2	2	1	0.5	1000.000002	1216.6666691	2350.0000047	1933.3333372	Major	Good_deeds	17	You have given directions to a lost tourist	C2_7	0.65	Easy	I1_48	59	Cernan was the second last man to walk on the Moon	0.0	Yes	RIGHT	1205.7849000002534	RIGHT	678.6876999999549	RIGHT	1343.7198000001445	LEFT	2246.081199999935	51.10000000000001	0.5	Probable_Truth	LEFT	LEFT	2	1014.3431999999848	135	2020-03-10 15:00:07.167664
122	Computer	S200310	0.6666666666666666	2	1	1	2	0.7	1000.000002	1216.6666691	1650.0000033	2216.6666711000003	Minor	Wrong_doings	44	You have watched an M18 movie when you were underage	C2_16	0.15	Easy	I2_38	41	Teddy Roosevelt was the youngest US President	0.0555555555555556	No	RIGHT	357.8668000000107	RIGHT	745.6740000002355	LEFT	849.8259999996662	RIGHT	2533.558300000095	51.80000000000001	0.7	Probable_Truth	RIGHT	RIGHT	4	514.2934777323195	136	2020-03-10 15:00:30.863666
36	Self	S200310	0.8333333333333334	1	2	2	1	0.1	1500.000003	1150.0000023	2216.6666711000003	2500.000005	Major	Good_deeds	59	You have been physically hurt to protect others	C1_49	0.0	Hard	I1_54	5	Penguin can fly with their wings	0.722222222222222	No	RIGHT	516.9805000000451	RIGHT	173.9701999999852	RIGHT	1045.886899999914	LEFT	842.4905000001672	51.90000000000001	0.1	Probable_Truth	RIGHT	RIGHT	2	1391.9016999998348	137	2020-03-10 15:00:54.807712
126	Computer	S200310	0.6666666666666666	2	1	2	1	0.8	1283.3333359	1066.6666688	2216.6666711000003	1933.3333372	Minor	Good_deeds	47	You have cursed at your loved ones	C1_1	0.95	Easy	I1_45	45	Obama is the USA president now	0.833333333333333	Yes	RIGHT	324.21600000043327	LEFT	1258.3088999999743	LEFT	1126.8448000000717	LEFT	1134.7436000000926	51.90000000000001	0.8	Probable_Truth	RIGHT	RIGHT	5	736.8091521749141	138	2020-03-10 15:01:18.488113
5	Self	S200310	0.5	1	2	2	1	0.3	1350.0000027	1066.6666688	1933.3333372	2500.000005	Major	Wrong_doings	34	You have signed up as a bone marrow donor	C1_7	0.05	Hard	I1_35	35	Earth's atmosphere extends up to 10,000km into space	0.833333333333333	Yes	RIGHT	270.40619999979754	RIGHT	253.9382999998452	RIGHT	782.114300000103	LEFT	1232.5172000000748	52.20000000000001	0.3	Probable_Truth	RIGHT	RIGHT	6	1046.186800000214	139	2020-03-10 15:01:41.518780
95	Self	S200310	0.8333333333333334	2	1	2	1	0.7	1350.0000027	1500.000003	2350.0000047	1650.0000033	Major	Good_deeds	1	You have sold illegal drugs	C1_37	0.0	Hard	I2_13	50	Polish is 20th most spoken language in the World	0.833333333333333	No	RIGHT	240.11010000003807	RIGHT	331.18960000001607	LEFT	975.042300000041	LEFT	2254.5242000001053	52.90000000000001	0.7	Probable_Lie	LEFT	LEFT	5	467.9180999996788	140	2020-03-10 15:02:05.240007
114	Computer	S200310	0.6666666666666666	1	2	1	2	0.7	1216.6666691	1216.6666691	2350.0000047	1783.3333369	Major	Good_deeds	29	You have downloaded pirated movies	C1_43	1.0	Easy	I1_26	1	Some owl species hunt fish	0.944444444444444	No	RIGHT	526.8617000001541	RIGHT	550.7855000000745	LEFT	806.1810000003788	RIGHT	1911.737199999607	53.600000000000016	0.7	Probable_Lie	LEFT	RIGHT	1	801.4345496347892	141	2020-03-10 15:02:28.992565
67	Self	S200310	0.6666666666666666	1	2	1	2	0.8	1150.0000023	1433.3333362	1933.3333372	1500.000003	Major	Good_deeds	43	You have faked an illness	C1_42	0.0	Hard	I1_53	3	The human's inner ear is larger than a pencil eraser	0.111111111111111	Yes	RIGHT	324.25289999991946	RIGHT	53.69929999960732	LEFT	971.9689999992625	LEFT	3319.8645000002216	54.40000000000001	0.8	Probable_Truth	RIGHT	RIGHT	5	594.9681000001874	142	2020-03-10 15:02:52.870988
134	Computer	S200310	0.8333333333333334	1	2	2	1	0.7	1283.3333359	1500.000003	2216.6666711000003	1650.0000033	Minor	Wrong_doings	31	You have thrown your trash into the bin	C1_20	0.7	Easy	I1_5	33	It takes 500 days to travel from Earth to Mars	0.888888888888889	Yes	RIGHT	1048.8732000003438	RIGHT	136.21560000046884	RIGHT	743.976599999769	RIGHT	3527.402099999563	55.100000000000016	0.7	Probable_Truth	RIGHT	RIGHT	3	534.1686689765584	143	2020-03-10 15:03:18.088369
