Participant	Task	Stimulus_Side	Response	RT	ITI	Previous_Response	Previous_RT	Trial_Onset	Trial_End	Trial_Order	Duration	Conflict	Cue_Response	Cue_Response_RT	Stop_Signal	Stop_Signal_RT
S200310	Conflict_Resolution	LEFT	LEFT	743.372099999988	1116.6666689	n/a	n/a	2020-03-10 13:37:30.557770	2020-03-10 13:37:31.508764	1	6.74722745	False	n/a	n/a	n/a	n/a
S200310	Conflict_Resolution	RIGHT	RIGHT	814.479799999958	550.0000011	n/a	n/a	2020-03-10 13:37:32.078728	2020-03-10 13:37:33.100122	2	6.74722745	True	n/a	n/a	n/a	n/a
S200310	Conflict_Resolution	LEFT	LEFT	755.222000000003	1050.0000021	n/a	n/a	2020-03-10 13:37:34.169950	2020-03-10 13:37:35.133585	3	6.74722745	True	n/a	n/a	n/a	n/a
S200310	Conflict_Resolution	RIGHT	RIGHT	544.684099999927	900.0000018	n/a	n/a	2020-03-10 13:37:36.052713	2020-03-10 13:37:36.805443	4	6.74722745	True	n/a	n/a	n/a	n/a
S200310	Conflict_Resolution	RIGHT	RIGHT	618.655499999932	683.3333347	n/a	n/a	2020-03-10 13:37:37.506559	2020-03-10 13:37:38.333548	5	6.74722745	True	n/a	n/a	n/a	n/a
S200310	Conflict_Resolution	RIGHT	RIGHT	398.231099999975	1150.0000023	n/a	n/a	2020-03-10 13:37:39.503201	2020-03-10 13:37:40.108756	6	6.74722745	False	n/a	n/a	n/a	n/a
S200310	Conflict_Resolution	RIGHT	RIGHT	601.24159999998	700.0000014	n/a	n/a	2020-03-10 13:37:40.827743	2020-03-10 13:37:41.637665	7	6.74722745	True	n/a	n/a	n/a	n/a
S200310	Conflict_Resolution	LEFT	LEFT	645.35699999999	766.6666682	n/a	n/a	2020-03-10 13:37:42.423534	2020-03-10 13:37:43.277706	8	6.74722745	True	n/a	n/a	n/a	n/a
S200310	Conflict_Resolution	RIGHT	RIGHT	444.207800000072	1183.3333357	n/a	n/a	2020-03-10 13:37:44.480727	2020-03-10 13:37:45.133539	9	6.74722745	False	n/a	n/a	n/a	n/a
S200310	Conflict_Resolution	LEFT	LEFT	388.43230000009	783.3333349	n/a	n/a	2020-03-10 13:37:45.936057	2020-03-10 13:37:46.534255	10	6.74722745	False	n/a	n/a	n/a	n/a
S200310	Conflict_Resolution	RIGHT	RIGHT	556.300100000044	1383.3333361	n/a	n/a	2020-03-10 13:37:47.936529	2020-03-10 13:37:48.701402	11	6.74722745	True	n/a	n/a	n/a	n/a
S200310	Conflict_Resolution	LEFT	LEFT	558.99850000003	533.3333344	n/a	n/a	2020-03-10 13:37:49.253568	2020-03-10 13:37:50.021600	12	6.74722745	True	n/a	n/a	n/a	n/a
S200310	Conflict_Resolution	LEFT	LEFT	619.093700000008	816.6666683	n/a	n/a	2020-03-10 13:37:50.857514	2020-03-10 13:37:51.684768	13	6.74722745	False	n/a	n/a	n/a	n/a
S200310	Conflict_Resolution	RIGHT	RIGHT	428.380500000003	783.3333349	n/a	n/a	2020-03-10 13:37:52.488574	2020-03-10 13:37:53.124396	14	6.74722745	False	n/a	n/a	n/a	n/a
S200310	Conflict_Resolution	RIGHT	RIGHT	505.439999999908	1133.3333356	n/a	n/a	2020-03-10 13:37:54.275711	2020-03-10 13:37:54.987879	15	6.74722745	False	n/a	n/a	n/a	n/a
S200310	Conflict_Resolution	LEFT	LEFT	534.352600000034	1216.6666691	n/a	n/a	2020-03-10 13:37:56.222223	2020-03-10 13:37:56.966308	16	6.74722745	True	n/a	n/a	n/a	n/a
S200310	Conflict_Resolution	RIGHT	RIGHT	509.681900000032	1333.333336	n/a	n/a	2020-03-10 13:37:58.319553	2020-03-10 13:37:59.037477	17	6.74722745	True	n/a	n/a	n/a	n/a
S200310	Conflict_Resolution	RIGHT	RIGHT	665.149499999984	883.3333351	n/a	n/a	2020-03-10 13:37:59.940442	2020-03-10 13:38:00.812853	18	6.74722745	False	n/a	n/a	n/a	n/a
S200310	Conflict_Resolution	RIGHT	RIGHT	676.517100000069	1000.000002	n/a	n/a	2020-03-10 13:38:01.831922	2020-03-10 13:38:02.717469	19	6.74722745	True	n/a	n/a	n/a	n/a
S200310	Conflict_Resolution	RIGHT	RIGHT	642.859000000044	1233.3333358	n/a	n/a	2020-03-10 13:38:03.969703	2020-03-10 13:38:04.821665	20	6.74722745	True	n/a	n/a	n/a	n/a
S200310	Conflict_Resolution	RIGHT	RIGHT	630.52909999999	933.3333352	n/a	n/a	2020-03-10 13:38:05.774718	2020-03-10 13:38:06.612674	21	6.74722745	False	n/a	n/a	n/a	n/a
S200310	Conflict_Resolution	RIGHT	RIGHT	570.523600000001	1466.6666696	n/a	n/a	2020-03-10 13:38:08.098388	2020-03-10 13:38:08.877511	22	6.74722745	False	n/a	n/a	n/a	n/a
S200310	Conflict_Resolution	RIGHT	RIGHT	388.01669999998	800.0000016	n/a	n/a	2020-03-10 13:38:09.697178	2020-03-10 13:38:10.294027	23	6.74722745	False	n/a	n/a	n/a	n/a
S200310	Conflict_Resolution	LEFT	LEFT	568.658400000004	1466.6666696	n/a	n/a	2020-03-10 13:38:11.780287	2020-03-10 13:38:12.557340	24	6.74722745	True	n/a	n/a	n/a	n/a
S200310	Conflict_Resolution	LEFT	LEFT	777.419399999985	633.3333346	n/a	n/a	2020-03-10 13:38:13.211585	2020-03-10 13:38:14.196098	25	6.74722745	False	n/a	n/a	n/a	n/a
S200310	Conflict_Resolution	RIGHT	RIGHT	481.761799999958	1033.3333354	n/a	n/a	2020-03-10 13:38:15.251516	2020-03-10 13:38:15.940512	26	6.74722745	False	n/a	n/a	n/a	n/a
S200310	Conflict_Resolution	RIGHT	RIGHT	601.921199999992	1483.3333363	n/a	n/a	2020-03-10 13:38:17.442723	2020-03-10 13:38:18.253661	27	6.74722745	True	n/a	n/a	n/a	n/a
S200310	Conflict_Resolution	LEFT	LEFT	546.609200000034	1416.6666695	n/a	n/a	2020-03-10 13:38:19.690077	2020-03-10 13:38:20.445506	28	6.74722745	False	n/a	n/a	n/a	n/a
S200310	Conflict_Resolution	RIGHT	RIGHT	499.651999999969	850.0000017	n/a	n/a	2020-03-10 13:38:21.313285	2020-03-10 13:38:22.021350	29	6.74722745	True	n/a	n/a	n/a	n/a
S200310	Conflict_Resolution	RIGHT	RIGHT	578.554600000075	1433.3333362	n/a	n/a	2020-03-10 13:38:23.474702	2020-03-10 13:38:24.260959	30	6.74722745	True	n/a	n/a	n/a	n/a
S200310	Conflict_Resolution	RIGHT	RIGHT	548.258300000043	1183.3333357	n/a	n/a	2020-03-10 13:38:25.464987	2020-03-10 13:38:26.220172	31	6.74722745	True	n/a	n/a	n/a	n/a
S200310	Conflict_Resolution	LEFT	LEFT	727.417099999911	1150.0000023	n/a	n/a	2020-03-10 13:38:27.389939	2020-03-10 13:38:28.325676	32	6.74722745	False	n/a	n/a	n/a	n/a
S200310	Conflict_Resolution	LEFT	LEFT	779.767600000014	783.3333349	n/a	n/a	2020-03-10 13:38:29.129586	2020-03-10 13:38:30.117305	33	6.74722745	True	n/a	n/a	n/a	n/a
S200310	Conflict_Resolution	LEFT	LEFT	878.914000000009	533.3333344	n/a	n/a	2020-03-10 13:38:30.669797	2020-03-10 13:38:31.756121	34	6.74722745	False	n/a	n/a	n/a	n/a
S200310	Conflict_Resolution	RIGHT	RIGHT	382.676899999979	1383.3333361	n/a	n/a	2020-03-10 13:38:33.158489	2020-03-10 13:38:33.748919	35	6.74722745	False	n/a	n/a	n/a	n/a
S200310	Conflict_Resolution	LEFT	LEFT	528.727600000025	733.3333348	n/a	n/a	2020-03-10 13:38:34.500038	2020-03-10 13:38:35.236013	36	6.74722745	False	n/a	n/a	n/a	n/a
S200310	Conflict_Resolution	RIGHT	RIGHT	469.672099999912	600.0000012	n/a	n/a	2020-03-10 13:38:35.855584	2020-03-10 13:38:36.533625	37	6.74722745	True	n/a	n/a	n/a	n/a
S200310	Conflict_Resolution	LEFT	LEFT	579.432999999995	1016.6666687	n/a	n/a	2020-03-10 13:38:37.569547	2020-03-10 13:38:38.357249	38	6.74722745	False	n/a	n/a	n/a	n/a
S200310	Conflict_Resolution	RIGHT	RIGHT	533.937599999945	1366.6666694	n/a	n/a	2020-03-10 13:38:39.742815	2020-03-10 13:38:40.483842	39	6.74722745	False	n/a	n/a	n/a	n/a
S200310	Conflict_Resolution	LEFT	LEFT	1284.12600000001	850.0000017	n/a	n/a	2020-03-10 13:38:41.352395	2020-03-10 13:38:42.844853	40	6.74722745	True	n/a	n/a	n/a	n/a
S200310	Conflict_Resolution	RIGHT	RIGHT	524.673900000039	1000.000002	n/a	n/a	2020-03-10 13:38:43.864368	2020-03-10 13:38:44.595975	41	6.74722745	False	n/a	n/a	n/a	n/a
S200310	Conflict_Resolution	RIGHT	RIGHT	543.076000000042	550.0000011	n/a	n/a	2020-03-10 13:38:45.165488	2020-03-10 13:38:45.917454	42	6.74722745	False	n/a	n/a	n/a	n/a
S200310	Conflict_Resolution	RIGHT	RIGHT	537.697099999946	1266.6666692	n/a	n/a	2020-03-10 13:38:47.203775	2020-03-10 13:38:47.949077	43	6.74722745	False	n/a	n/a	n/a	n/a
S200310	Conflict_Resolution	RIGHT	RIGHT	571.31169999991	833.333335	n/a	n/a	2020-03-10 13:38:48.801346	2020-03-10 13:38:49.581297	44	6.74722745	True	n/a	n/a	n/a	n/a
S200310	Conflict_Resolution	RIGHT	RIGHT	440.85819999998	1483.3333363	n/a	n/a	2020-03-10 13:38:51.083787	2020-03-10 13:38:51.732550	45	6.74722745	False	n/a	n/a	n/a	n/a
S200310	Conflict_Resolution	RIGHT	RIGHT	574.068900000043	1416.6666695	n/a	n/a	2020-03-10 13:38:53.167442	2020-03-10 13:38:53.948808	46	6.74722745	True	n/a	n/a	n/a	n/a
S200310	Conflict_Resolution	LEFT	RIGHT	639.05120000004	950.0000019	n/a	n/a	2020-03-10 13:38:54.918228	2020-03-10 13:38:55.763988	47	6.74722745	True	n/a	n/a	n/a	n/a
S200310	Conflict_Resolution	RIGHT	RIGHT	478.124399999956	533.3333344	n/a	n/a	2020-03-10 13:38:56.319242	2020-03-10 13:38:57.005440	48	6.74722745	False	n/a	n/a	n/a	n/a
S200310	Conflict_Resolution	RIGHT	RIGHT	721.900799999958	1050.0000021	n/a	n/a	2020-03-10 13:38:58.074788	2020-03-10 13:38:59.005373	49	6.74722745	True	n/a	n/a	n/a	n/a
S200310	Conflict_Resolution	RIGHT	RIGHT	723.077999999987	1033.3333354	n/a	n/a	2020-03-10 13:39:00.058243	2020-03-10 13:39:00.990353	50	6.74722745	True	n/a	n/a	n/a	n/a
S200310	Conflict_Resolution	RIGHT	RIGHT	548.092200000042	583.3333345	n/a	n/a	2020-03-10 13:39:01.592274	2020-03-10 13:39:02.349282	51	6.74722745	True	n/a	n/a	n/a	n/a
S200310	Conflict_Resolution	RIGHT	RIGHT	543.861200000038	883.3333351	n/a	n/a	2020-03-10 13:39:03.253179	2020-03-10 13:39:04.004921	52	6.74722745	True	n/a	n/a	n/a	n/a
S200310	Conflict_Resolution	RIGHT	RIGHT	577.990699999987	500.000001	n/a	n/a	2020-03-10 13:39:04.522562	2020-03-10 13:39:05.308003	53	6.74722745	True	n/a	n/a	n/a	n/a
S200310	Conflict_Resolution	RIGHT	RIGHT	711.641500000042	750.0000015	n/a	n/a	2020-03-10 13:39:06.077689	2020-03-10 13:39:06.996061	54	6.74722745	True	n/a	n/a	n/a	n/a
S200310	Conflict_Resolution	LEFT	LEFT	685.943199999997	1166.666669	n/a	n/a	2020-03-10 13:39:08.183013	2020-03-10 13:39:09.076071	55	6.74722745	False	n/a	n/a	n/a	n/a
S200310	Conflict_Resolution	LEFT	LEFT	909.205799999995	1400.0000028	n/a	n/a	2020-03-10 13:39:10.495356	2020-03-10 13:39:11.613410	56	6.74722745	True	n/a	n/a	n/a	n/a
S200310	Conflict_Resolution	LEFT	LEFT	655.881700000009	1350.0000027	n/a	n/a	2020-03-10 13:39:12.980977	2020-03-10 13:39:13.845661	57	6.74722745	True	n/a	n/a	n/a	n/a
S200310	Conflict_Resolution	LEFT	LEFT	587.758299999905	1400.0000028	n/a	n/a	2020-03-10 13:39:15.264974	2020-03-10 13:39:16.061233	58	6.74722745	False	n/a	n/a	n/a	n/a
S200310	Conflict_Resolution	RIGHT	RIGHT	680.565799999954	500.000001	n/a	n/a	2020-03-10 13:39:16.579840	2020-03-10 13:39:17.469501	59	6.74722745	False	n/a	n/a	n/a	n/a
S200310	Conflict_Resolution	RIGHT	RIGHT	775.591399999939	1100.0000022	n/a	n/a	2020-03-10 13:39:18.589537	2020-03-10 13:39:19.573667	60	6.74722745	True	n/a	n/a	n/a	n/a
S200310	Conflict_Resolution	LEFT	LEFT	521.250699999996	1066.6666688	n/a	n/a	2020-03-10 13:39:20.659858	2020-03-10 13:39:21.387956	61	6.74722745	False	n/a	n/a	n/a	n/a
S200310	Conflict_Resolution	LEFT	LEFT	594.535399999927	516.6666677	n/a	n/a	2020-03-10 13:39:21.922006	2020-03-10 13:39:22.723858	62	6.74722745	False	n/a	n/a	n/a	n/a
S200310	Conflict_Resolution	RIGHT	RIGHT	586.688399999957	1283.3333359	n/a	n/a	2020-03-10 13:39:24.026578	2020-03-10 13:39:24.820192	63	6.74722745	True	n/a	n/a	n/a	n/a
S200310	Conflict_Resolution	LEFT	LEFT	908.905900000036	1416.6666695	n/a	n/a	2020-03-10 13:39:26.256489	2020-03-10 13:39:27.373619	64	6.74722745	True	n/a	n/a	n/a	n/a
S200310	Conflict_Resolution	LEFT	LEFT	743.767299999945	900.0000018	n/a	n/a	2020-03-10 13:39:28.292831	2020-03-10 13:39:29.244848	65	6.74722745	False	n/a	n/a	n/a	n/a
S200310	Conflict_Resolution	RIGHT	RIGHT	645.300500000076	1433.3333362	n/a	n/a	2020-03-10 13:39:30.695862	2020-03-10 13:39:31.549520	66	6.74722745	False	n/a	n/a	n/a	n/a
S200310	Conflict_Resolution	RIGHT	RIGHT	656.412799999998	700.0000014	n/a	n/a	2020-03-10 13:39:32.268784	2020-03-10 13:39:33.132101	67	6.74722745	False	n/a	n/a	n/a	n/a
S200310	Conflict_Resolution	LEFT	LEFT	1248.60609999996	1316.6666693	n/a	n/a	2020-03-10 13:39:34.468684	2020-03-10 13:39:35.923793	68	6.74722745	True	n/a	n/a	n/a	n/a
S200310	Conflict_Resolution	RIGHT	RIGHT	610.374999999976	733.3333348	n/a	n/a	2020-03-10 13:39:36.674851	2020-03-10 13:39:37.493645	69	6.74722745	False	n/a	n/a	n/a	n/a
S200310	Conflict_Resolution	RIGHT	RIGHT	692.83699999994	583.3333345	n/a	n/a	2020-03-10 13:39:38.095914	2020-03-10 13:39:38.997454	70	6.74722745	False	n/a	n/a	n/a	n/a
S200310	Conflict_Resolution	LEFT	LEFT	770.092199999908	766.6666682	n/a	n/a	2020-03-10 13:39:39.786652	2020-03-10 13:39:40.765152	71	6.74722745	False	n/a	n/a	n/a	n/a
S200310	Conflict_Resolution	RIGHT	RIGHT	560.428900000034	900.0000018	n/a	n/a	2020-03-10 13:39:41.684890	2020-03-10 13:39:42.453164	72	6.74722745	False	n/a	n/a	n/a	n/a
S200310	Conflict_Resolution	LEFT	LEFT	1341.82420000002	1366.6666694	n/a	n/a	2020-03-10 13:39:43.839193	2020-03-10 13:39:45.389200	73	6.74722745	True	n/a	n/a	n/a	n/a
S200310	Conflict_Resolution	LEFT	LEFT	959.402300000079	716.6666681	n/a	n/a	2020-03-10 13:39:46.125821	2020-03-10 13:39:47.293605	74	6.74722745	True	n/a	n/a	n/a	n/a
S200310	Conflict_Resolution	LEFT	LEFT	1066.11369999996	683.3333347	n/a	n/a	2020-03-10 13:39:47.994826	2020-03-10 13:39:49.268558	75	6.74722745	True	n/a	n/a	n/a	n/a
S200310	Conflict_Resolution	RIGHT	RIGHT	979.606900000022	633.3333346	n/a	n/a	2020-03-10 13:39:49.921449	2020-03-10 13:39:51.107769	76	6.74722745	True	n/a	n/a	n/a	n/a
S200310	Conflict_Resolution	RIGHT	RIGHT	727.269800000045	800.0000016	n/a	n/a	2020-03-10 13:39:51.925965	2020-03-10 13:39:52.861084	77	6.74722745	True	n/a	n/a	n/a	n/a
S200310	Conflict_Resolution	LEFT	LEFT	706.054999999992	1466.6666696	n/a	n/a	2020-03-10 13:39:54.346860	2020-03-10 13:39:55.261398	78	6.74722745	False	n/a	n/a	n/a	n/a
S200310	Conflict_Resolution	LEFT	LEFT	799.769400000059	516.6666677	n/a	n/a	2020-03-10 13:39:55.797563	2020-03-10 13:39:56.805537	79	6.74722745	True	n/a	n/a	n/a	n/a
S200310	Conflict_Resolution	RIGHT	RIGHT	1094.80510000003	733.3333348	n/a	n/a	2020-03-10 13:39:57.558378	2020-03-10 13:39:58.860072	80	6.74722745	True	n/a	n/a	n/a	n/a
S200310	Conflict_Resolution	LEFT	LEFT	955.767600000058	616.6666679	n/a	n/a	2020-03-10 13:39:59.497311	2020-03-10 13:40:00.660082	81	6.74722745	True	n/a	n/a	n/a	n/a
S200310	Conflict_Resolution	RIGHT	RIGHT	561.060999999995	1100.0000022	n/a	n/a	2020-03-10 13:40:01.779946	2020-03-10 13:40:02.548059	82	6.74722745	False	n/a	n/a	n/a	n/a
S200310	Conflict_Resolution	LEFT	LEFT	1324.65419999994	666.666668	n/a	n/a	2020-03-10 13:40:03.232547	2020-03-10 13:40:04.765673	83	6.74722745	True	n/a	n/a	n/a	n/a
S200310	Conflict_Resolution	RIGHT	RIGHT	481.74240000003	1050.0000021	n/a	n/a	2020-03-10 13:40:05.835217	2020-03-10 13:40:06.525579	84	6.74722745	False	n/a	n/a	n/a	n/a
S200310	Conflict_Resolution	LEFT	LEFT	515.541799999937	1050.0000021	n/a	n/a	2020-03-10 13:40:07.593383	2020-03-10 13:40:08.317336	85	6.74722745	False	n/a	n/a	n/a	n/a
S200310	Conflict_Resolution	LEFT	LEFT	587.682199999904	1216.6666691	n/a	n/a	2020-03-10 13:40:09.553556	2020-03-10 13:40:10.348027	86	6.74722745	False	n/a	n/a	n/a	n/a
S200310	Conflict_Resolution	LEFT	LEFT	630.976099999998	966.6666686	n/a	n/a	2020-03-10 13:40:11.333538	2020-03-10 13:40:12.173282	87	6.74722745	True	n/a	n/a	n/a	n/a
S200310	Conflict_Resolution	LEFT	LEFT	627.7063	616.6666679	n/a	n/a	2020-03-10 13:40:12.809548	2020-03-10 13:40:13.644014	88	6.74722745	False	n/a	n/a	n/a	n/a
S200310	Conflict_Resolution	RIGHT	RIGHT	837.6520999999	983.3333353	n/a	n/a	2020-03-10 13:40:14.647458	2020-03-10 13:40:15.693308	89	6.74722745	True	n/a	n/a	n/a	n/a
S200310	Conflict_Resolution	LEFT	LEFT	628.002700000025	816.6666683	n/a	n/a	2020-03-10 13:40:16.529127	2020-03-10 13:40:17.365425	90	6.74722745	True	n/a	n/a	n/a	n/a
S200310	Conflict_Resolution	LEFT	LEFT	671.273700000029	1366.6666694	n/a	n/a	2020-03-10 13:40:18.750635	2020-03-10 13:40:19.630579	91	6.74722745	False	n/a	n/a	n/a	n/a
S200310	Conflict_Resolution	RIGHT	RIGHT	698.230299999977	650.0000013	n/a	n/a	2020-03-10 13:40:20.298841	2020-03-10 13:40:21.204014	92	6.74722745	True	n/a	n/a	n/a	n/a
S200310	Conflict_Resolution	LEFT	LEFT	669.783800000005	1000.000002	n/a	n/a	2020-03-10 13:40:22.223157	2020-03-10 13:40:23.100477	93	6.74722745	False	n/a	n/a	n/a	n/a
S200310	Conflict_Resolution	LEFT	LEFT	1050.5508	866.6666684	n/a	n/a	2020-03-10 13:40:23.986078	2020-03-10 13:40:25.245308	94	6.74722745	False	n/a	n/a	n/a	n/a
S200310	Conflict_Resolution	LEFT	LEFT	623.780799999963	1500.000003	n/a	n/a	2020-03-10 13:40:26.765335	2020-03-10 13:40:27.596122	95	6.74722745	True	n/a	n/a	n/a	n/a
S200310	Conflict_Resolution	LEFT	LEFT	807.042300000035	566.6666678	n/a	n/a	2020-03-10 13:40:28.182182	2020-03-10 13:40:29.195819	96	6.74722745	True	n/a	n/a	n/a	n/a
S200310	Conflict_Resolution	LEFT	LEFT	522.030699999959	1300.0000026	n/a	n/a	2020-03-10 13:40:30.515292	2020-03-10 13:40:31.245347	97	6.74722745	True	n/a	n/a	n/a	n/a
S200310	Conflict_Resolution	RIGHT	RIGHT	772.858799999995	950.0000019	n/a	n/a	2020-03-10 13:40:32.215897	2020-03-10 13:40:33.195882	98	6.74722745	False	n/a	n/a	n/a	n/a
S200310	Conflict_Resolution	LEFT	LEFT	565.620099999933	583.3333345	n/a	n/a	2020-03-10 13:40:33.799683	2020-03-10 13:40:34.571821	99	6.74722745	True	n/a	n/a	n/a	n/a
S200310	Conflict_Resolution	LEFT	LEFT	519.785899999988	1350.0000027	n/a	n/a	2020-03-10 13:40:35.941310	2020-03-10 13:40:36.668995	100	6.74722745	False	n/a	n/a	n/a	n/a
S200310	Conflict_Resolution	LEFT	LEFT	635.984900000039	1016.6666687	n/a	n/a	2020-03-10 13:40:37.705293	2020-03-10 13:40:38.549327	101	6.74722745	True	n/a	n/a	n/a	n/a
S200310	Conflict_Resolution	RIGHT	RIGHT	843.699300000026	1216.6666691	n/a	n/a	2020-03-10 13:40:39.785739	2020-03-10 13:40:40.836960	102	6.74722745	True	n/a	n/a	n/a	n/a
S200310	Conflict_Resolution	RIGHT	RIGHT	593.099000000052	683.3333347	n/a	n/a	2020-03-10 13:40:41.539588	2020-03-10 13:40:42.341488	103	6.74722745	False	n/a	n/a	n/a	n/a
S200310	Conflict_Resolution	LEFT	LEFT	813.625900000034	1200.0000024	n/a	n/a	2020-03-10 13:40:43.559449	2020-03-10 13:40:44.580102	104	6.74722745	True	n/a	n/a	n/a	n/a
S200310	Conflict_Resolution	RIGHT	RIGHT	511.656600000038	750.0000015	n/a	n/a	2020-03-10 13:40:45.349030	2020-03-10 13:40:46.069244	105	6.74722745	False	n/a	n/a	n/a	n/a
S200310	Conflict_Resolution	LEFT	LEFT	580.219199999988	633.3333346	n/a	n/a	2020-03-10 13:40:46.720753	2020-03-10 13:40:47.509593	106	6.74722745	True	n/a	n/a	n/a	n/a
S200310	Conflict_Resolution	LEFT	LEFT	518.704299999968	733.3333348	n/a	n/a	2020-03-10 13:40:48.262556	2020-03-10 13:40:48.989586	107	6.74722745	True	n/a	n/a	n/a	n/a
S200310	Conflict_Resolution	RIGHT	RIGHT	514.018699999951	1233.3333358	n/a	n/a	2020-03-10 13:40:50.243237	2020-03-10 13:40:50.964978	108	6.74722745	False	n/a	n/a	n/a	n/a
S200310	Conflict_Resolution	LEFT	LEFT	496.189200000003	566.6666678	n/a	n/a	2020-03-10 13:40:51.549345	2020-03-10 13:40:52.254455	109	6.74722745	False	n/a	n/a	n/a	n/a
S200310	Conflict_Resolution	LEFT	LEFT	547.340500000018	583.3333345	n/a	n/a	2020-03-10 13:40:52.857942	2020-03-10 13:40:53.613333	110	6.74722745	False	n/a	n/a	n/a	n/a
S200310	Conflict_Resolution	LEFT	LEFT	489.587499999971	1300.0000026	n/a	n/a	2020-03-10 13:40:54.931206	2020-03-10 13:40:55.629487	111	6.74722745	False	n/a	n/a	n/a	n/a
S200310	Conflict_Resolution	RIGHT	RIGHT	747.866499999986	850.0000017	n/a	n/a	2020-03-10 13:40:56.496858	2020-03-10 13:40:57.453556	112	6.74722745	False	n/a	n/a	n/a	n/a
S200310	Conflict_Resolution	RIGHT	RIGHT	449.708299999998	833.333335	n/a	n/a	2020-03-10 13:40:58.307337	2020-03-10 13:40:58.965797	113	6.74722745	False	n/a	n/a	n/a	n/a
S200310	Conflict_Resolution	LEFT	LEFT	472.349299999905	683.3333347	n/a	n/a	2020-03-10 13:40:59.669203	2020-03-10 13:41:00.348947	114	6.74722745	False	n/a	n/a	n/a	n/a
S200310	Conflict_Resolution	RIGHT	RIGHT	647.310199999993	1316.6666693	n/a	n/a	2020-03-10 13:41:01.685967	2020-03-10 13:41:02.541228	115	6.74722745	True	n/a	n/a	n/a	n/a
S200310	Conflict_Resolution	LEFT	LEFT	461.822900000016	950.0000019	n/a	n/a	2020-03-10 13:41:03.511020	2020-03-10 13:41:04.181616	116	6.74722745	False	n/a	n/a	n/a	n/a
S200310	Conflict_Resolution	RIGHT	RIGHT	532.980399999815	1366.6666694	n/a	n/a	2020-03-10 13:41:05.568296	2020-03-10 13:41:06.308994	117	6.74722745	True	n/a	n/a	n/a	n/a
S200310	Conflict_Resolution	RIGHT	RIGHT	613.396699999839	983.3333353	n/a	n/a	2020-03-10 13:41:07.311829	2020-03-10 13:41:08.132138	118	6.74722745	False	n/a	n/a	n/a	n/a
S200310	Conflict_Resolution	RIGHT	RIGHT	532.974700000068	650.0000013	n/a	n/a	2020-03-10 13:41:08.799365	2020-03-10 13:41:09.539833	119	6.74722745	False	n/a	n/a	n/a	n/a
S200310	Conflict_Resolution	LEFT	LEFT	491.603599999962	1066.6666688	n/a	n/a	2020-03-10 13:41:10.625545	2020-03-10 13:41:11.325291	120	6.74722745	True	n/a	n/a	n/a	n/a
S200310	Conflict_Resolution	LEFT	LEFT	521.990100000039	1450.0000029	n/a	n/a	2020-03-10 13:41:12.794854	2020-03-10 13:41:13.525351	121	6.74722745	False	n/a	n/a	n/a	n/a
S200310	Conflict_Resolution	RIGHT	RIGHT	712.078800000199	1133.3333356	n/a	n/a	2020-03-10 13:41:14.676497	2020-03-10 13:41:15.596051	122	6.74722745	True	n/a	n/a	n/a	n/a
S200310	Conflict_Resolution	RIGHT	RIGHT	574.232599999959	783.3333349	n/a	n/a	2020-03-10 13:41:16.398943	2020-03-10 13:41:17.179829	123	6.74722745	True	n/a	n/a	n/a	n/a
S200310	Conflict_Resolution	RIGHT	RIGHT	485.815699999876	600.0000012	n/a	n/a	2020-03-10 13:41:17.799096	2020-03-10 13:41:18.494648	124	6.74722745	False	n/a	n/a	n/a	n/a
S200310	Conflict_Resolution	LEFT	LEFT	961.071500000116	1250.0000025	n/a	n/a	2020-03-10 13:41:19.764150	2020-03-10 13:41:20.932495	125	6.74722745	True	n/a	n/a	n/a	n/a
S200310	Conflict_Resolution	RIGHT	RIGHT	474.315999999817	1466.6666696	n/a	n/a	2020-03-10 13:41:22.418997	2020-03-10 13:41:23.101469	126	6.74722745	True	n/a	n/a	n/a	n/a
S200310	Conflict_Resolution	RIGHT	RIGHT	601.160100000016	1083.3333355	n/a	n/a	2020-03-10 13:41:24.203901	2020-03-10 13:41:25.011727	127	6.74722745	False	n/a	n/a	n/a	n/a
S200310	Conflict_Resolution	LEFT	LEFT	466.4965999998	1266.6666692	n/a	n/a	2020-03-10 13:41:26.299023	2020-03-10 13:41:26.973799	128	6.74722745	False	n/a	n/a	n/a	n/a
S200310	Conflict_Resolution	LEFT	LEFT	518.656699999838	916.6666685	n/a	n/a	2020-03-10 13:41:27.909833	2020-03-10 13:41:28.636388	129	6.74722745	False	n/a	n/a	n/a	n/a
S200310	Conflict_Resolution	LEFT	LEFT	440.013000000135	1316.6666693	n/a	n/a	2020-03-10 13:41:29.973194	2020-03-10 13:41:30.621554	130	6.74722745	False	n/a	n/a	n/a	n/a
S200310	Conflict_Resolution	RIGHT	RIGHT	752.42060000005	1083.3333355	n/a	n/a	2020-03-10 13:41:31.723987	2020-03-10 13:41:32.684178	131	6.74722745	True	n/a	n/a	n/a	n/a
S200310	Conflict_Resolution	LEFT	LEFT	437.866499999927	966.6666686	n/a	n/a	2020-03-10 13:41:33.671399	2020-03-10 13:41:34.316131	132	6.74722745	False	n/a	n/a	n/a	n/a
S200310	Conflict_Resolution	LEFT	LEFT	672.701599999982	1116.6666689	n/a	n/a	2020-03-10 13:41:35.451611	2020-03-10 13:41:36.333261	133	6.74722745	True	n/a	n/a	n/a	n/a
S200310	Conflict_Resolution	LEFT	LEFT	495.403399999987	1500.000003	n/a	n/a	2020-03-10 13:41:37.853788	2020-03-10 13:41:38.556135	134	6.74722745	False	n/a	n/a	n/a	n/a
S200310	Conflict_Resolution	RIGHT	RIGHT	600.345299999844	1333.333336	n/a	n/a	2020-03-10 13:41:39.908531	2020-03-10 13:41:40.716983	135	6.74722745	False	n/a	n/a	n/a	n/a
S200310	Conflict_Resolution	LEFT	LEFT	570.862999999918	1266.6666692	n/a	n/a	2020-03-10 13:41:42.002069	2020-03-10 13:41:42.781131	136	6.74722745	True	n/a	n/a	n/a	n/a
S200310	Conflict_Resolution	RIGHT	RIGHT	467.271400000072	1266.6666692	n/a	n/a	2020-03-10 13:41:44.065999	2020-03-10 13:41:44.739746	137	6.74722745	True	n/a	n/a	n/a	n/a
S200310	Conflict_Resolution	RIGHT	RIGHT	607.66179999996	1150.0000023	n/a	n/a	2020-03-10 13:41:45.909467	2020-03-10 13:41:46.725497	138	6.74722745	True	n/a	n/a	n/a	n/a
S200310	Conflict_Resolution	RIGHT	RIGHT	492.122599999902	1416.6666695	n/a	n/a	2020-03-10 13:41:48.160506	2020-03-10 13:41:48.861351	139	6.74722745	False	n/a	n/a	n/a	n/a
S200310	Conflict_Resolution	RIGHT	RIGHT	407.887800000026	1316.6666693	n/a	n/a	2020-03-10 13:41:50.197179	2020-03-10 13:41:50.813541	140	6.74722745	False	n/a	n/a	n/a	n/a
S200310	Conflict_Resolution	LEFT	LEFT	633.622299999843	850.0000017	n/a	n/a	2020-03-10 13:41:51.683292	2020-03-10 13:41:52.525527	141	6.74722745	False	n/a	n/a	n/a	n/a
S200310	Conflict_Resolution	RIGHT	RIGHT	459.173700000065	1216.6666691	n/a	n/a	2020-03-10 13:41:53.761566	2020-03-10 13:41:54.427801	142	6.74722745	False	n/a	n/a	n/a	n/a
S200310	Conflict_Resolution	LEFT	LEFT	545.779299999822	900.0000018	n/a	n/a	2020-03-10 13:41:55.347379	2020-03-10 13:41:56.101361	143	6.74722745	True	n/a	n/a	n/a	n/a
S200310	Conflict_Resolution	LEFT	LEFT	719.796699999961	1150.0000023	n/a	n/a	2020-03-10 13:41:57.269372	2020-03-10 13:41:58.196070	144	6.74722745	True	n/a	n/a	n/a	n/a
S200310	Conflict_Resolution	LEFT	LEFT	762.332099999867	1450.0000029	n/a	n/a	2020-03-10 13:41:59.666623	2020-03-10 13:42:00.635754	145	6.74722745	True	n/a	n/a	n/a	n/a
S200310	Conflict_Resolution	LEFT	LEFT	712.655499999983	916.6666685	n/a	n/a	2020-03-10 13:42:01.572413	2020-03-10 13:42:02.491932	146	6.74722745	True	n/a	n/a	n/a	n/a
S200310	Conflict_Resolution	LEFT	LEFT	553.041499999836	716.6666681	n/a	n/a	2020-03-10 13:42:03.227765	2020-03-10 13:42:03.989624	147	6.74722745	False	n/a	n/a	n/a	n/a
S200310	Conflict_Resolution	RIGHT	RIGHT	528.484100000014	1283.3333359	n/a	n/a	2020-03-10 13:42:05.292036	2020-03-10 13:42:06.028646	148	6.74722745	False	n/a	n/a	n/a	n/a
S200310	Conflict_Resolution	RIGHT	RIGHT	631.44659999989	933.3333352	n/a	n/a	2020-03-10 13:42:06.981814	2020-03-10 13:42:07.820923	149	6.74722745	True	n/a	n/a	n/a	n/a
S200310	Conflict_Resolution	RIGHT	RIGHT	531.119500000159	633.3333346	n/a	n/a	2020-03-10 13:42:08.473383	2020-03-10 13:42:09.212145	150	6.74722745	False	n/a	n/a	n/a	n/a
S200310	Conflict_Resolution	LEFT	LEFT	603.517199999942	1250.0000025	n/a	n/a	2020-03-10 13:42:10.481764	2020-03-10 13:42:11.293600	151	6.74722745	False	n/a	n/a	n/a	n/a
S200310	Conflict_Resolution	LEFT	LEFT	700.007700000015	1000.000002	n/a	n/a	2020-03-10 13:42:12.313197	2020-03-10 13:42:13.220837	152	6.74722745	True	n/a	n/a	n/a	n/a
S200310	Conflict_Resolution	LEFT	LEFT	982.748500000071	1166.666669	n/a	n/a	2020-03-10 13:42:14.406170	2020-03-10 13:42:15.596998	153	6.74722745	True	n/a	n/a	n/a	n/a
S200310	Conflict_Resolution	LEFT	Time_Max_Exceeded	1500.11929999982	1100.0000022	n/a	n/a	2020-03-10 13:42:16.715934	2020-03-10 13:42:18.216408	154	6.74722745	True	n/a	n/a	n/a	n/a
S200310	Conflict_Resolution	LEFT	LEFT	1309.56559999981	1100.0000022	LEFT	-1059.362	2020-03-10 13:42:19.335558	2020-03-10 13:42:20.852188	155	6.74722745	False	n/a	n/a	n/a	n/a
S200310	Conflict_Resolution	LEFT	Time_Max_Exceeded	1500.08109999999	866.6666684	n/a	n/a	2020-03-10 13:42:21.738044	2020-03-10 13:42:23.238371	156	6.74722745	True	n/a	n/a	n/a	n/a
S200310	Conflict_Resolution	RIGHT	RIGHT	693.287000000055	950.0000019	LEFT	-803.803	2020-03-10 13:42:24.207714	2020-03-10 13:42:25.109317	157	6.74722745	True	n/a	n/a	n/a	n/a
S200310	Conflict_Resolution	LEFT	LEFT	516.298300000017	1200.0000024	n/a	n/a	2020-03-10 13:42:26.328607	2020-03-10 13:42:27.053700	158	6.74722745	False	n/a	n/a	n/a	n/a
S200310	Conflict_Resolution	RIGHT	RIGHT	919.325100000151	533.3333344	n/a	n/a	2020-03-10 13:42:27.605843	2020-03-10 13:42:28.732966	159	6.74722745	True	n/a	n/a	n/a	n/a
S200310	Conflict_Resolution	LEFT	LEFT	497.780200000079	666.666668	n/a	n/a	2020-03-10 13:42:29.419293	2020-03-10 13:42:30.125450	160	6.74722745	False	n/a	n/a	n/a	n/a
