"Participant"	"Task"	"Stimulus_Side"	"Response"	"RT"	"ITI"	"Previous_Response"	"Previous_RT"	"Stop_Signal"	"Stop_Signal_RT"	"Conflict"	"Cue_Response"	"Cue_Response_RT"	"Trial_Onset"	"Trial_End"	"Trial_Order"	"Duration"
"S200310"	"Conflict_Resolution"	"LEFT"	"LEFT"	743.372099999988	1116.6666689	""	n/a	n/a	n/a	"False"	n/a	n/a	"2020-03-10 13:37:30.557770"	"2020-03-10 13:37:31.508764"	1	6.74722745
"S200310"	"Conflict_Resolution"	"RIGHT"	"RIGHT"	814.479799999958	550.0000011	""	n/a	n/a	n/a	"True"	n/a	n/a	"2020-03-10 13:37:32.078728"	"2020-03-10 13:37:33.100122"	2	6.74722745
"S200310"	"Conflict_Resolution"	"LEFT"	"LEFT"	755.222000000003	1050.0000021	""	n/a	n/a	n/a	"True"	n/a	n/a	"2020-03-10 13:37:34.169950"	"2020-03-10 13:37:35.133585"	3	6.74722745
"S200310"	"Conflict_Resolution"	"RIGHT"	"RIGHT"	544.684099999927	900.0000018	""	n/a	n/a	n/a	"True"	n/a	n/a	"2020-03-10 13:37:36.052713"	"2020-03-10 13:37:36.805443"	4	6.74722745
"S200310"	"Conflict_Resolution"	"RIGHT"	"RIGHT"	618.655499999932	683.3333347	""	n/a	n/a	n/a	"True"	n/a	n/a	"2020-03-10 13:37:37.506559"	"2020-03-10 13:37:38.333548"	5	6.74722745
"S200310"	"Conflict_Resolution"	"RIGHT"	"RIGHT"	398.231099999975	1150.0000023	""	n/a	n/a	n/a	"False"	n/a	n/a	"2020-03-10 13:37:39.503201"	"2020-03-10 13:37:40.108756"	6	6.74722745
"S200310"	"Conflict_Resolution"	"RIGHT"	"RIGHT"	601.24159999998	700.0000014	""	n/a	n/a	n/a	"True"	n/a	n/a	"2020-03-10 13:37:40.827743"	"2020-03-10 13:37:41.637665"	7	6.74722745
"S200310"	"Conflict_Resolution"	"LEFT"	"LEFT"	645.35699999999	766.6666682	""	n/a	n/a	n/a	"True"	n/a	n/a	"2020-03-10 13:37:42.423534"	"2020-03-10 13:37:43.277706"	8	6.74722745
"S200310"	"Conflict_Resolution"	"RIGHT"	"RIGHT"	444.207800000072	1183.3333357	""	n/a	n/a	n/a	"False"	n/a	n/a	"2020-03-10 13:37:44.480727"	"2020-03-10 13:37:45.133539"	9	6.74722745
"S200310"	"Conflict_Resolution"	"LEFT"	"LEFT"	388.43230000009	783.3333349	""	n/a	n/a	n/a	"False"	n/a	n/a	"2020-03-10 13:37:45.936057"	"2020-03-10 13:37:46.534255"	10	6.74722745
"S200310"	"Conflict_Resolution"	"RIGHT"	"RIGHT"	556.300100000044	1383.3333361	""	n/a	n/a	n/a	"True"	n/a	n/a	"2020-03-10 13:37:47.936529"	"2020-03-10 13:37:48.701402"	11	6.74722745
"S200310"	"Conflict_Resolution"	"LEFT"	"LEFT"	558.99850000003	533.3333344	""	n/a	n/a	n/a	"True"	n/a	n/a	"2020-03-10 13:37:49.253568"	"2020-03-10 13:37:50.021600"	12	6.74722745
"S200310"	"Conflict_Resolution"	"LEFT"	"LEFT"	619.093700000008	816.6666683	""	n/a	n/a	n/a	"False"	n/a	n/a	"2020-03-10 13:37:50.857514"	"2020-03-10 13:37:51.684768"	13	6.74722745
"S200310"	"Conflict_Resolution"	"RIGHT"	"RIGHT"	428.380500000003	783.3333349	""	n/a	n/a	n/a	"False"	n/a	n/a	"2020-03-10 13:37:52.488574"	"2020-03-10 13:37:53.124396"	14	6.74722745
"S200310"	"Conflict_Resolution"	"RIGHT"	"RIGHT"	505.439999999908	1133.3333356	""	n/a	n/a	n/a	"False"	n/a	n/a	"2020-03-10 13:37:54.275711"	"2020-03-10 13:37:54.987879"	15	6.74722745
"S200310"	"Conflict_Resolution"	"LEFT"	"LEFT"	534.352600000034	1216.6666691	""	n/a	n/a	n/a	"True"	n/a	n/a	"2020-03-10 13:37:56.222223"	"2020-03-10 13:37:56.966308"	16	6.74722745
"S200310"	"Conflict_Resolution"	"RIGHT"	"RIGHT"	509.681900000032	1333.333336	""	n/a	n/a	n/a	"True"	n/a	n/a	"2020-03-10 13:37:58.319553"	"2020-03-10 13:37:59.037477"	17	6.74722745
"S200310"	"Conflict_Resolution"	"RIGHT"	"RIGHT"	665.149499999984	883.3333351	""	n/a	n/a	n/a	"False"	n/a	n/a	"2020-03-10 13:37:59.940442"	"2020-03-10 13:38:00.812853"	18	6.74722745
"S200310"	"Conflict_Resolution"	"RIGHT"	"RIGHT"	676.517100000069	1000.000002	""	n/a	n/a	n/a	"True"	n/a	n/a	"2020-03-10 13:38:01.831922"	"2020-03-10 13:38:02.717469"	19	6.74722745
"S200310"	"Conflict_Resolution"	"RIGHT"	"RIGHT"	642.859000000044	1233.3333358	""	n/a	n/a	n/a	"True"	n/a	n/a	"2020-03-10 13:38:03.969703"	"2020-03-10 13:38:04.821665"	20	6.74722745
"S200310"	"Conflict_Resolution"	"RIGHT"	"RIGHT"	630.52909999999	933.3333352	""	n/a	n/a	n/a	"False"	n/a	n/a	"2020-03-10 13:38:05.774718"	"2020-03-10 13:38:06.612674"	21	6.74722745
"S200310"	"Conflict_Resolution"	"RIGHT"	"RIGHT"	570.523600000001	1466.6666696	""	n/a	n/a	n/a	"False"	n/a	n/a	"2020-03-10 13:38:08.098388"	"2020-03-10 13:38:08.877511"	22	6.74722745
"S200310"	"Conflict_Resolution"	"RIGHT"	"RIGHT"	388.01669999998	800.0000016	""	n/a	n/a	n/a	"False"	n/a	n/a	"2020-03-10 13:38:09.697178"	"2020-03-10 13:38:10.294027"	23	6.74722745
"S200310"	"Conflict_Resolution"	"LEFT"	"LEFT"	568.658400000004	1466.6666696	""	n/a	n/a	n/a	"True"	n/a	n/a	"2020-03-10 13:38:11.780287"	"2020-03-10 13:38:12.557340"	24	6.74722745
"S200310"	"Conflict_Resolution"	"LEFT"	"LEFT"	777.419399999985	633.3333346	""	n/a	n/a	n/a	"False"	n/a	n/a	"2020-03-10 13:38:13.211585"	"2020-03-10 13:38:14.196098"	25	6.74722745
"S200310"	"Conflict_Resolution"	"RIGHT"	"RIGHT"	481.761799999958	1033.3333354	""	n/a	n/a	n/a	"False"	n/a	n/a	"2020-03-10 13:38:15.251516"	"2020-03-10 13:38:15.940512"	26	6.74722745
"S200310"	"Conflict_Resolution"	"RIGHT"	"RIGHT"	601.921199999992	1483.3333363	""	n/a	n/a	n/a	"True"	n/a	n/a	"2020-03-10 13:38:17.442723"	"2020-03-10 13:38:18.253661"	27	6.74722745
"S200310"	"Conflict_Resolution"	"LEFT"	"LEFT"	546.609200000034	1416.6666695	""	n/a	n/a	n/a	"False"	n/a	n/a	"2020-03-10 13:38:19.690077"	"2020-03-10 13:38:20.445506"	28	6.74722745
"S200310"	"Conflict_Resolution"	"RIGHT"	"RIGHT"	499.651999999969	850.0000017	""	n/a	n/a	n/a	"True"	n/a	n/a	"2020-03-10 13:38:21.313285"	"2020-03-10 13:38:22.021350"	29	6.74722745
"S200310"	"Conflict_Resolution"	"RIGHT"	"RIGHT"	578.554600000075	1433.3333362	""	n/a	n/a	n/a	"True"	n/a	n/a	"2020-03-10 13:38:23.474702"	"2020-03-10 13:38:24.260959"	30	6.74722745
"S200310"	"Conflict_Resolution"	"RIGHT"	"RIGHT"	548.258300000043	1183.3333357	""	n/a	n/a	n/a	"True"	n/a	n/a	"2020-03-10 13:38:25.464987"	"2020-03-10 13:38:26.220172"	31	6.74722745
"S200310"	"Conflict_Resolution"	"LEFT"	"LEFT"	727.417099999911	1150.0000023	""	n/a	n/a	n/a	"False"	n/a	n/a	"2020-03-10 13:38:27.389939"	"2020-03-10 13:38:28.325676"	32	6.74722745
"S200310"	"Conflict_Resolution"	"LEFT"	"LEFT"	779.767600000014	783.3333349	""	n/a	n/a	n/a	"True"	n/a	n/a	"2020-03-10 13:38:29.129586"	"2020-03-10 13:38:30.117305"	33	6.74722745
"S200310"	"Conflict_Resolution"	"LEFT"	"LEFT"	878.914000000009	533.3333344	""	n/a	n/a	n/a	"False"	n/a	n/a	"2020-03-10 13:38:30.669797"	"2020-03-10 13:38:31.756121"	34	6.74722745
"S200310"	"Conflict_Resolution"	"RIGHT"	"RIGHT"	382.676899999979	1383.3333361	""	n/a	n/a	n/a	"False"	n/a	n/a	"2020-03-10 13:38:33.158489"	"2020-03-10 13:38:33.748919"	35	6.74722745
"S200310"	"Conflict_Resolution"	"LEFT"	"LEFT"	528.727600000025	733.3333348	""	n/a	n/a	n/a	"False"	n/a	n/a	"2020-03-10 13:38:34.500038"	"2020-03-10 13:38:35.236013"	36	6.74722745
"S200310"	"Conflict_Resolution"	"RIGHT"	"RIGHT"	469.672099999912	600.0000012	""	n/a	n/a	n/a	"True"	n/a	n/a	"2020-03-10 13:38:35.855584"	"2020-03-10 13:38:36.533625"	37	6.74722745
"S200310"	"Conflict_Resolution"	"LEFT"	"LEFT"	579.432999999995	1016.6666687	""	n/a	n/a	n/a	"False"	n/a	n/a	"2020-03-10 13:38:37.569547"	"2020-03-10 13:38:38.357249"	38	6.74722745
"S200310"	"Conflict_Resolution"	"RIGHT"	"RIGHT"	533.937599999945	1366.6666694	""	n/a	n/a	n/a	"False"	n/a	n/a	"2020-03-10 13:38:39.742815"	"2020-03-10 13:38:40.483842"	39	6.74722745
"S200310"	"Conflict_Resolution"	"LEFT"	"LEFT"	1284.12600000001	850.0000017	""	n/a	n/a	n/a	"True"	n/a	n/a	"2020-03-10 13:38:41.352395"	"2020-03-10 13:38:42.844853"	40	6.74722745
"S200310"	"Conflict_Resolution"	"RIGHT"	"RIGHT"	524.673900000039	1000.000002	""	n/a	n/a	n/a	"False"	n/a	n/a	"2020-03-10 13:38:43.864368"	"2020-03-10 13:38:44.595975"	41	6.74722745
"S200310"	"Conflict_Resolution"	"RIGHT"	"RIGHT"	543.076000000042	550.0000011	""	n/a	n/a	n/a	"False"	n/a	n/a	"2020-03-10 13:38:45.165488"	"2020-03-10 13:38:45.917454"	42	6.74722745
"S200310"	"Conflict_Resolution"	"RIGHT"	"RIGHT"	537.697099999946	1266.6666692	""	n/a	n/a	n/a	"False"	n/a	n/a	"2020-03-10 13:38:47.203775"	"2020-03-10 13:38:47.949077"	43	6.74722745
"S200310"	"Conflict_Resolution"	"RIGHT"	"RIGHT"	571.31169999991	833.333335	""	n/a	n/a	n/a	"True"	n/a	n/a	"2020-03-10 13:38:48.801346"	"2020-03-10 13:38:49.581297"	44	6.74722745
"S200310"	"Conflict_Resolution"	"RIGHT"	"RIGHT"	440.85819999998	1483.3333363	""	n/a	n/a	n/a	"False"	n/a	n/a	"2020-03-10 13:38:51.083787"	"2020-03-10 13:38:51.732550"	45	6.74722745
"S200310"	"Conflict_Resolution"	"RIGHT"	"RIGHT"	574.068900000043	1416.6666695	""	n/a	n/a	n/a	"True"	n/a	n/a	"2020-03-10 13:38:53.167442"	"2020-03-10 13:38:53.948808"	46	6.74722745
"S200310"	"Conflict_Resolution"	"LEFT"	"RIGHT"	639.05120000004	950.0000019	""	n/a	n/a	n/a	"True"	n/a	n/a	"2020-03-10 13:38:54.918228"	"2020-03-10 13:38:55.763988"	47	6.74722745
"S200310"	"Conflict_Resolution"	"RIGHT"	"RIGHT"	478.124399999956	533.3333344	""	n/a	n/a	n/a	"False"	n/a	n/a	"2020-03-10 13:38:56.319242"	"2020-03-10 13:38:57.005440"	48	6.74722745
"S200310"	"Conflict_Resolution"	"RIGHT"	"RIGHT"	721.900799999958	1050.0000021	""	n/a	n/a	n/a	"True"	n/a	n/a	"2020-03-10 13:38:58.074788"	"2020-03-10 13:38:59.005373"	49	6.74722745
"S200310"	"Conflict_Resolution"	"RIGHT"	"RIGHT"	723.077999999987	1033.3333354	""	n/a	n/a	n/a	"True"	n/a	n/a	"2020-03-10 13:39:00.058243"	"2020-03-10 13:39:00.990353"	50	6.74722745
"S200310"	"Conflict_Resolution"	"RIGHT"	"RIGHT"	548.092200000042	583.3333345	""	n/a	n/a	n/a	"True"	n/a	n/a	"2020-03-10 13:39:01.592274"	"2020-03-10 13:39:02.349282"	51	6.74722745
"S200310"	"Conflict_Resolution"	"RIGHT"	"RIGHT"	543.861200000038	883.3333351	""	n/a	n/a	n/a	"True"	n/a	n/a	"2020-03-10 13:39:03.253179"	"2020-03-10 13:39:04.004921"	52	6.74722745
"S200310"	"Conflict_Resolution"	"RIGHT"	"RIGHT"	577.990699999987	500.000001	""	n/a	n/a	n/a	"True"	n/a	n/a	"2020-03-10 13:39:04.522562"	"2020-03-10 13:39:05.308003"	53	6.74722745
"S200310"	"Conflict_Resolution"	"RIGHT"	"RIGHT"	711.641500000042	750.0000015	""	n/a	n/a	n/a	"True"	n/a	n/a	"2020-03-10 13:39:06.077689"	"2020-03-10 13:39:06.996061"	54	6.74722745
"S200310"	"Conflict_Resolution"	"LEFT"	"LEFT"	685.943199999997	1166.666669	""	n/a	n/a	n/a	"False"	n/a	n/a	"2020-03-10 13:39:08.183013"	"2020-03-10 13:39:09.076071"	55	6.74722745
"S200310"	"Conflict_Resolution"	"LEFT"	"LEFT"	909.205799999995	1400.0000028	""	n/a	n/a	n/a	"True"	n/a	n/a	"2020-03-10 13:39:10.495356"	"2020-03-10 13:39:11.613410"	56	6.74722745
"S200310"	"Conflict_Resolution"	"LEFT"	"LEFT"	655.881700000009	1350.0000027	""	n/a	n/a	n/a	"True"	n/a	n/a	"2020-03-10 13:39:12.980977"	"2020-03-10 13:39:13.845661"	57	6.74722745
"S200310"	"Conflict_Resolution"	"LEFT"	"LEFT"	587.758299999905	1400.0000028	""	n/a	n/a	n/a	"False"	n/a	n/a	"2020-03-10 13:39:15.264974"	"2020-03-10 13:39:16.061233"	58	6.74722745
"S200310"	"Conflict_Resolution"	"RIGHT"	"RIGHT"	680.565799999954	500.000001	""	n/a	n/a	n/a	"False"	n/a	n/a	"2020-03-10 13:39:16.579840"	"2020-03-10 13:39:17.469501"	59	6.74722745
"S200310"	"Conflict_Resolution"	"RIGHT"	"RIGHT"	775.591399999939	1100.0000022	""	n/a	n/a	n/a	"True"	n/a	n/a	"2020-03-10 13:39:18.589537"	"2020-03-10 13:39:19.573667"	60	6.74722745
"S200310"	"Conflict_Resolution"	"LEFT"	"LEFT"	521.250699999996	1066.6666688	""	n/a	n/a	n/a	"False"	n/a	n/a	"2020-03-10 13:39:20.659858"	"2020-03-10 13:39:21.387956"	61	6.74722745
"S200310"	"Conflict_Resolution"	"LEFT"	"LEFT"	594.535399999927	516.6666677	""	n/a	n/a	n/a	"False"	n/a	n/a	"2020-03-10 13:39:21.922006"	"2020-03-10 13:39:22.723858"	62	6.74722745
"S200310"	"Conflict_Resolution"	"RIGHT"	"RIGHT"	586.688399999957	1283.3333359	""	n/a	n/a	n/a	"True"	n/a	n/a	"2020-03-10 13:39:24.026578"	"2020-03-10 13:39:24.820192"	63	6.74722745
"S200310"	"Conflict_Resolution"	"LEFT"	"LEFT"	908.905900000036	1416.6666695	""	n/a	n/a	n/a	"True"	n/a	n/a	"2020-03-10 13:39:26.256489"	"2020-03-10 13:39:27.373619"	64	6.74722745
"S200310"	"Conflict_Resolution"	"LEFT"	"LEFT"	743.767299999945	900.0000018	""	n/a	n/a	n/a	"False"	n/a	n/a	"2020-03-10 13:39:28.292831"	"2020-03-10 13:39:29.244848"	65	6.74722745
"S200310"	"Conflict_Resolution"	"RIGHT"	"RIGHT"	645.300500000076	1433.3333362	""	n/a	n/a	n/a	"False"	n/a	n/a	"2020-03-10 13:39:30.695862"	"2020-03-10 13:39:31.549520"	66	6.74722745
"S200310"	"Conflict_Resolution"	"RIGHT"	"RIGHT"	656.412799999998	700.0000014	""	n/a	n/a	n/a	"False"	n/a	n/a	"2020-03-10 13:39:32.268784"	"2020-03-10 13:39:33.132101"	67	6.74722745
"S200310"	"Conflict_Resolution"	"LEFT"	"LEFT"	1248.60609999996	1316.6666693	""	n/a	n/a	n/a	"True"	n/a	n/a	"2020-03-10 13:39:34.468684"	"2020-03-10 13:39:35.923793"	68	6.74722745
"S200310"	"Conflict_Resolution"	"RIGHT"	"RIGHT"	610.374999999976	733.3333348	""	n/a	n/a	n/a	"False"	n/a	n/a	"2020-03-10 13:39:36.674851"	"2020-03-10 13:39:37.493645"	69	6.74722745
"S200310"	"Conflict_Resolution"	"RIGHT"	"RIGHT"	692.83699999994	583.3333345	""	n/a	n/a	n/a	"False"	n/a	n/a	"2020-03-10 13:39:38.095914"	"2020-03-10 13:39:38.997454"	70	6.74722745
"S200310"	"Conflict_Resolution"	"LEFT"	"LEFT"	770.092199999908	766.6666682	""	n/a	n/a	n/a	"False"	n/a	n/a	"2020-03-10 13:39:39.786652"	"2020-03-10 13:39:40.765152"	71	6.74722745
"S200310"	"Conflict_Resolution"	"RIGHT"	"RIGHT"	560.428900000034	900.0000018	""	n/a	n/a	n/a	"False"	n/a	n/a	"2020-03-10 13:39:41.684890"	"2020-03-10 13:39:42.453164"	72	6.74722745
"S200310"	"Conflict_Resolution"	"LEFT"	"LEFT"	1341.82420000002	1366.6666694	""	n/a	n/a	n/a	"True"	n/a	n/a	"2020-03-10 13:39:43.839193"	"2020-03-10 13:39:45.389200"	73	6.74722745
"S200310"	"Conflict_Resolution"	"LEFT"	"LEFT"	959.402300000079	716.6666681	""	n/a	n/a	n/a	"True"	n/a	n/a	"2020-03-10 13:39:46.125821"	"2020-03-10 13:39:47.293605"	74	6.74722745
"S200310"	"Conflict_Resolution"	"LEFT"	"LEFT"	1066.11369999996	683.3333347	""	n/a	n/a	n/a	"True"	n/a	n/a	"2020-03-10 13:39:47.994826"	"2020-03-10 13:39:49.268558"	75	6.74722745
"S200310"	"Conflict_Resolution"	"RIGHT"	"RIGHT"	979.606900000022	633.3333346	""	n/a	n/a	n/a	"True"	n/a	n/a	"2020-03-10 13:39:49.921449"	"2020-03-10 13:39:51.107769"	76	6.74722745
"S200310"	"Conflict_Resolution"	"RIGHT"	"RIGHT"	727.269800000045	800.0000016	""	n/a	n/a	n/a	"True"	n/a	n/a	"2020-03-10 13:39:51.925965"	"2020-03-10 13:39:52.861084"	77	6.74722745
"S200310"	"Conflict_Resolution"	"LEFT"	"LEFT"	706.054999999992	1466.6666696	""	n/a	n/a	n/a	"False"	n/a	n/a	"2020-03-10 13:39:54.346860"	"2020-03-10 13:39:55.261398"	78	6.74722745
"S200310"	"Conflict_Resolution"	"LEFT"	"LEFT"	799.769400000059	516.6666677	""	n/a	n/a	n/a	"True"	n/a	n/a	"2020-03-10 13:39:55.797563"	"2020-03-10 13:39:56.805537"	79	6.74722745
"S200310"	"Conflict_Resolution"	"RIGHT"	"RIGHT"	1094.80510000003	733.3333348	""	n/a	n/a	n/a	"True"	n/a	n/a	"2020-03-10 13:39:57.558378"	"2020-03-10 13:39:58.860072"	80	6.74722745
"S200310"	"Conflict_Resolution"	"LEFT"	"LEFT"	955.767600000058	616.6666679	""	n/a	n/a	n/a	"True"	n/a	n/a	"2020-03-10 13:39:59.497311"	"2020-03-10 13:40:00.660082"	81	6.74722745
"S200310"	"Conflict_Resolution"	"RIGHT"	"RIGHT"	561.060999999995	1100.0000022	""	n/a	n/a	n/a	"False"	n/a	n/a	"2020-03-10 13:40:01.779946"	"2020-03-10 13:40:02.548059"	82	6.74722745
"S200310"	"Conflict_Resolution"	"LEFT"	"LEFT"	1324.65419999994	666.666668	""	n/a	n/a	n/a	"True"	n/a	n/a	"2020-03-10 13:40:03.232547"	"2020-03-10 13:40:04.765673"	83	6.74722745
"S200310"	"Conflict_Resolution"	"RIGHT"	"RIGHT"	481.74240000003	1050.0000021	""	n/a	n/a	n/a	"False"	n/a	n/a	"2020-03-10 13:40:05.835217"	"2020-03-10 13:40:06.525579"	84	6.74722745
"S200310"	"Conflict_Resolution"	"LEFT"	"LEFT"	515.541799999937	1050.0000021	""	n/a	n/a	n/a	"False"	n/a	n/a	"2020-03-10 13:40:07.593383"	"2020-03-10 13:40:08.317336"	85	6.74722745
"S200310"	"Conflict_Resolution"	"LEFT"	"LEFT"	587.682199999904	1216.6666691	""	n/a	n/a	n/a	"False"	n/a	n/a	"2020-03-10 13:40:09.553556"	"2020-03-10 13:40:10.348027"	86	6.74722745
"S200310"	"Conflict_Resolution"	"LEFT"	"LEFT"	630.976099999998	966.6666686	""	n/a	n/a	n/a	"True"	n/a	n/a	"2020-03-10 13:40:11.333538"	"2020-03-10 13:40:12.173282"	87	6.74722745
"S200310"	"Conflict_Resolution"	"LEFT"	"LEFT"	627.7063	616.6666679	""	n/a	n/a	n/a	"False"	n/a	n/a	"2020-03-10 13:40:12.809548"	"2020-03-10 13:40:13.644014"	88	6.74722745
"S200310"	"Conflict_Resolution"	"RIGHT"	"RIGHT"	837.6520999999	983.3333353	""	n/a	n/a	n/a	"True"	n/a	n/a	"2020-03-10 13:40:14.647458"	"2020-03-10 13:40:15.693308"	89	6.74722745
"S200310"	"Conflict_Resolution"	"LEFT"	"LEFT"	628.002700000025	816.6666683	""	n/a	n/a	n/a	"True"	n/a	n/a	"2020-03-10 13:40:16.529127"	"2020-03-10 13:40:17.365425"	90	6.74722745
"S200310"	"Conflict_Resolution"	"LEFT"	"LEFT"	671.273700000029	1366.6666694	""	n/a	n/a	n/a	"False"	n/a	n/a	"2020-03-10 13:40:18.750635"	"2020-03-10 13:40:19.630579"	91	6.74722745
"S200310"	"Conflict_Resolution"	"RIGHT"	"RIGHT"	698.230299999977	650.0000013	""	n/a	n/a	n/a	"True"	n/a	n/a	"2020-03-10 13:40:20.298841"	"2020-03-10 13:40:21.204014"	92	6.74722745
"S200310"	"Conflict_Resolution"	"LEFT"	"LEFT"	669.783800000005	1000.000002	""	n/a	n/a	n/a	"False"	n/a	n/a	"2020-03-10 13:40:22.223157"	"2020-03-10 13:40:23.100477"	93	6.74722745
"S200310"	"Conflict_Resolution"	"LEFT"	"LEFT"	1050.5508	866.6666684	""	n/a	n/a	n/a	"False"	n/a	n/a	"2020-03-10 13:40:23.986078"	"2020-03-10 13:40:25.245308"	94	6.74722745
"S200310"	"Conflict_Resolution"	"LEFT"	"LEFT"	623.780799999963	1500.000003	""	n/a	n/a	n/a	"True"	n/a	n/a	"2020-03-10 13:40:26.765335"	"2020-03-10 13:40:27.596122"	95	6.74722745
"S200310"	"Conflict_Resolution"	"LEFT"	"LEFT"	807.042300000035	566.6666678	""	n/a	n/a	n/a	"True"	n/a	n/a	"2020-03-10 13:40:28.182182"	"2020-03-10 13:40:29.195819"	96	6.74722745
"S200310"	"Conflict_Resolution"	"LEFT"	"LEFT"	522.030699999959	1300.0000026	""	n/a	n/a	n/a	"True"	n/a	n/a	"2020-03-10 13:40:30.515292"	"2020-03-10 13:40:31.245347"	97	6.74722745
"S200310"	"Conflict_Resolution"	"RIGHT"	"RIGHT"	772.858799999995	950.0000019	""	n/a	n/a	n/a	"False"	n/a	n/a	"2020-03-10 13:40:32.215897"	"2020-03-10 13:40:33.195882"	98	6.74722745
"S200310"	"Conflict_Resolution"	"LEFT"	"LEFT"	565.620099999933	583.3333345	""	n/a	n/a	n/a	"True"	n/a	n/a	"2020-03-10 13:40:33.799683"	"2020-03-10 13:40:34.571821"	99	6.74722745
"S200310"	"Conflict_Resolution"	"LEFT"	"LEFT"	519.785899999988	1350.0000027	""	n/a	n/a	n/a	"False"	n/a	n/a	"2020-03-10 13:40:35.941310"	"2020-03-10 13:40:36.668995"	100	6.74722745
"S200310"	"Conflict_Resolution"	"LEFT"	"LEFT"	635.984900000039	1016.6666687	""	n/a	n/a	n/a	"True"	n/a	n/a	"2020-03-10 13:40:37.705293"	"2020-03-10 13:40:38.549327"	101	6.74722745
"S200310"	"Conflict_Resolution"	"RIGHT"	"RIGHT"	843.699300000026	1216.6666691	""	n/a	n/a	n/a	"True"	n/a	n/a	"2020-03-10 13:40:39.785739"	"2020-03-10 13:40:40.836960"	102	6.74722745
"S200310"	"Conflict_Resolution"	"RIGHT"	"RIGHT"	593.099000000052	683.3333347	""	n/a	n/a	n/a	"False"	n/a	n/a	"2020-03-10 13:40:41.539588"	"2020-03-10 13:40:42.341488"	103	6.74722745
"S200310"	"Conflict_Resolution"	"LEFT"	"LEFT"	813.625900000034	1200.0000024	""	n/a	n/a	n/a	"True"	n/a	n/a	"2020-03-10 13:40:43.559449"	"2020-03-10 13:40:44.580102"	104	6.74722745
"S200310"	"Conflict_Resolution"	"RIGHT"	"RIGHT"	511.656600000038	750.0000015	""	n/a	n/a	n/a	"False"	n/a	n/a	"2020-03-10 13:40:45.349030"	"2020-03-10 13:40:46.069244"	105	6.74722745
"S200310"	"Conflict_Resolution"	"LEFT"	"LEFT"	580.219199999988	633.3333346	""	n/a	n/a	n/a	"True"	n/a	n/a	"2020-03-10 13:40:46.720753"	"2020-03-10 13:40:47.509593"	106	6.74722745
"S200310"	"Conflict_Resolution"	"LEFT"	"LEFT"	518.704299999968	733.3333348	""	n/a	n/a	n/a	"True"	n/a	n/a	"2020-03-10 13:40:48.262556"	"2020-03-10 13:40:48.989586"	107	6.74722745
"S200310"	"Conflict_Resolution"	"RIGHT"	"RIGHT"	514.018699999951	1233.3333358	""	n/a	n/a	n/a	"False"	n/a	n/a	"2020-03-10 13:40:50.243237"	"2020-03-10 13:40:50.964978"	108	6.74722745
"S200310"	"Conflict_Resolution"	"LEFT"	"LEFT"	496.189200000003	566.6666678	""	n/a	n/a	n/a	"False"	n/a	n/a	"2020-03-10 13:40:51.549345"	"2020-03-10 13:40:52.254455"	109	6.74722745
"S200310"	"Conflict_Resolution"	"LEFT"	"LEFT"	547.340500000018	583.3333345	""	n/a	n/a	n/a	"False"	n/a	n/a	"2020-03-10 13:40:52.857942"	"2020-03-10 13:40:53.613333"	110	6.74722745
"S200310"	"Conflict_Resolution"	"LEFT"	"LEFT"	489.587499999971	1300.0000026	""	n/a	n/a	n/a	"False"	n/a	n/a	"2020-03-10 13:40:54.931206"	"2020-03-10 13:40:55.629487"	111	6.74722745
"S200310"	"Conflict_Resolution"	"RIGHT"	"RIGHT"	747.866499999986	850.0000017	""	n/a	n/a	n/a	"False"	n/a	n/a	"2020-03-10 13:40:56.496858"	"2020-03-10 13:40:57.453556"	112	6.74722745
"S200310"	"Conflict_Resolution"	"RIGHT"	"RIGHT"	449.708299999998	833.333335	""	n/a	n/a	n/a	"False"	n/a	n/a	"2020-03-10 13:40:58.307337"	"2020-03-10 13:40:58.965797"	113	6.74722745
"S200310"	"Conflict_Resolution"	"LEFT"	"LEFT"	472.349299999905	683.3333347	""	n/a	n/a	n/a	"False"	n/a	n/a	"2020-03-10 13:40:59.669203"	"2020-03-10 13:41:00.348947"	114	6.74722745
"S200310"	"Conflict_Resolution"	"RIGHT"	"RIGHT"	647.310199999993	1316.6666693	""	n/a	n/a	n/a	"True"	n/a	n/a	"2020-03-10 13:41:01.685967"	"2020-03-10 13:41:02.541228"	115	6.74722745
"S200310"	"Conflict_Resolution"	"LEFT"	"LEFT"	461.822900000016	950.0000019	""	n/a	n/a	n/a	"False"	n/a	n/a	"2020-03-10 13:41:03.511020"	"2020-03-10 13:41:04.181616"	116	6.74722745
"S200310"	"Conflict_Resolution"	"RIGHT"	"RIGHT"	532.980399999815	1366.6666694	""	n/a	n/a	n/a	"True"	n/a	n/a	"2020-03-10 13:41:05.568296"	"2020-03-10 13:41:06.308994"	117	6.74722745
"S200310"	"Conflict_Resolution"	"RIGHT"	"RIGHT"	613.396699999839	983.3333353	""	n/a	n/a	n/a	"False"	n/a	n/a	"2020-03-10 13:41:07.311829"	"2020-03-10 13:41:08.132138"	118	6.74722745
"S200310"	"Conflict_Resolution"	"RIGHT"	"RIGHT"	532.974700000068	650.0000013	""	n/a	n/a	n/a	"False"	n/a	n/a	"2020-03-10 13:41:08.799365"	"2020-03-10 13:41:09.539833"	119	6.74722745
"S200310"	"Conflict_Resolution"	"LEFT"	"LEFT"	491.603599999962	1066.6666688	""	n/a	n/a	n/a	"True"	n/a	n/a	"2020-03-10 13:41:10.625545"	"2020-03-10 13:41:11.325291"	120	6.74722745
"S200310"	"Conflict_Resolution"	"LEFT"	"LEFT"	521.990100000039	1450.0000029	""	n/a	n/a	n/a	"False"	n/a	n/a	"2020-03-10 13:41:12.794854"	"2020-03-10 13:41:13.525351"	121	6.74722745
"S200310"	"Conflict_Resolution"	"RIGHT"	"RIGHT"	712.078800000199	1133.3333356	""	n/a	n/a	n/a	"True"	n/a	n/a	"2020-03-10 13:41:14.676497"	"2020-03-10 13:41:15.596051"	122	6.74722745
"S200310"	"Conflict_Resolution"	"RIGHT"	"RIGHT"	574.232599999959	783.3333349	""	n/a	n/a	n/a	"True"	n/a	n/a	"2020-03-10 13:41:16.398943"	"2020-03-10 13:41:17.179829"	123	6.74722745
"S200310"	"Conflict_Resolution"	"RIGHT"	"RIGHT"	485.815699999876	600.0000012	""	n/a	n/a	n/a	"False"	n/a	n/a	"2020-03-10 13:41:17.799096"	"2020-03-10 13:41:18.494648"	124	6.74722745
"S200310"	"Conflict_Resolution"	"LEFT"	"LEFT"	961.071500000116	1250.0000025	""	n/a	n/a	n/a	"True"	n/a	n/a	"2020-03-10 13:41:19.764150"	"2020-03-10 13:41:20.932495"	125	6.74722745
"S200310"	"Conflict_Resolution"	"RIGHT"	"RIGHT"	474.315999999817	1466.6666696	""	n/a	n/a	n/a	"True"	n/a	n/a	"2020-03-10 13:41:22.418997"	"2020-03-10 13:41:23.101469"	126	6.74722745
"S200310"	"Conflict_Resolution"	"RIGHT"	"RIGHT"	601.160100000016	1083.3333355	""	n/a	n/a	n/a	"False"	n/a	n/a	"2020-03-10 13:41:24.203901"	"2020-03-10 13:41:25.011727"	127	6.74722745
"S200310"	"Conflict_Resolution"	"LEFT"	"LEFT"	466.4965999998	1266.6666692	""	n/a	n/a	n/a	"False"	n/a	n/a	"2020-03-10 13:41:26.299023"	"2020-03-10 13:41:26.973799"	128	6.74722745
"S200310"	"Conflict_Resolution"	"LEFT"	"LEFT"	518.656699999838	916.6666685	""	n/a	n/a	n/a	"False"	n/a	n/a	"2020-03-10 13:41:27.909833"	"2020-03-10 13:41:28.636388"	129	6.74722745
"S200310"	"Conflict_Resolution"	"LEFT"	"LEFT"	440.013000000135	1316.6666693	""	n/a	n/a	n/a	"False"	n/a	n/a	"2020-03-10 13:41:29.973194"	"2020-03-10 13:41:30.621554"	130	6.74722745
"S200310"	"Conflict_Resolution"	"RIGHT"	"RIGHT"	752.42060000005	1083.3333355	""	n/a	n/a	n/a	"True"	n/a	n/a	"2020-03-10 13:41:31.723987"	"2020-03-10 13:41:32.684178"	131	6.74722745
"S200310"	"Conflict_Resolution"	"LEFT"	"LEFT"	437.866499999927	966.6666686	""	n/a	n/a	n/a	"False"	n/a	n/a	"2020-03-10 13:41:33.671399"	"2020-03-10 13:41:34.316131"	132	6.74722745
"S200310"	"Conflict_Resolution"	"LEFT"	"LEFT"	672.701599999982	1116.6666689	""	n/a	n/a	n/a	"True"	n/a	n/a	"2020-03-10 13:41:35.451611"	"2020-03-10 13:41:36.333261"	133	6.74722745
"S200310"	"Conflict_Resolution"	"LEFT"	"LEFT"	495.403399999987	1500.000003	""	n/a	n/a	n/a	"False"	n/a	n/a	"2020-03-10 13:41:37.853788"	"2020-03-10 13:41:38.556135"	134	6.74722745
"S200310"	"Conflict_Resolution"	"RIGHT"	"RIGHT"	600.345299999844	1333.333336	""	n/a	n/a	n/a	"False"	n/a	n/a	"2020-03-10 13:41:39.908531"	"2020-03-10 13:41:40.716983"	135	6.74722745
"S200310"	"Conflict_Resolution"	"LEFT"	"LEFT"	570.862999999918	1266.6666692	""	n/a	n/a	n/a	"True"	n/a	n/a	"2020-03-10 13:41:42.002069"	"2020-03-10 13:41:42.781131"	136	6.74722745
"S200310"	"Conflict_Resolution"	"RIGHT"	"RIGHT"	467.271400000072	1266.6666692	""	n/a	n/a	n/a	"True"	n/a	n/a	"2020-03-10 13:41:44.065999"	"2020-03-10 13:41:44.739746"	137	6.74722745
"S200310"	"Conflict_Resolution"	"RIGHT"	"RIGHT"	607.66179999996	1150.0000023	""	n/a	n/a	n/a	"True"	n/a	n/a	"2020-03-10 13:41:45.909467"	"2020-03-10 13:41:46.725497"	138	6.74722745
"S200310"	"Conflict_Resolution"	"RIGHT"	"RIGHT"	492.122599999902	1416.6666695	""	n/a	n/a	n/a	"False"	n/a	n/a	"2020-03-10 13:41:48.160506"	"2020-03-10 13:41:48.861351"	139	6.74722745
"S200310"	"Conflict_Resolution"	"RIGHT"	"RIGHT"	407.887800000026	1316.6666693	""	n/a	n/a	n/a	"False"	n/a	n/a	"2020-03-10 13:41:50.197179"	"2020-03-10 13:41:50.813541"	140	6.74722745
"S200310"	"Conflict_Resolution"	"LEFT"	"LEFT"	633.622299999843	850.0000017	""	n/a	n/a	n/a	"False"	n/a	n/a	"2020-03-10 13:41:51.683292"	"2020-03-10 13:41:52.525527"	141	6.74722745
"S200310"	"Conflict_Resolution"	"RIGHT"	"RIGHT"	459.173700000065	1216.6666691	""	n/a	n/a	n/a	"False"	n/a	n/a	"2020-03-10 13:41:53.761566"	"2020-03-10 13:41:54.427801"	142	6.74722745
"S200310"	"Conflict_Resolution"	"LEFT"	"LEFT"	545.779299999822	900.0000018	""	n/a	n/a	n/a	"True"	n/a	n/a	"2020-03-10 13:41:55.347379"	"2020-03-10 13:41:56.101361"	143	6.74722745
"S200310"	"Conflict_Resolution"	"LEFT"	"LEFT"	719.796699999961	1150.0000023	""	n/a	n/a	n/a	"True"	n/a	n/a	"2020-03-10 13:41:57.269372"	"2020-03-10 13:41:58.196070"	144	6.74722745
"S200310"	"Conflict_Resolution"	"LEFT"	"LEFT"	762.332099999867	1450.0000029	""	n/a	n/a	n/a	"True"	n/a	n/a	"2020-03-10 13:41:59.666623"	"2020-03-10 13:42:00.635754"	145	6.74722745
"S200310"	"Conflict_Resolution"	"LEFT"	"LEFT"	712.655499999983	916.6666685	""	n/a	n/a	n/a	"True"	n/a	n/a	"2020-03-10 13:42:01.572413"	"2020-03-10 13:42:02.491932"	146	6.74722745
"S200310"	"Conflict_Resolution"	"LEFT"	"LEFT"	553.041499999836	716.6666681	""	n/a	n/a	n/a	"False"	n/a	n/a	"2020-03-10 13:42:03.227765"	"2020-03-10 13:42:03.989624"	147	6.74722745
"S200310"	"Conflict_Resolution"	"RIGHT"	"RIGHT"	528.484100000014	1283.3333359	""	n/a	n/a	n/a	"False"	n/a	n/a	"2020-03-10 13:42:05.292036"	"2020-03-10 13:42:06.028646"	148	6.74722745
"S200310"	"Conflict_Resolution"	"RIGHT"	"RIGHT"	631.44659999989	933.3333352	""	n/a	n/a	n/a	"True"	n/a	n/a	"2020-03-10 13:42:06.981814"	"2020-03-10 13:42:07.820923"	149	6.74722745
"S200310"	"Conflict_Resolution"	"RIGHT"	"RIGHT"	531.119500000159	633.3333346	""	n/a	n/a	n/a	"False"	n/a	n/a	"2020-03-10 13:42:08.473383"	"2020-03-10 13:42:09.212145"	150	6.74722745
"S200310"	"Conflict_Resolution"	"LEFT"	"LEFT"	603.517199999942	1250.0000025	""	n/a	n/a	n/a	"False"	n/a	n/a	"2020-03-10 13:42:10.481764"	"2020-03-10 13:42:11.293600"	151	6.74722745
"S200310"	"Conflict_Resolution"	"LEFT"	"LEFT"	700.007700000015	1000.000002	""	n/a	n/a	n/a	"True"	n/a	n/a	"2020-03-10 13:42:12.313197"	"2020-03-10 13:42:13.220837"	152	6.74722745
"S200310"	"Conflict_Resolution"	"LEFT"	"LEFT"	982.748500000071	1166.666669	""	n/a	n/a	n/a	"True"	n/a	n/a	"2020-03-10 13:42:14.406170"	"2020-03-10 13:42:15.596998"	153	6.74722745
"S200310"	"Conflict_Resolution"	"LEFT"	"Time_Max_Exceeded"	1500.11929999982	1100.0000022	""	n/a	n/a	n/a	"True"	n/a	n/a	"2020-03-10 13:42:16.715934"	"2020-03-10 13:42:18.216408"	154	6.74722745
"S200310"	"Conflict_Resolution"	"LEFT"	"LEFT"	1309.56559999981	1100.0000022	"LEFT"	-1059.362	n/a	n/a	"False"	n/a	n/a	"2020-03-10 13:42:19.335558"	"2020-03-10 13:42:20.852188"	155	6.74722745
"S200310"	"Conflict_Resolution"	"LEFT"	"Time_Max_Exceeded"	1500.08109999999	866.6666684	""	n/a	n/a	n/a	"True"	n/a	n/a	"2020-03-10 13:42:21.738044"	"2020-03-10 13:42:23.238371"	156	6.74722745
"S200310"	"Conflict_Resolution"	"RIGHT"	"RIGHT"	693.287000000055	950.0000019	"LEFT"	-803.803	n/a	n/a	"True"	n/a	n/a	"2020-03-10 13:42:24.207714"	"2020-03-10 13:42:25.109317"	157	6.74722745
"S200310"	"Conflict_Resolution"	"LEFT"	"LEFT"	516.298300000017	1200.0000024	""	n/a	n/a	n/a	"False"	n/a	n/a	"2020-03-10 13:42:26.328607"	"2020-03-10 13:42:27.053700"	158	6.74722745
"S200310"	"Conflict_Resolution"	"RIGHT"	"RIGHT"	919.325100000151	533.3333344	""	n/a	n/a	n/a	"True"	n/a	n/a	"2020-03-10 13:42:27.605843"	"2020-03-10 13:42:28.732966"	159	6.74722745
"S200310"	"Conflict_Resolution"	"LEFT"	"LEFT"	497.780200000079	666.666668	""	n/a	n/a	n/a	"False"	n/a	n/a	"2020-03-10 13:42:29.419293"	"2020-03-10 13:42:30.125450"	160	6.74722745
"S200310"	"Processing_Speed"	"RIGHT"	"DOWN"	796.714199999997	700.0000014	""	n/a	n/a	n/a	n/a	n/a	n/a	"2020-03-10 13:25:41.256495"	"2020-03-10 13:25:42.272270"	1	2.04196795
"S200310"	"Processing_Speed"	"RIGHT"	"DOWN"	285.58360000001	783.3333349	""	n/a	n/a	n/a	n/a	n/a	n/a	"2020-03-10 13:25:43.064095"	"2020-03-10 13:25:43.557123"	2	2.04196795
"S200310"	"Processing_Speed"	"RIGHT"	"DOWN"	290.4932	533.3333344	""	n/a	n/a	n/a	n/a	n/a	n/a	"2020-03-10 13:25:44.099081"	"2020-03-10 13:25:44.598121"	3	2.04196795
"S200310"	"Processing_Speed"	"RIGHT"	"DOWN"	418.492200000003	1300.0000026	""	n/a	n/a	n/a	n/a	n/a	n/a	"2020-03-10 13:25:45.906617"	"2020-03-10 13:25:46.534140"	4	2.04196795
"S200310"	"Processing_Speed"	"LEFT"	"DOWN"	510.606899999999	600.0000012	""	n/a	n/a	n/a	n/a	n/a	n/a	"2020-03-10 13:25:47.143099"	"2020-03-10 13:25:47.862286"	5	2.04196795
"S200310"	"Processing_Speed"	"RIGHT"	"DOWN"	440.065900000008	566.6666678	""	n/a	n/a	n/a	n/a	n/a	n/a	"2020-03-10 13:25:48.437758"	"2020-03-10 13:25:49.085552"	6	2.04196795
"S200310"	"Processing_Speed"	"RIGHT"	"DOWN"	358.627399999989	1016.6666687	""	n/a	n/a	n/a	n/a	n/a	n/a	"2020-03-10 13:25:50.111008"	"2020-03-10 13:25:50.677650"	7	2.04196795
"S200310"	"Processing_Speed"	"RIGHT"	"DOWN"	282.534300000009	1116.6666689	""	n/a	n/a	n/a	n/a	n/a	n/a	"2020-03-10 13:25:51.802732"	"2020-03-10 13:25:52.293757"	8	2.04196795
"S200310"	"Processing_Speed"	"LEFT"	"DOWN"	223.42230000001	983.3333353	""	n/a	n/a	n/a	n/a	n/a	n/a	"2020-03-10 13:25:53.286246"	"2020-03-10 13:25:53.717124"	9	2.04196795
"S200310"	"Processing_Speed"	"RIGHT"	"DOWN"	263.669100000001	1400.0000028	""	n/a	n/a	n/a	n/a	n/a	n/a	"2020-03-10 13:25:55.126023"	"2020-03-10 13:25:55.598348"	10	2.04196795
"S200310"	"Processing_Speed"	"LEFT"	"DOWN"	261.237299999991	1016.6666687	""	n/a	n/a	n/a	n/a	n/a	n/a	"2020-03-10 13:25:56.624345"	"2020-03-10 13:25:57.093092"	11	2.04196795
"S200310"	"Processing_Speed"	"LEFT"	"DOWN"	233.8673	950.0000019	""	n/a	n/a	n/a	n/a	n/a	n/a	"2020-03-10 13:25:58.051904"	"2020-03-10 13:25:58.492728"	12	2.04196795
"S200310"	"Processing_Speed"	"LEFT"	"DOWN"	267.1244	733.3333348	""	n/a	n/a	n/a	n/a	n/a	n/a	"2020-03-10 13:25:59.234658"	"2020-03-10 13:25:59.708803"	13	2.04196795
"S200310"	"Processing_Speed"	"RIGHT"	"DOWN"	246.110700000003	1050.0000021	""	n/a	n/a	n/a	n/a	n/a	n/a	"2020-03-10 13:26:00.767245"	"2020-03-10 13:26:01.220797"	14	2.04196795
"S200310"	"Processing_Speed"	"LEFT"	"DOWN"	275.752600000004	916.6666685	""	n/a	n/a	n/a	n/a	n/a	n/a	"2020-03-10 13:26:02.145884"	"2020-03-10 13:26:02.628739"	15	2.04196795
"S200310"	"Processing_Speed"	"LEFT"	"DOWN"	480.912500000002	783.3333349	""	n/a	n/a	n/a	n/a	n/a	n/a	"2020-03-10 13:26:03.420550"	"2020-03-10 13:26:04.109651"	16	2.04196795
"S200310"	"Processing_Speed"	"LEFT"	"DOWN"	344.132299999998	566.6666678	""	n/a	n/a	n/a	n/a	n/a	n/a	"2020-03-10 13:26:04.685631"	"2020-03-10 13:26:05.237167"	17	2.04196795
"S200310"	"Processing_Speed"	"LEFT"	"DOWN"	290.616299999996	533.3333344	""	n/a	n/a	n/a	n/a	n/a	n/a	"2020-03-10 13:26:05.778722"	"2020-03-10 13:26:06.277415"	18	2.04196795
"S200310"	"Processing_Speed"	"RIGHT"	"DOWN"	315.379399999983	1500.000003	""	n/a	n/a	n/a	n/a	n/a	n/a	"2020-03-10 13:26:07.786249"	"2020-03-10 13:26:08.309847"	19	2.04196795
"S200310"	"Processing_Speed"	"RIGHT"	"DOWN"	265.271599999977	733.3333348	""	n/a	n/a	n/a	n/a	n/a	n/a	"2020-03-10 13:26:09.052460"	"2020-03-10 13:26:09.526235"	20	2.04196795
"S200310"	"Processing_Speed"	"RIGHT"	"DOWN"	292.715100000009	633.3333346	""	n/a	n/a	n/a	n/a	n/a	n/a	"2020-03-10 13:26:10.169137"	"2020-03-10 13:26:10.669608"	21	2.04196795
"S200310"	"Processing_Speed"	"LEFT"	"DOWN"	244.939099999982	666.666668	""	n/a	n/a	n/a	n/a	n/a	n/a	"2020-03-10 13:26:11.344321"	"2020-03-10 13:26:11.797110"	22	2.04196795
"S200310"	"Processing_Speed"	"RIGHT"	"DOWN"	231.443999999982	983.3333353	""	n/a	n/a	n/a	n/a	n/a	n/a	"2020-03-10 13:26:12.790436"	"2020-03-10 13:26:13.230290"	23	2.04196795
"S200310"	"Processing_Speed"	"LEFT"	"DOWN"	251.28220000002	1266.6666692	""	n/a	n/a	n/a	n/a	n/a	n/a	"2020-03-10 13:26:14.506296"	"2020-03-10 13:26:14.966055"	24	2.04196795
"S200310"	"Processing_Speed"	"LEFT"	"DOWN"	405.788900000005	633.3333346	""	n/a	n/a	n/a	n/a	n/a	n/a	"2020-03-10 13:26:15.607942"	"2020-03-10 13:26:16.221239"	25	2.04196795
"S200310"	"Processing_Speed"	"RIGHT"	"DOWN"	251.838000000021	500.000001	""	n/a	n/a	n/a	n/a	n/a	n/a	"2020-03-10 13:26:16.729887"	"2020-03-10 13:26:17.188722"	26	2.04196795
"S200310"	"Processing_Speed"	"RIGHT"	"DOWN"	226.145199999991	950.0000019	""	n/a	n/a	n/a	n/a	n/a	n/a	"2020-03-10 13:26:18.147125"	"2020-03-10 13:26:18.580964"	27	2.04196795
"S200310"	"Processing_Speed"	"RIGHT"	"DOWN"	221.254600000009	666.666668	""	n/a	n/a	n/a	n/a	n/a	n/a	"2020-03-10 13:26:19.256025"	"2020-03-10 13:26:19.684831"	28	2.04196795
"S200310"	"Processing_Speed"	"RIGHT"	"DOWN"	223.490200000015	1216.6666691	""	n/a	n/a	n/a	n/a	n/a	n/a	"2020-03-10 13:26:20.910287"	"2020-03-10 13:26:21.340772"	29	2.04196795
"S200310"	"Processing_Speed"	"LEFT"	"DOWN"	236.192799999998	700.0000014	""	n/a	n/a	n/a	n/a	n/a	n/a	"2020-03-10 13:26:22.048862"	"2020-03-10 13:26:22.492859"	30	2.04196795
"S200310"	"Processing_Speed"	"LEFT"	"DOWN"	235.106600000023	1116.6666689	""	n/a	n/a	n/a	n/a	n/a	n/a	"2020-03-10 13:26:23.617991"	"2020-03-10 13:26:24.061068"	31	2.04196795
"S200310"	"Processing_Speed"	"RIGHT"	"DOWN"	213.751599999995	850.0000017	""	n/a	n/a	n/a	n/a	n/a	n/a	"2020-03-10 13:26:24.920227"	"2020-03-10 13:26:25.341110"	32	2.04196795
"S200310"	"Processing_Speed"	"LEFT"	"DOWN"	235.995199999991	883.3333351	""	n/a	n/a	n/a	n/a	n/a	n/a	"2020-03-10 13:26:26.233250"	"2020-03-10 13:26:26.677603"	33	2.04196795
"S200310"	"Processing_Speed"	"RIGHT"	"DOWN"	197.987899999987	1433.3333362	""	n/a	n/a	n/a	n/a	n/a	n/a	"2020-03-10 13:26:28.119918"	"2020-03-10 13:26:28.524838"	34	2.04196795
"S200310"	"Processing_Speed"	"RIGHT"	"DOWN"	797.325699999988	1083.3333355	"DOWN"	-30.96	n/a	n/a	n/a	n/a	n/a	"2020-03-10 13:26:29.616520"	"2020-03-10 13:26:30.621424"	35	2.04196795
"S200310"	"Processing_Speed"	"RIGHT"	"DOWN"	348.987899999997	1266.6666692	""	n/a	n/a	n/a	n/a	n/a	n/a	"2020-03-10 13:26:31.896707"	"2020-03-10 13:26:32.454240"	36	2.04196795
"S200310"	"Processing_Speed"	"RIGHT"	"DOWN"	302.160100000009	816.6666683	""	n/a	n/a	n/a	n/a	n/a	n/a	"2020-03-10 13:26:33.279579"	"2020-03-10 13:26:33.790225"	37	2.04196795
"S200310"	"Processing_Speed"	"LEFT"	"DOWN"	276.683599999984	1050.0000021	""	n/a	n/a	n/a	n/a	n/a	n/a	"2020-03-10 13:26:34.848892"	"2020-03-10 13:26:35.333157"	38	2.04196795
"S200310"	"Processing_Speed"	"RIGHT"	"DOWN"	368.584599999991	1366.6666694	""	n/a	n/a	n/a	n/a	n/a	n/a	"2020-03-10 13:26:36.709095"	"2020-03-10 13:26:37.286351"	39	2.04196795
"S200310"	"Processing_Speed"	"LEFT"	"DOWN"	322.681200000005	1500.000003	""	n/a	n/a	n/a	n/a	n/a	n/a	"2020-03-10 13:26:38.794643"	"2020-03-10 13:26:39.325340"	40	2.04196795
"S200310"	"Processing_Speed"	"LEFT"	"DOWN"	339.41329999999	1083.3333355	""	n/a	n/a	n/a	n/a	n/a	n/a	"2020-03-10 13:26:40.418489"	"2020-03-10 13:26:40.966466"	41	2.04196795
"S200310"	"Processing_Speed"	"LEFT"	"DOWN"	318.554999999975	1400.0000028	""	n/a	n/a	n/a	n/a	n/a	n/a	"2020-03-10 13:26:42.375424"	"2020-03-10 13:26:42.901029"	42	2.04196795
"S200310"	"Processing_Speed"	"RIGHT"	"DOWN"	346.841600000005	916.6666685	""	n/a	n/a	n/a	n/a	n/a	n/a	"2020-03-10 13:26:43.826626"	"2020-03-10 13:26:44.381172"	43	2.04196795
"S200310"	"Processing_Speed"	"LEFT"	"DOWN"	303.292099999993	1216.6666691	""	n/a	n/a	n/a	n/a	n/a	n/a	"2020-03-10 13:26:45.606506"	"2020-03-10 13:26:46.117632"	44	2.04196795
"S200310"	"Processing_Speed"	"LEFT"	"DOWN"	350.214100000017	1433.3333362	""	n/a	n/a	n/a	n/a	n/a	n/a	"2020-03-10 13:26:47.559020"	"2020-03-10 13:26:48.117526"	45	2.04196795
"S200310"	"Processing_Speed"	"RIGHT"	"DOWN"	297.305499999993	1333.333336	""	n/a	n/a	n/a	n/a	n/a	n/a	"2020-03-10 13:26:49.460227"	"2020-03-10 13:26:49.966648"	46	2.04196795
"S200310"	"Processing_Speed"	"LEFT"	"DOWN"	275.993499999998	850.0000017	""	n/a	n/a	n/a	n/a	n/a	n/a	"2020-03-10 13:26:50.825477"	"2020-03-10 13:26:51.310269"	47	2.04196795
"S200310"	"Processing_Speed"	"LEFT"	"DOWN"	349.882900000011	816.6666683	""	n/a	n/a	n/a	n/a	n/a	n/a	"2020-03-10 13:26:52.135662"	"2020-03-10 13:26:52.692740"	48	2.04196795
"S200310"	"Processing_Speed"	"RIGHT"	"DOWN"	336.214500000011	600.0000012	""	n/a	n/a	n/a	n/a	n/a	n/a	"2020-03-10 13:26:53.301272"	"2020-03-10 13:26:53.846589"	49	2.04196795
"S200310"	"Processing_Speed"	"RIGHT"	"DOWN"	386.675699999984	1466.6666696	""	n/a	n/a	n/a	n/a	n/a	n/a	"2020-03-10 13:26:55.323234"	"2020-03-10 13:26:55.916792"	50	2.04196795
"S200310"	"Processing_Speed"	"LEFT"	"DOWN"	417.081499999995	1366.6666694	""	n/a	n/a	n/a	n/a	n/a	n/a	"2020-03-10 13:26:57.292568"	"2020-03-10 13:26:57.917504"	51	2.04196795
"S200310"	"Processing_Speed"	"LEFT"	"DOWN"	324.896599999988	1466.6666696	""	n/a	n/a	n/a	n/a	n/a	n/a	"2020-03-10 13:26:59.392372"	"2020-03-10 13:26:59.924966"	52	2.04196795
"S200310"	"Processing_Speed"	"LEFT"	"DOWN"	427.921300000008	500.000001	""	n/a	n/a	n/a	n/a	n/a	n/a	"2020-03-10 13:27:00.433353"	"2020-03-10 13:27:01.069225"	53	2.04196795
"S200310"	"Processing_Speed"	"RIGHT"	"DOWN"	288.445800000005	1183.3333357	""	n/a	n/a	n/a	n/a	n/a	n/a	"2020-03-10 13:27:02.260589"	"2020-03-10 13:27:02.757041"	54	2.04196795
"S200310"	"Processing_Speed"	"LEFT"	"DOWN"	274.752700000022	1333.333336	""	n/a	n/a	n/a	n/a	n/a	n/a	"2020-03-10 13:27:04.098990"	"2020-03-10 13:27:04.580746"	55	2.04196795
"S200310"	"Processing_Speed"	"RIGHT"	"DOWN"	236.855600000013	883.3333351	""	n/a	n/a	n/a	n/a	n/a	n/a	"2020-03-10 13:27:05.472548"	"2020-03-10 13:27:05.916787"	56	2.04196795
"S200310"	"Processing_Speed"	"LEFT"	"DOWN"	282.177600000011	1150.0000023	""	n/a	n/a	n/a	n/a	n/a	n/a	"2020-03-10 13:27:07.075879"	"2020-03-10 13:27:07.564988"	57	2.04196795
"S200310"	"Processing_Speed"	"LEFT"	"DOWN"	500.07819999999	1300.0000026	""	n/a	n/a	n/a	n/a	n/a	n/a	"2020-03-10 13:27:08.873856"	"2020-03-10 13:27:09.580764"	58	2.04196795
"S200310"	"Processing_Speed"	"RIGHT"	"DOWN"	305.770199999984	1150.0000023	""	n/a	n/a	n/a	n/a	n/a	n/a	"2020-03-10 13:27:10.739366"	"2020-03-10 13:27:11.252976"	59	2.04196795
"S200310"	"Processing_Speed"	"LEFT"	"DOWN"	296.51579999998	1183.3333357	""	n/a	n/a	n/a	n/a	n/a	n/a	"2020-03-10 13:27:12.445404"	"2020-03-10 13:27:12.949127"	60	2.04196795
"S200310"	"Response_Inhibition"	"RIGHT"	"RIGHT"	545.419999999979	850.0000017	n/a	n/a	n/a	n/a	n/a	n/a	n/a	"2020-03-10 13:30:44.259935"	"2020-03-10 13:30:45.013340"	1	5.66830408333333
"S200310"	"Response_Inhibition"	"LEFT"	"LEFT"	365.963299999976	1033.3333354	n/a	n/a	n/a	n/a	n/a	n/a	n/a	"2020-03-10 13:30:46.055776"	"2020-03-10 13:30:46.629089"	2	5.66830408333333
"S200310"	"Response_Inhibition"	"LEFT"	"LEFT"	364.603233600029	783.3333349	n/a	n/a	n/a	n/a	n/a	n/a	n/a	"2020-03-10 13:30:47.420976"	"2020-03-10 13:30:47.997675"	3	5.66830408333333
"S200310"	"Response_Inhibition"	"RIGHT"	"RIGHT"	430.568800000003	1216.6666691	n/a	n/a	n/a	n/a	n/a	n/a	n/a	"2020-03-10 13:30:49.222796"	"2020-03-10 13:30:49.861121"	4	5.66830408333333
"S200310"	"Response_Inhibition"	"LEFT"	"Time_Max_Exceeded"	1500.04600009999	683.3333347	n/a	n/a	n/a	n/a	n/a	n/a	n/a	"2020-03-10 13:30:50.553349"	"2020-03-10 13:30:52.056802"	5	5.66830408333333
"S200310"	"Response_Inhibition"	"RIGHT"	"RIGHT"	408.998900000029	866.6666684	n/a	n/a	n/a	n/a	n/a	n/a	n/a	"2020-03-10 13:30:52.932891"	"2020-03-10 13:30:53.549138"	6	5.66830408333333
"S200310"	"Response_Inhibition"	"LEFT"	"Time_Max_Exceeded"	1500.0577337	1016.6666687	n/a	n/a	n/a	n/a	n/a	n/a	n/a	"2020-03-10 13:30:54.574607"	"2020-03-10 13:30:56.077936"	7	5.66830408333333
"S200310"	"Response_Inhibition"	"RIGHT"	"RIGHT"	310.348299999987	1200.0000024	n/a	n/a	n/a	n/a	n/a	n/a	n/a	"2020-03-10 13:30:57.287138"	"2020-03-10 13:30:57.805509"	8	5.66830408333333
"S200310"	"Response_Inhibition"	"LEFT"	"LEFT"	385.437899999999	1150.0000023	n/a	n/a	n/a	n/a	n/a	n/a	n/a	"2020-03-10 13:30:58.964363"	"2020-03-10 13:30:59.557373"	9	5.66830408333333
"S200310"	"Response_Inhibition"	"RIGHT"	"RIGHT"	281.93159999995	733.3333348	n/a	n/a	n/a	n/a	n/a	n/a	n/a	"2020-03-10 13:31:00.299728"	"2020-03-10 13:31:00.789237"	10	5.66830408333333
"S200310"	"Response_Inhibition"	"LEFT"	"LEFT"	259.563000000014	700.0000014	n/a	n/a	n/a	n/a	n/a	n/a	n/a	"2020-03-10 13:31:01.497378"	"2020-03-10 13:31:01.966224"	11	5.66830408333333
"S200310"	"Response_Inhibition"	"LEFT"	"LEFT"	386.510900000019	900.0000018	n/a	n/a	n/a	n/a	n/a	n/a	n/a	"2020-03-10 13:31:02.875110"	"2020-03-10 13:31:03.468820"	12	5.66830408333333
"S200310"	"Response_Inhibition"	"RIGHT"	"RIGHT"	302.162600299997	1150.0000023	n/a	n/a	n/a	n/a	n/a	n/a	n/a	"2020-03-10 13:31:04.627845"	"2020-03-10 13:31:05.141637"	13	5.66830408333333
"S200310"	"Response_Inhibition"	"RIGHT"	"RIGHT"	500.874399999987	1250.0000025	n/a	n/a	n/a	n/a	n/a	n/a	n/a	"2020-03-10 13:31:06.400405"	"2020-03-10 13:31:07.109332"	14	5.66830408333333
"S200310"	"Response_Inhibition"	"RIGHT"	"RIGHT"	405.40279999999	1050.0000021	n/a	n/a	n/a	n/a	n/a	n/a	n/a	"2020-03-10 13:31:08.168398"	"2020-03-10 13:31:08.780986"	15	5.66830408333333
"S200310"	"Response_Inhibition"	"RIGHT"	"RIGHT"	384.295299999962	583.3333345	n/a	n/a	n/a	n/a	n/a	n/a	n/a	"2020-03-10 13:31:09.373269"	"2020-03-10 13:31:09.965647"	16	5.66830408333333
"S200310"	"Response_Inhibition"	"RIGHT"	"RIGHT"	364.546899999993	1066.6666688	n/a	n/a	n/a	n/a	n/a	n/a	n/a	"2020-03-10 13:31:11.040910"	"2020-03-10 13:31:11.613379"	17	5.66830408333333
"S200310"	"Response_Inhibition"	"LEFT"	"LEFT"	378.356800000006	716.6666681	n/a	n/a	n/a	n/a	n/a	n/a	n/a	"2020-03-10 13:31:12.339168"	"2020-03-10 13:31:12.925597"	18	5.66830408333333
"S200310"	"Response_Inhibition"	"LEFT"	"LEFT"	375.770400000022	1333.333336	n/a	n/a	n/a	n/a	n/a	n/a	n/a	"2020-03-10 13:31:14.269861"	"2020-03-10 13:31:14.854474"	19	5.66830408333333
"S200310"	"Response_Inhibition"	"RIGHT"	"RIGHT"	301.324600000044	616.6666679	n/a	n/a	n/a	n/a	n/a	n/a	n/a	"2020-03-10 13:31:15.480094"	"2020-03-10 13:31:15.988781"	20	5.66830408333333
"S200310"	"Response_Inhibition"	"LEFT"	"LEFT"	321.694600000001	533.3333344	n/a	n/a	n/a	n/a	n/a	n/a	n/a	"2020-03-10 13:31:16.531681"	"2020-03-10 13:31:17.061028"	21	5.66830408333333
"S200310"	"Response_Inhibition"	"RIGHT"	"RIGHT"	245.787900000039	1050.0000021	n/a	n/a	n/a	n/a	n/a	n/a	n/a	"2020-03-10 13:31:18.119543"	"2020-03-10 13:31:18.573371"	22	5.66830408333333
"S200310"	"Response_Inhibition"	"RIGHT"	"RIGHT"	343.230233699978	916.6666685	n/a	n/a	n/a	n/a	n/a	n/a	n/a	"2020-03-10 13:31:19.499179"	"2020-03-10 13:31:20.053338"	23	5.66830408333333
"S200310"	"Response_Inhibition"	"RIGHT"	"Time_Max_Exceeded"	1500.05673350002	783.3333349	n/a	n/a	n/a	n/a	n/a	n/a	n/a	"2020-03-10 13:31:20.844921"	"2020-03-10 13:31:22.348020"	24	5.66830408333333
"S200310"	"Response_Inhibition"	"RIGHT"	"RIGHT"	398.078300000009	1416.6666695	n/a	n/a	n/a	n/a	n/a	n/a	n/a	"2020-03-10 13:31:23.775518"	"2020-03-10 13:31:24.381180"	25	5.66830408333333
"S200310"	"Response_Inhibition"	"LEFT"	"LEFT"	375.871700000005	566.6666678	n/a	n/a	n/a	n/a	n/a	n/a	n/a	"2020-03-10 13:31:24.957690"	"2020-03-10 13:31:25.541586"	26	5.66830408333333
"S200310"	"Response_Inhibition"	"RIGHT"	"RIGHT"	392.151699999999	766.6666682	n/a	n/a	n/a	n/a	n/a	n/a	n/a	"2020-03-10 13:31:26.317048"	"2020-03-10 13:31:26.917408"	27	5.66830408333333
"S200310"	"Response_Inhibition"	"LEFT"	"LEFT"	336.051999999995	783.3333349	n/a	n/a	n/a	n/a	n/a	n/a	n/a	"2020-03-10 13:31:27.708977"	"2020-03-10 13:31:28.253512"	28	5.66830408333333
"S200310"	"Response_Inhibition"	"LEFT"	"LEFT"	372.745699999996	666.666668	n/a	n/a	n/a	n/a	n/a	n/a	n/a	"2020-03-10 13:31:28.928172"	"2020-03-10 13:31:29.508925"	29	5.66830408333333
"S200310"	"Response_Inhibition"	"LEFT"	"LEFT"	365.851199999952	1400.0000028	n/a	n/a	n/a	n/a	n/a	n/a	n/a	"2020-03-10 13:31:30.919801"	"2020-03-10 13:31:31.493264"	30	5.66830408333333
"S200310"	"Response_Inhibition"	"LEFT"	"LEFT"	351.456999999982	1000.000002	n/a	n/a	n/a	n/a	n/a	n/a	n/a	"2020-03-10 13:31:32.501885"	"2020-03-10 13:31:33.061375"	31	5.66830408333333
"S200310"	"Response_Inhibition"	"LEFT"	"LEFT"	333.522499999958	850.0000017	n/a	n/a	n/a	n/a	n/a	n/a	n/a	"2020-03-10 13:31:33.919562"	"2020-03-10 13:31:34.460725"	32	5.66830408333333
"S200310"	"Response_Inhibition"	"LEFT"	"LEFT"	348.744400000044	866.6666684	n/a	n/a	n/a	n/a	n/a	n/a	n/a	"2020-03-10 13:31:35.336839"	"2020-03-10 13:31:35.892794"	33	5.66830408333333
"S200310"	"Response_Inhibition"	"LEFT"	"LEFT"	348.806300000035	683.3333347	n/a	n/a	n/a	n/a	n/a	n/a	n/a	"2020-03-10 13:31:36.584942"	"2020-03-10 13:31:37.141070"	34	5.66830408333333
"S200310"	"Response_Inhibition"	"LEFT"	"LEFT"	341.797499999984	650.0000013	n/a	n/a	n/a	n/a	n/a	n/a	n/a	"2020-03-10 13:31:37.799130"	"2020-03-10 13:31:38.349341"	35	5.66830408333333
"S200310"	"Response_Inhibition"	"LEFT"	"LEFT"	327.590300200031	1316.6666693	n/a	n/a	n/a	n/a	n/a	n/a	n/a	"2020-03-10 13:31:39.674879"	"2020-03-10 13:31:40.213708"	36	5.66830408333333
"S200310"	"Response_Inhibition"	"LEFT"	"LEFT"	1278.75820000003	1216.6666691	n/a	n/a	n/a	n/a	n/a	n/a	n/a	"2020-03-10 13:31:41.438708"	"2020-03-10 13:31:42.925569"	37	5.66830408333333
"S200310"	"Response_Inhibition"	"LEFT"	"LEFT"	419.203733599965	1216.6666691	n/a	n/a	n/a	n/a	n/a	n/a	n/a	"2020-03-10 13:31:44.150756"	"2020-03-10 13:31:44.781078"	38	5.66830408333333
"S200310"	"Response_Inhibition"	"LEFT"	"LEFT"	581.568799999957	1450.0000029	n/a	n/a	n/a	n/a	n/a	n/a	n/a	"2020-03-10 13:31:46.239742"	"2020-03-10 13:31:47.030286"	39	5.66830408333333
"S200310"	"Response_Inhibition"	"RIGHT"	"Time_Max_Exceeded"	1500.05440069999	850.0000017	n/a	n/a	n/a	n/a	n/a	n/a	n/a	"2020-03-10 13:31:47.888914"	"2020-03-10 13:31:49.391822"	40	5.66830408333333
"S200310"	"Response_Inhibition"	"RIGHT"	"Time_Max_Exceeded"	1500.05820019999	1433.3333362	n/a	n/a	n/a	n/a	n/a	n/a	n/a	"2020-03-10 13:31:50.834199"	"2020-03-10 13:31:52.338015"	41	5.66830408333333
"S200310"	"Response_Inhibition"	"RIGHT"	"RIGHT"	527.141066999987	800.0000016	n/a	n/a	n/a	n/a	n/a	n/a	n/a	"2020-03-10 13:31:53.147153"	"2020-03-10 13:31:53.884912"	42	5.66830408333333
"S200310"	"Response_Inhibition"	"LEFT"	"LEFT"	433.92289999997	733.3333348	n/a	n/a	n/a	n/a	n/a	n/a	n/a	"2020-03-10 13:31:54.627565"	"2020-03-10 13:31:55.269247"	43	5.66830408333333
"S200310"	"Response_Inhibition"	"LEFT"	"Time_Max_Exceeded"	1500.05396679999	950.0000019	n/a	n/a	n/a	n/a	n/a	n/a	n/a	"2020-03-10 13:31:56.227367"	"2020-03-10 13:31:57.730933"	44	5.66830408333333
"S200310"	"Response_Inhibition"	"LEFT"	"Time_Max_Exceeded"	1500.05600020001	1466.6666696	n/a	n/a	n/a	n/a	n/a	n/a	n/a	"2020-03-10 13:31:59.207643"	"2020-03-10 13:32:00.711776"	45	5.66830408333333
"S200310"	"Response_Inhibition"	"RIGHT"	"RIGHT"	1081.20250000002	1083.3333355	n/a	n/a	n/a	n/a	n/a	n/a	n/a	"2020-03-10 13:32:01.804369"	"2020-03-10 13:32:03.093158"	46	5.66830408333333
"S200310"	"Response_Inhibition"	"LEFT"	"LEFT"	458.483099999967	1500.000003	n/a	n/a	n/a	n/a	n/a	n/a	n/a	"2020-03-10 13:32:04.603127"	"2020-03-10 13:32:05.269342"	47	5.66830408333333
"S200310"	"Response_Inhibition"	"LEFT"	"LEFT"	511.739799999987	600.0000012	n/a	n/a	n/a	n/a	n/a	n/a	n/a	"2020-03-10 13:32:05.877840"	"2020-03-10 13:32:06.597056"	48	5.66830408333333
"S200310"	"Response_Inhibition"	"RIGHT"	"RIGHT"	536.727900000017	566.6666678	n/a	n/a	n/a	n/a	n/a	n/a	n/a	"2020-03-10 13:32:07.172566"	"2020-03-10 13:32:07.917529"	49	5.66830408333333
"S200310"	"Response_Inhibition"	"RIGHT"	"RIGHT"	399.015767299988	1116.6666689	n/a	n/a	n/a	n/a	n/a	n/a	n/a	"2020-03-10 13:32:09.042910"	"2020-03-10 13:32:09.653409"	50	5.66830408333333
"S200310"	"Response_Inhibition"	"RIGHT"	"RIGHT"	900.554299999953	650.0000013	n/a	n/a	n/a	n/a	n/a	n/a	n/a	"2020-03-10 13:32:10.312629"	"2020-03-10 13:32:11.420802"	51	5.66830408333333
"S200310"	"Response_Inhibition"	"RIGHT"	"Time_Max_Exceeded"	1500.04830040001	1316.6666693	n/a	n/a	n/a	n/a	n/a	n/a	n/a	"2020-03-10 13:32:12.746572"	"2020-03-10 13:32:14.250129"	52	5.66830408333333
"S200310"	"Response_Inhibition"	"RIGHT"	"RIGHT"	412.427300000047	750.0000015	n/a	n/a	n/a	n/a	n/a	n/a	n/a	"2020-03-10 13:32:15.008440"	"2020-03-10 13:32:15.629117"	53	5.66830408333333
"S200310"	"Response_Inhibition"	"LEFT"	"LEFT"	383.485333900037	516.6666677	n/a	n/a	n/a	n/a	n/a	n/a	n/a	"2020-03-10 13:32:16.154750"	"2020-03-10 13:32:16.748692"	54	5.66830408333333
"S200310"	"Response_Inhibition"	"RIGHT"	"RIGHT"	320.634400000017	583.3333345	n/a	n/a	n/a	n/a	n/a	n/a	n/a	"2020-03-10 13:32:17.340677"	"2020-03-10 13:32:17.869527"	55	5.66830408333333
"S200310"	"Response_Inhibition"	"RIGHT"	"RIGHT"	385.210000000029	550.0000011	n/a	n/a	n/a	n/a	n/a	n/a	n/a	"2020-03-10 13:32:18.428024"	"2020-03-10 13:32:19.021068"	56	5.66830408333333
"S200310"	"Response_Inhibition"	"RIGHT"	"RIGHT"	372.222700000009	683.3333347	n/a	n/a	n/a	n/a	n/a	n/a	n/a	"2020-03-10 13:32:19.712750"	"2020-03-10 13:32:20.293244"	57	5.66830408333333
"S200310"	"Response_Inhibition"	"LEFT"	"LEFT"	323.330767099989	816.6666683	n/a	n/a	n/a	n/a	n/a	n/a	n/a	"2020-03-10 13:32:21.118390"	"2020-03-10 13:32:21.652946"	58	5.66830408333333
"S200310"	"Response_Inhibition"	"RIGHT"	"RIGHT"	448.905933599996	1483.3333363	n/a	n/a	n/a	n/a	n/a	n/a	n/a	"2020-03-10 13:32:23.145422"	"2020-03-10 13:32:23.804888"	59	5.66830408333333
"S200310"	"Response_Inhibition"	"LEFT"	"LEFT"	696.148699999981	1000.000002	n/a	n/a	n/a	n/a	n/a	n/a	n/a	"2020-03-10 13:32:24.813374"	"2020-03-10 13:32:25.717645"	60	5.66830408333333
"S200310"	"Response_Inhibition"	"RIGHT"	"RIGHT"	466.351299999985	716.6666681	n/a	n/a	n/a	n/a	n/a	n/a	n/a	"2020-03-10 13:32:26.442699"	"2020-03-10 13:32:27.117564"	61	5.66830408333333
"S200310"	"Response_Inhibition"	"RIGHT"	"RIGHT"	616.396000000009	1400.0000028	n/a	n/a	n/a	n/a	n/a	n/a	n/a	"2020-03-10 13:32:28.526117"	"2020-03-10 13:32:29.349879"	62	5.66830408333333
"S200310"	"Response_Inhibition"	"LEFT"	"LEFT"	397.268999999937	1416.6666695	n/a	n/a	n/a	n/a	n/a	n/a	n/a	"2020-03-10 13:32:30.775664"	"2020-03-10 13:32:31.381546"	63	5.66830408333333
"S200310"	"Response_Inhibition"	"LEFT"	"LEFT"	893.403900000067	633.3333346	n/a	n/a	n/a	n/a	n/a	n/a	n/a	"2020-03-10 13:32:32.023593"	"2020-03-10 13:32:33.124903"	64	5.66830408333333
"S200310"	"Response_Inhibition"	"RIGHT"	"Time_Max_Exceeded"	1500.07026669997	600.0000012	n/a	n/a	n/a	n/a	n/a	n/a	n/a	"2020-03-10 13:32:33.733573"	"2020-03-10 13:32:35.239011"	65	5.66830408333333
"S200310"	"Response_Inhibition"	"LEFT"	"LEFT"	402.811066900012	1383.3333361	n/a	n/a	n/a	n/a	n/a	n/a	n/a	"2020-03-10 13:32:36.631283"	"2020-03-10 13:32:37.245639"	66	5.66830408333333
"S200310"	"Response_Inhibition"	"RIGHT"	"RIGHT"	660.218500000042	1266.6666692	n/a	n/a	n/a	n/a	n/a	n/a	n/a	"2020-03-10 13:32:38.521287"	"2020-03-10 13:32:39.389495"	67	5.66830408333333
"S200310"	"Response_Inhibition"	"RIGHT"	"RIGHT"	413.91479999993	816.6666683	n/a	n/a	n/a	n/a	n/a	n/a	n/a	"2020-03-10 13:32:40.215780"	"2020-03-10 13:32:40.837387"	68	5.66830408333333
"S200310"	"Response_Inhibition"	"LEFT"	"Time_Max_Exceeded"	1500.05256720003	1350.0000027	n/a	n/a	n/a	n/a	n/a	n/a	n/a	"2020-03-10 13:32:42.195717"	"2020-03-10 13:32:43.699051"	69	5.66830408333333
"S200310"	"Response_Inhibition"	"LEFT"	"LEFT"	685.166900000013	1483.3333363	n/a	n/a	n/a	n/a	n/a	n/a	n/a	"2020-03-10 13:32:45.192180"	"2020-03-10 13:32:46.084889"	70	5.66830408333333
"S200310"	"Response_Inhibition"	"LEFT"	"LEFT"	387.647600000037	1100.0000022	n/a	n/a	n/a	n/a	n/a	n/a	n/a	"2020-03-10 13:32:47.193564"	"2020-03-10 13:32:47.788174"	71	5.66830408333333
"S200310"	"Response_Inhibition"	"LEFT"	"LEFT"	422.683399999983	1050.0000021	n/a	n/a	n/a	n/a	n/a	n/a	n/a	"2020-03-10 13:32:48.846719"	"2020-03-10 13:32:49.476386"	72	5.66830408333333
"S200310"	"Response_Inhibition"	"LEFT"	"LEFT"	350.684199999932	833.333335	n/a	n/a	n/a	n/a	n/a	n/a	n/a	"2020-03-10 13:32:50.318519"	"2020-03-10 13:32:50.877583"	73	5.66830408333333
"S200310"	"Response_Inhibition"	"RIGHT"	"RIGHT"	505.236599999989	950.0000019	n/a	n/a	n/a	n/a	n/a	n/a	n/a	"2020-03-10 13:32:51.836413"	"2020-03-10 13:32:52.549686"	74	5.66830408333333
"S200310"	"Response_Inhibition"	"RIGHT"	"RIGHT"	396.419100599935	1383.3333361	n/a	n/a	n/a	n/a	n/a	n/a	n/a	"2020-03-10 13:32:53.941913"	"2020-03-10 13:32:54.548878"	75	5.66830408333333
"S200310"	"Response_Inhibition"	"LEFT"	"LEFT"	353.976699999976	1150.0000023	n/a	n/a	n/a	n/a	n/a	n/a	n/a	"2020-03-10 13:32:55.706880"	"2020-03-10 13:32:56.267982"	76	5.66830408333333
"S200310"	"Response_Inhibition"	"LEFT"	"LEFT"	371.967699999914	916.6666685	n/a	n/a	n/a	n/a	n/a	n/a	n/a	"2020-03-10 13:32:57.192737"	"2020-03-10 13:32:57.771953"	77	5.66830408333333
"S200310"	"Response_Inhibition"	"LEFT"	"LEFT"	433.699799999999	1366.6666694	n/a	n/a	n/a	n/a	n/a	n/a	n/a	"2020-03-10 13:32:59.147307"	"2020-03-10 13:32:59.789628"	78	5.66830408333333
"S200310"	"Response_Inhibition"	"LEFT"	"LEFT"	395.269233699958	1416.6666695	n/a	n/a	n/a	n/a	n/a	n/a	n/a	"2020-03-10 13:33:01.214573"	"2020-03-10 13:33:01.821066"	79	5.66830408333333
"S200310"	"Response_Inhibition"	"RIGHT"	"RIGHT"	596.931000000041	1466.6666696	n/a	n/a	n/a	n/a	n/a	n/a	n/a	"2020-03-10 13:33:03.296594"	"2020-03-10 13:33:04.101278"	80	5.66830408333333
"S200310"	"Response_Inhibition"	"LEFT"	"LEFT"	455.906099999993	1183.3333357	n/a	n/a	n/a	n/a	n/a	n/a	n/a	"2020-03-10 13:33:05.293252"	"2020-03-10 13:33:05.957084"	81	5.66830408333333
"S200310"	"Response_Inhibition"	"RIGHT"	"RIGHT"	505.539800000065	933.3333352	n/a	n/a	n/a	n/a	n/a	n/a	n/a	"2020-03-10 13:33:06.899765"	"2020-03-10 13:33:07.612971"	82	5.66830408333333
"S200310"	"Response_Inhibition"	"RIGHT"	"Time_Max_Exceeded"	1500.05626709996	633.3333346	n/a	n/a	n/a	n/a	n/a	n/a	n/a	"2020-03-10 13:33:08.256018"	"2020-03-10 13:33:09.758904"	83	5.66830408333333
"S200310"	"Response_Inhibition"	"LEFT"	"LEFT"	516.562600000043	800.0000016	n/a	n/a	n/a	n/a	n/a	n/a	n/a	"2020-03-10 13:33:10.568652"	"2020-03-10 13:33:11.292944"	84	5.66830408333333
"S200310"	"Response_Inhibition"	"RIGHT"	"RIGHT"	627.268299999969	1500.000003	n/a	n/a	n/a	n/a	n/a	n/a	n/a	"2020-03-10 13:33:12.802259"	"2020-03-10 13:33:13.637639"	85	5.66830408333333
"S200310"	"Response_Inhibition"	"LEFT"	"LEFT"	431.106100000079	983.3333353	n/a	n/a	n/a	n/a	n/a	n/a	n/a	"2020-03-10 13:33:14.629561"	"2020-03-10 13:33:15.269670"	86	5.66830408333333
"S200310"	"Response_Inhibition"	"LEFT"	"LEFT"	714.282300000036	1116.6666689	n/a	n/a	n/a	n/a	n/a	n/a	n/a	"2020-03-10 13:33:16.394867"	"2020-03-10 13:33:17.316834"	87	5.66830408333333
"S200310"	"Response_Inhibition"	"RIGHT"	"RIGHT"	568.681200599946	1100.0000022	n/a	n/a	n/a	n/a	n/a	n/a	n/a	"2020-03-10 13:33:18.425319"	"2020-03-10 13:33:19.206241"	88	5.66830408333333
"S200310"	"Response_Inhibition"	"LEFT"	"LEFT"	748.770000000036	1233.3333358	n/a	n/a	n/a	n/a	n/a	n/a	n/a	"2020-03-10 13:33:20.447953"	"2020-03-10 13:33:21.406448"	89	5.66830408333333
"S200310"	"Response_Inhibition"	"RIGHT"	"Time_Max_Exceeded"	1500.0562004999	533.3333344	n/a	n/a	n/a	n/a	n/a	n/a	n/a	"2020-03-10 13:33:21.948327"	"2020-03-10 13:33:23.451842"	90	5.66830408333333
"S200310"	"Response_Inhibition"	"LEFT"	"LEFT"	462.918500000001	633.3333346	n/a	n/a	n/a	n/a	n/a	n/a	n/a	"2020-03-10 13:33:24.094656"	"2020-03-10 13:33:24.765624"	91	5.66830408333333
"S200310"	"Response_Inhibition"	"RIGHT"	"Time_Max_Exceeded"	1500.05220030005	500.000001	n/a	n/a	n/a	n/a	n/a	n/a	n/a	"2020-03-10 13:33:25.274242"	"2020-03-10 13:33:26.777803"	92	5.66830408333333
"S200310"	"Response_Inhibition"	"RIGHT"	"Time_Max_Exceeded"	1500.04706669999	883.3333351	n/a	n/a	n/a	n/a	n/a	n/a	n/a	"2020-03-10 13:33:27.670432"	"2020-03-10 13:33:29.174366"	93	5.66830408333333
"S200310"	"Response_Inhibition"	"LEFT"	"LEFT"	498.267900000087	500.000001	n/a	n/a	n/a	n/a	n/a	n/a	n/a	"2020-03-10 13:33:29.683021"	"2020-03-10 13:33:30.389378"	94	5.66830408333333
"S200310"	"Response_Inhibition"	"RIGHT"	"RIGHT"	720.244999999977	966.6666686	n/a	n/a	n/a	n/a	n/a	n/a	n/a	"2020-03-10 13:33:31.364884"	"2020-03-10 13:33:32.294473"	95	5.66830408333333
"S200310"	"Response_Inhibition"	"LEFT"	"LEFT"	787.062799999944	1083.3333355	n/a	n/a	n/a	n/a	n/a	n/a	n/a	"2020-03-10 13:33:33.385796"	"2020-03-10 13:33:34.380877"	96	5.66830408333333
"S200310"	"Response_Inhibition"	"RIGHT"	"RIGHT"	417.685000000006	1150.0000023	n/a	n/a	n/a	n/a	n/a	n/a	n/a	"2020-03-10 13:33:35.539723"	"2020-03-10 13:33:36.165436"	97	5.66830408333333
"S200310"	"Response_Inhibition"	"RIGHT"	"RIGHT"	793.457500000045	533.3333344	n/a	n/a	n/a	n/a	n/a	n/a	n/a	"2020-03-10 13:33:36.707319"	"2020-03-10 13:33:37.708883"	98	5.66830408333333
"S200310"	"Response_Inhibition"	"LEFT"	"LEFT"	339.219699999944	1316.6666693	n/a	n/a	n/a	n/a	n/a	n/a	n/a	"2020-03-10 13:33:39.033717"	"2020-03-10 13:33:39.581244"	99	5.66830408333333
"S200310"	"Response_Inhibition"	"RIGHT"	"LEFT"	632.148899999947	1133.3333356	n/a	n/a	n/a	n/a	n/a	n/a	n/a	"2020-03-10 13:33:40.725416"	"2020-03-10 13:33:41.565335"	100	5.66830408333333
"S200310"	"Response_Inhibition"	"LEFT"	"LEFT"	467.661400000111	1283.3333359	n/a	n/a	n/a	n/a	n/a	n/a	n/a	"2020-03-10 13:33:42.857309"	"2020-03-10 13:33:43.533370"	101	5.66830408333333
"S200310"	"Response_Inhibition"	"LEFT"	"Time_Max_Exceeded"	1500.12086700001	883.3333351	n/a	n/a	n/a	n/a	n/a	n/a	n/a	"2020-03-10 13:33:44.425583"	"2020-03-10 13:33:45.929454"	102	5.66830408333333
"S200310"	"Response_Inhibition"	"RIGHT"	"Time_Max_Exceeded"	1500.0540334	666.666668	n/a	n/a	n/a	n/a	n/a	n/a	n/a	"2020-03-10 13:33:46.604705"	"2020-03-10 13:33:48.108163"	103	5.66830408333333
"S200310"	"Response_Inhibition"	"RIGHT"	"RIGHT"	566.41209999998	633.3333346	n/a	n/a	n/a	n/a	n/a	n/a	n/a	"2020-03-10 13:33:48.751034"	"2020-03-10 13:33:49.525498"	104	5.66830408333333
"S200310"	"Response_Inhibition"	"RIGHT"	"RIGHT"	549.785834000059	733.3333348	n/a	n/a	n/a	n/a	n/a	n/a	n/a	"2020-03-10 13:33:50.267984"	"2020-03-10 13:33:51.029353"	105	5.66830408333333
"S200310"	"Response_Inhibition"	"RIGHT"	"Time_Max_Exceeded"	1500.05393350008	1233.3333358	n/a	n/a	n/a	n/a	n/a	n/a	n/a	"2020-03-10 13:33:52.270875"	"2020-03-10 13:33:53.774646"	106	5.66830408333333
"S200310"	"Response_Inhibition"	"LEFT"	"LEFT"	558.573299999921	1366.6666694	n/a	n/a	n/a	n/a	n/a	n/a	n/a	"2020-03-10 13:33:55.150989"	"2020-03-10 13:33:55.916133"	107	5.66830408333333
"S200310"	"Response_Inhibition"	"LEFT"	"Time_Max_Exceeded"	1500.04640010002	1266.6666692	n/a	n/a	n/a	n/a	n/a	n/a	n/a	"2020-03-10 13:33:57.191681"	"2020-03-10 13:33:58.695517"	108	5.66830408333333
"S200310"	"Response_Inhibition"	"LEFT"	"Time_Max_Exceeded"	1500.05909999993	1100.0000022	n/a	n/a	n/a	n/a	n/a	n/a	n/a	"2020-03-10 13:33:59.804509"	"2020-03-10 13:34:01.304479"	109	5.66830408333333
"S200310"	"Response_Inhibition"	"RIGHT"	"RIGHT"	594.880399999965	1416.6666695	n/a	n/a	n/a	n/a	n/a	n/a	n/a	"2020-03-10 13:34:02.729825"	"2020-03-10 13:34:03.533208"	110	5.66830408333333
"S200310"	"Response_Inhibition"	"RIGHT"	"RIGHT"	655.985600000008	983.3333353	n/a	n/a	n/a	n/a	n/a	n/a	n/a	"2020-03-10 13:34:04.525504"	"2020-03-10 13:34:05.389622"	111	5.66830408333333
"S200310"	"Response_Inhibition"	"RIGHT"	"RIGHT"	652.411400000005	833.333335	n/a	n/a	n/a	n/a	n/a	n/a	n/a	"2020-03-10 13:34:06.232570"	"2020-03-10 13:34:07.093383"	112	5.66830408333333
"S200310"	"Response_Inhibition"	"LEFT"	"LEFT"	733.155099999976	850.0000017	n/a	n/a	n/a	n/a	n/a	n/a	n/a	"2020-03-10 13:34:07.952078"	"2020-03-10 13:34:08.894330"	113	5.66830408333333
"S200310"	"Response_Inhibition"	"RIGHT"	"Time_Max_Exceeded"	1500.07343399997	1366.6666694	n/a	n/a	n/a	n/a	n/a	n/a	n/a	"2020-03-10 13:34:10.269065"	"2020-03-10 13:34:11.773256"	114	5.66830408333333
"S200310"	"Response_Inhibition"	"LEFT"	"LEFT"	480.662000000052	766.6666682	n/a	n/a	n/a	n/a	n/a	n/a	n/a	"2020-03-10 13:34:12.548747"	"2020-03-10 13:34:13.237393"	115	5.66830408333333
"S200310"	"Response_Inhibition"	"LEFT"	"LEFT"	934.45250000002	616.6666679	n/a	n/a	n/a	n/a	n/a	n/a	n/a	"2020-03-10 13:34:13.863029"	"2020-03-10 13:34:15.004790"	116	5.66830408333333
"S200310"	"Response_Inhibition"	"LEFT"	"LEFT"	734.610900000007	1433.3333362	n/a	n/a	n/a	n/a	n/a	n/a	n/a	"2020-03-10 13:34:16.446128"	"2020-03-10 13:34:17.388352"	117	5.66830408333333
"S200310"	"Response_Inhibition"	"RIGHT"	"RIGHT"	655.335300000047	1016.6666687	n/a	n/a	n/a	n/a	n/a	n/a	n/a	"2020-03-10 13:34:18.413918"	"2020-03-10 13:34:19.276815"	118	5.66830408333333
"S200310"	"Response_Inhibition"	"RIGHT"	"Time_Max_Exceeded"	1500.07130070004	683.3333347	n/a	n/a	n/a	n/a	n/a	n/a	n/a	"2020-03-10 13:34:19.970002"	"2020-03-10 13:34:21.473628"	119	5.66830408333333
"S200310"	"Response_Inhibition"	"LEFT"	"LEFT"	480.313833899995	750.0000015	n/a	n/a	n/a	n/a	n/a	n/a	n/a	"2020-03-10 13:34:22.233486"	"2020-03-10 13:34:22.925682"	120	5.66830408333333
"S200310"	"Response_Inhibition"	"LEFT"	"LEFT"	753.429299999993	933.3333352	n/a	n/a	n/a	n/a	n/a	n/a	n/a	"2020-03-10 13:34:23.867261"	"2020-03-10 13:34:24.829258"	121	5.66830408333333
"S200310"	"Response_Inhibition"	"LEFT"	"LEFT"	745.904500000051	533.3333344	n/a	n/a	n/a	n/a	n/a	n/a	n/a	"2020-03-10 13:34:25.371326"	"2020-03-10 13:34:26.324775"	122	5.66830408333333
"S200310"	"Response_Inhibition"	"LEFT"	"Time_Max_Exceeded"	1500.05276679989	1050.0000021	n/a	n/a	n/a	n/a	n/a	n/a	n/a	"2020-03-10 13:34:27.383440"	"2020-03-10 13:34:28.886424"	123	5.66830408333333
"S200310"	"Response_Inhibition"	"RIGHT"	"RIGHT"	679.337700000019	1333.333336	n/a	n/a	n/a	n/a	n/a	n/a	n/a	"2020-03-10 13:34:30.229704"	"2020-03-10 13:34:31.117399"	124	5.66830408333333
"S200310"	"Response_Inhibition"	"LEFT"	"LEFT"	1257.62510000004	733.3333348	n/a	n/a	n/a	n/a	n/a	n/a	n/a	"2020-03-10 13:34:31.859780"	"2020-03-10 13:34:33.325595"	125	5.66830408333333
"S200310"	"Response_Inhibition"	"LEFT"	"LEFT"	708.29649999996	1466.6666696	n/a	n/a	n/a	n/a	n/a	n/a	n/a	"2020-03-10 13:34:34.800569"	"2020-03-10 13:34:35.717102"	126	5.66830408333333
"S200310"	"Response_Inhibition"	"RIGHT"	"RIGHT"	715.697599999999	1300.0000026	n/a	n/a	n/a	n/a	n/a	n/a	n/a	"2020-03-10 13:34:37.025217"	"2020-03-10 13:34:37.948770"	127	5.66830408333333
"S200310"	"Response_Inhibition"	"RIGHT"	"Time_Max_Exceeded"	1500.05373379994	1450.0000029	n/a	n/a	n/a	n/a	n/a	n/a	n/a	"2020-03-10 13:34:39.407991"	"2020-03-10 13:34:40.911298"	128	5.66830408333333
"S200310"	"Response_Inhibition"	"RIGHT"	"RIGHT"	628.224899999964	1216.6666691	n/a	n/a	n/a	n/a	n/a	n/a	n/a	"2020-03-10 13:34:42.137551"	"2020-03-10 13:34:42.973000"	129	5.66830408333333
"S200310"	"Response_Inhibition"	"RIGHT"	"RIGHT"	650.924400000008	1316.6666693	n/a	n/a	n/a	n/a	n/a	n/a	n/a	"2020-03-10 13:34:44.298437"	"2020-03-10 13:34:45.157513"	130	5.66830408333333
"S200310"	"Response_Inhibition"	"RIGHT"	"RIGHT"	812.259400000016	1266.6666692	n/a	n/a	n/a	n/a	n/a	n/a	n/a	"2020-03-10 13:34:46.433026"	"2020-03-10 13:34:47.452889"	131	5.66830408333333
"S200310"	"Response_Inhibition"	"LEFT"	"Time_Max_Exceeded"	1500.05820009994	966.6666686	n/a	n/a	n/a	n/a	n/a	n/a	n/a	"2020-03-10 13:34:48.428385"	"2020-03-10 13:34:49.930835"	132	5.66830408333333
"S200310"	"Response_Inhibition"	"LEFT"	"LEFT"	662.10860000001	1266.6666692	n/a	n/a	n/a	n/a	n/a	n/a	n/a	"2020-03-10 13:34:51.207403"	"2020-03-10 13:34:52.077288"	133	5.66830408333333
"S200310"	"Response_Inhibition"	"LEFT"	"Time_Max_Exceeded"	1500.05383380002	583.3333345	n/a	n/a	n/a	n/a	n/a	n/a	n/a	"2020-03-10 13:34:52.670089"	"2020-03-10 13:34:54.173113"	134	5.66830408333333
"S200310"	"Response_Inhibition"	"RIGHT"	"RIGHT"	449.9984338	1033.3333354	n/a	n/a	n/a	n/a	n/a	n/a	n/a	"2020-03-10 13:34:55.216248"	"2020-03-10 13:34:55.877082"	135	5.66830408333333
"S200310"	"Response_Inhibition"	"RIGHT"	"RIGHT"	663.485400000013	1000.000002	n/a	n/a	n/a	n/a	n/a	n/a	n/a	"2020-03-10 13:34:56.885899"	"2020-03-10 13:34:57.756871"	136	5.66830408333333
"S200310"	"Response_Inhibition"	"RIGHT"	"RIGHT"	712.663799999973	1166.666669	n/a	n/a	n/a	n/a	n/a	n/a	n/a	"2020-03-10 13:34:58.932371"	"2020-03-10 13:34:59.853491"	137	5.66830408333333
"S200310"	"Response_Inhibition"	"LEFT"	"Time_Max_Exceeded"	1500.05536730002	900.0000018	n/a	n/a	n/a	n/a	n/a	n/a	n/a	"2020-03-10 13:35:00.763875"	"2020-03-10 13:35:02.266547"	138	5.66830408333333
"S200310"	"Response_Inhibition"	"LEFT"	"Time_Max_Exceeded"	1500.05236719999	550.0000011	n/a	n/a	n/a	n/a	n/a	n/a	n/a	"2020-03-10 13:35:02.826213"	"2020-03-10 13:35:04.329141"	139	5.66830408333333
"S200310"	"Response_Inhibition"	"RIGHT"	"RIGHT"	534.18970000007	516.6666677	n/a	n/a	n/a	n/a	n/a	n/a	n/a	"2020-03-10 13:35:04.855217"	"2020-03-10 13:35:05.596720"	140	5.66830408333333
"S200310"	"Response_Inhibition"	"RIGHT"	"RIGHT"	595.486700000038	1466.6666696	n/a	n/a	n/a	n/a	n/a	n/a	n/a	"2020-03-10 13:35:07.074104"	"2020-03-10 13:35:07.876838"	141	5.66830408333333
"S200310"	"Response_Inhibition"	"LEFT"	"LEFT"	493.05240000001	1066.6666688	n/a	n/a	n/a	n/a	n/a	n/a	n/a	"2020-03-10 13:35:08.952073"	"2020-03-10 13:35:09.653373"	142	5.66830408333333
"S200310"	"Response_Inhibition"	"LEFT"	"Time_Max_Exceeded"	1500.06810039998	1166.666669	n/a	n/a	n/a	n/a	n/a	n/a	n/a	"2020-03-10 13:35:10.828279"	"2020-03-10 13:35:12.331366"	143	5.66830408333333
"S200310"	"Response_Inhibition"	"RIGHT"	"RIGHT"	425.273199999992	1366.6666694	n/a	n/a	n/a	n/a	n/a	n/a	n/a	"2020-03-10 13:35:13.707740"	"2020-03-10 13:35:14.341480"	144	5.66830408333333
"S200310"	"Response_Inhibition"	"RIGHT"	"RIGHT"	679.532400000085	1183.3333357	n/a	n/a	n/a	n/a	n/a	n/a	n/a	"2020-03-10 13:35:15.533784"	"2020-03-10 13:35:16.420865"	145	5.66830408333333
"S200310"	"Response_Inhibition"	"RIGHT"	"RIGHT"	587.38249999999	700.0000014	n/a	n/a	n/a	n/a	n/a	n/a	n/a	"2020-03-10 13:35:17.129544"	"2020-03-10 13:35:17.924835"	146	5.66830408333333
"S200310"	"Response_Inhibition"	"RIGHT"	"RIGHT"	464.201199999934	783.3333349	n/a	n/a	n/a	n/a	n/a	n/a	n/a	"2020-03-10 13:35:18.717127"	"2020-03-10 13:35:19.389467"	147	5.66830408333333
"S200310"	"Response_Inhibition"	"LEFT"	"LEFT"	714.980499999911	1300.0000026	n/a	n/a	n/a	n/a	n/a	n/a	n/a	"2020-03-10 13:35:20.698004"	"2020-03-10 13:35:21.621578"	148	5.66830408333333
"S200310"	"Response_Inhibition"	"LEFT"	"LEFT"	527.6748	583.3333345	n/a	n/a	n/a	n/a	n/a	n/a	n/a	"2020-03-10 13:35:22.213512"	"2020-03-10 13:35:22.949544"	149	5.66830408333333
"S200310"	"Response_Inhibition"	"RIGHT"	"RIGHT"	360.322800499949	1283.3333359	n/a	n/a	n/a	n/a	n/a	n/a	n/a	"2020-03-10 13:35:24.241043"	"2020-03-10 13:35:24.813639"	150	5.66830408333333
"S200310"	"Response_Inhibition"	"LEFT"	"LEFT"	320.972166900032	1250.0000025	n/a	n/a	n/a	n/a	n/a	n/a	n/a	"2020-03-10 13:35:26.073401"	"2020-03-10 13:35:26.604979"	151	5.66830408333333
"S200310"	"Response_Inhibition"	"LEFT"	"LEFT"	751.459400000044	1200.0000024	n/a	n/a	n/a	n/a	n/a	n/a	n/a	"2020-03-10 13:35:27.813048"	"2020-03-10 13:35:28.773048"	152	5.66830408333333
"S200310"	"Response_Inhibition"	"LEFT"	"LEFT"	553.677900000025	950.0000019	n/a	n/a	n/a	n/a	n/a	n/a	n/a	"2020-03-10 13:35:29.731812"	"2020-03-10 13:35:30.492829"	153	5.66830408333333
"S200310"	"Response_Inhibition"	"RIGHT"	"RIGHT"	452.155967300017	1000.000002	n/a	n/a	n/a	n/a	n/a	n/a	n/a	"2020-03-10 13:35:31.501504"	"2020-03-10 13:35:32.165174"	154	5.66830408333333
"S200310"	"Response_Inhibition"	"RIGHT"	"Time_Max_Exceeded"	1500.06150000002	950.0000019	n/a	n/a	n/a	n/a	n/a	n/a	n/a	"2020-03-10 13:35:33.123742"	"2020-03-10 13:35:34.623561"	155	5.66830408333333
"S200310"	"Response_Inhibition"	"RIGHT"	"RIGHT"	613.957000000028	1350.0000027	n/a	n/a	n/a	n/a	n/a	n/a	n/a	"2020-03-10 13:35:35.982995"	"2020-03-10 13:35:36.804781"	156	5.66830408333333
"S200310"	"Response_Inhibition"	"RIGHT"	"RIGHT"	1163.77	900.0000018	n/a	n/a	n/a	n/a	n/a	n/a	n/a	"2020-03-10 13:35:37.713205"	"2020-03-10 13:35:39.085311"	157	5.66830408333333
"S200310"	"Response_Inhibition"	"RIGHT"	"RIGHT"	643.258100000025	900.0000018	n/a	n/a	n/a	n/a	n/a	n/a	n/a	"2020-03-10 13:35:39.993530"	"2020-03-10 13:35:40.844083"	158	5.66830408333333
"S200310"	"Response_Inhibition"	"RIGHT"	"RIGHT"	403.833499999905	1100.0000022	n/a	n/a	n/a	n/a	n/a	n/a	n/a	"2020-03-10 13:35:41.953158"	"2020-03-10 13:35:42.565589"	159	5.66830408333333
"S200310"	"Response_Inhibition"	"LEFT"	"Time_Max_Exceeded"	1500.05333340001	1133.3333356	n/a	n/a	n/a	n/a	n/a	n/a	n/a	"2020-03-10 13:35:43.707139"	"2020-03-10 13:35:45.210792"	160	5.66830408333333
"S200310"	"Response_Selection"	"LEFT"	"LEFT"	775.223299999993	583.3333345	n/a	n/a	n/a	n/a	n/a	n/a	n/a	"2020-03-10 13:27:58.414388"	"2020-03-10 13:27:59.397638"	1	2.8366356
"S200310"	"Response_Selection"	"RIGHT"	"RIGHT"	302.074099999999	1216.6666691	n/a	n/a	n/a	n/a	n/a	n/a	n/a	"2020-03-10 13:28:00.623396"	"2020-03-10 13:28:01.132874"	2	2.8366356
"S200310"	"Response_Selection"	"RIGHT"	"RIGHT"	479.999899999996	1200.0000024	n/a	n/a	n/a	n/a	n/a	n/a	n/a	"2020-03-10 13:28:02.341375"	"2020-03-10 13:28:03.029294"	3	2.8366356
"S200310"	"Response_Selection"	"RIGHT"	"RIGHT"	331.37769999999	1300.0000026	n/a	n/a	n/a	n/a	n/a	n/a	n/a	"2020-03-10 13:28:04.337805"	"2020-03-10 13:28:04.876822"	4	2.8366356
"S200310"	"Response_Selection"	"RIGHT"	"RIGHT"	406.417699999992	600.0000012	n/a	n/a	n/a	n/a	n/a	n/a	n/a	"2020-03-10 13:28:05.487196"	"2020-03-10 13:28:06.102635"	5	2.8366356
"S200310"	"Response_Selection"	"LEFT"	"LEFT"	560.518799999983	733.3333348	n/a	n/a	n/a	n/a	n/a	n/a	n/a	"2020-03-10 13:28:06.844916"	"2020-03-10 13:28:07.613568"	6	2.8366356
"S200310"	"Response_Selection"	"LEFT"	"LEFT"	301.846000000012	833.333335	n/a	n/a	n/a	n/a	n/a	n/a	n/a	"2020-03-10 13:28:08.455231"	"2020-03-10 13:28:08.964867"	7	2.8366356
"S200310"	"Response_Selection"	"LEFT"	"LEFT"	342.798899999991	1033.3333354	n/a	n/a	n/a	n/a	n/a	n/a	n/a	"2020-03-10 13:28:10.006799"	"2020-03-10 13:28:10.557326"	8	2.8366356
"S200310"	"Response_Selection"	"RIGHT"	"RIGHT"	363.936200000012	1466.6666696	n/a	n/a	n/a	n/a	n/a	n/a	n/a	"2020-03-10 13:28:12.033811"	"2020-03-10 13:28:12.606023"	9	2.8366356
"S200310"	"Response_Selection"	"RIGHT"	"RIGHT"	452.90270000001	1033.3333354	n/a	n/a	n/a	n/a	n/a	n/a	n/a	"2020-03-10 13:28:13.648500"	"2020-03-10 13:28:14.309597"	10	2.8366356
"S200310"	"Response_Selection"	"RIGHT"	"RIGHT"	310.622099999989	1016.6666687	n/a	n/a	n/a	n/a	n/a	n/a	n/a	"2020-03-10 13:28:15.334297"	"2020-03-10 13:28:15.854544"	11	2.8366356
"S200310"	"Response_Selection"	"LEFT"	"LEFT"	297.984799999995	1316.6666693	n/a	n/a	n/a	n/a	n/a	n/a	n/a	"2020-03-10 13:28:17.179652"	"2020-03-10 13:28:17.685322"	12	2.8366356
"S200310"	"Response_Selection"	"RIGHT"	"RIGHT"	252.819400000021	1266.6666692	n/a	n/a	n/a	n/a	n/a	n/a	n/a	"2020-03-10 13:28:18.960800"	"2020-03-10 13:28:19.421167"	13	2.8366356
"S200310"	"Response_Selection"	"RIGHT"	"RIGHT"	508.713	683.3333347	n/a	n/a	n/a	n/a	n/a	n/a	n/a	"2020-03-10 13:28:20.112689"	"2020-03-10 13:28:20.829563"	14	2.8366356
"S200310"	"Response_Selection"	"RIGHT"	"RIGHT"	487.09869999999	1366.6666694	n/a	n/a	n/a	n/a	n/a	n/a	n/a	"2020-03-10 13:28:22.206085"	"2020-03-10 13:28:22.900772"	15	2.8366356
"S200310"	"Response_Selection"	"RIGHT"	"RIGHT"	381.216300000006	866.6666684	n/a	n/a	n/a	n/a	n/a	n/a	n/a	"2020-03-10 13:28:23.776160"	"2020-03-10 13:28:24.365276"	16	2.8366356
"S200310"	"Response_Selection"	"LEFT"	"LEFT"	279.682200000025	1400.0000028	n/a	n/a	n/a	n/a	n/a	n/a	n/a	"2020-03-10 13:28:25.773709"	"2020-03-10 13:28:26.261412"	17	2.8366356
"S200310"	"Response_Selection"	"RIGHT"	"RIGHT"	393.429900000001	933.3333352	n/a	n/a	n/a	n/a	n/a	n/a	n/a	"2020-03-10 13:28:27.203424"	"2020-03-10 13:28:27.805319"	18	2.8366356
"S200310"	"Response_Selection"	"LEFT"	"LEFT"	281.389100000013	1350.0000027	n/a	n/a	n/a	n/a	n/a	n/a	n/a	"2020-03-10 13:28:29.164155"	"2020-03-10 13:28:29.652855"	19	2.8366356
"S200310"	"Response_Selection"	"RIGHT"	"RIGHT"	354.655400000013	733.3333348	n/a	n/a	n/a	n/a	n/a	n/a	n/a	"2020-03-10 13:28:30.394353"	"2020-03-10 13:28:30.956984"	20	2.8366356
"S200310"	"Response_Selection"	"RIGHT"	"RIGHT"	387.212799999986	916.6666685	n/a	n/a	n/a	n/a	n/a	n/a	n/a	"2020-03-10 13:28:31.882095"	"2020-03-10 13:28:32.476996"	21	2.8366356
"S200310"	"Response_Selection"	"LEFT"	"LEFT"	303.993600000013	783.3333349	n/a	n/a	n/a	n/a	n/a	n/a	n/a	"2020-03-10 13:28:33.268911"	"2020-03-10 13:28:33.782445"	22	2.8366356
"S200310"	"Response_Selection"	"LEFT"	"LEFT"	376.367899999991	550.0000011	n/a	n/a	n/a	n/a	n/a	n/a	n/a	"2020-03-10 13:28:34.341377"	"2020-03-10 13:28:34.924827"	23	2.8366356
"S200310"	"Response_Selection"	"LEFT"	"LEFT"	369.191499999999	1366.6666694	n/a	n/a	n/a	n/a	n/a	n/a	n/a	"2020-03-10 13:28:36.299983"	"2020-03-10 13:28:36.876811"	24	2.8366356
"S200310"	"Response_Selection"	"LEFT"	"LEFT"	366.8361	633.3333346	n/a	n/a	n/a	n/a	n/a	n/a	n/a	"2020-03-10 13:28:37.518240"	"2020-03-10 13:28:38.093712"	25	2.8366356
"S200310"	"Response_Selection"	"RIGHT"	"RIGHT"	396.052199999986	650.0000013	n/a	n/a	n/a	n/a	n/a	n/a	n/a	"2020-03-10 13:28:38.753396"	"2020-03-10 13:28:39.356888"	26	2.8366356
"S200310"	"Response_Selection"	"RIGHT"	"RIGHT"	378.406100000007	1133.3333356	n/a	n/a	n/a	n/a	n/a	n/a	n/a	"2020-03-10 13:28:40.499124"	"2020-03-10 13:28:41.085119"	27	2.8366356
"S200310"	"Response_Selection"	"RIGHT"	"RIGHT"	435.630199999991	500.000001	n/a	n/a	n/a	n/a	n/a	n/a	n/a	"2020-03-10 13:28:41.593772"	"2020-03-10 13:28:42.237095"	28	2.8366356
"S200310"	"Response_Selection"	"LEFT"	"RIGHT"	322.462499999972	1116.6666689	n/a	n/a	n/a	n/a	n/a	n/a	n/a	"2020-03-10 13:28:43.362726"	"2020-03-10 13:28:43.893535"	29	2.8366356
"S200310"	"Response_Selection"	"LEFT"	"LEFT"	384.896499999968	966.6666686	n/a	n/a	n/a	n/a	n/a	n/a	n/a	"2020-03-10 13:28:44.868839"	"2020-03-10 13:28:45.462246"	30	2.8366356
"S200310"	"Response_Selection"	"LEFT"	"LEFT"	405.9575	1416.6666695	n/a	n/a	n/a	n/a	n/a	n/a	n/a	"2020-03-10 13:28:46.887190"	"2020-03-10 13:28:47.501578"	31	2.8366356
"S200310"	"Response_Selection"	"LEFT"	"LEFT"	344.657199999972	1166.666669	n/a	n/a	n/a	n/a	n/a	n/a	n/a	"2020-03-10 13:28:48.677285"	"2020-03-10 13:28:49.229382"	32	2.8366356
"S200310"	"Response_Selection"	"RIGHT"	"RIGHT"	347.195400000032	700.0000014	n/a	n/a	n/a	n/a	n/a	n/a	n/a	"2020-03-10 13:28:49.938013"	"2020-03-10 13:28:50.492842"	33	2.8366356
"S200310"	"Response_Selection"	"RIGHT"	"RIGHT"	447.720699999991	800.0000016	n/a	n/a	n/a	n/a	n/a	n/a	n/a	"2020-03-10 13:28:51.301852"	"2020-03-10 13:28:51.958206"	34	2.8366356
"S200310"	"Response_Selection"	"RIGHT"	"RIGHT"	472.329099999968	750.0000015	n/a	n/a	n/a	n/a	n/a	n/a	n/a	"2020-03-10 13:28:52.717168"	"2020-03-10 13:28:53.396796"	35	2.8366356
"S200310"	"Response_Selection"	"LEFT"	"LEFT"	282.479599999988	1133.3333356	n/a	n/a	n/a	n/a	n/a	n/a	n/a	"2020-03-10 13:28:54.538742"	"2020-03-10 13:28:55.029044"	36	2.8366356
"S200310"	"Response_Selection"	"LEFT"	"LEFT"	332.406100000014	1466.6666696	n/a	n/a	n/a	n/a	n/a	n/a	n/a	"2020-03-10 13:28:56.504857"	"2020-03-10 13:28:57.045437"	37	2.8366356
"S200310"	"Response_Selection"	"LEFT"	"LEFT"	398.46829999999	600.0000012	n/a	n/a	n/a	n/a	n/a	n/a	n/a	"2020-03-10 13:28:57.655248"	"2020-03-10 13:28:58.261166"	38	2.8366356
"S200310"	"Response_Selection"	"RIGHT"	"RIGHT"	309.551699999986	1450.0000029	n/a	n/a	n/a	n/a	n/a	n/a	n/a	"2020-03-10 13:28:59.719528"	"2020-03-10 13:29:00.238389"	39	2.8366356
"S200310"	"Response_Selection"	"RIGHT"	"RIGHT"	326.49090000001	783.3333349	n/a	n/a	n/a	n/a	n/a	n/a	n/a	"2020-03-10 13:29:01.030930"	"2020-03-10 13:29:01.564971"	40	2.8366356
"S200310"	"Response_Selection"	"LEFT"	"LEFT"	347.626199999979	883.3333351	n/a	n/a	n/a	n/a	n/a	n/a	n/a	"2020-03-10 13:29:02.457614"	"2020-03-10 13:29:03.013576"	41	2.8366356
"S200310"	"Response_Selection"	"RIGHT"	"RIGHT"	285.960299999999	1416.6666695	n/a	n/a	n/a	n/a	n/a	n/a	n/a	"2020-03-10 13:29:04.439292"	"2020-03-10 13:29:04.933075"	42	2.8366356
"S200310"	"Response_Selection"	"RIGHT"	"RIGHT"	350.688199999979	833.333335	n/a	n/a	n/a	n/a	n/a	n/a	n/a	"2020-03-10 13:29:05.774389"	"2020-03-10 13:29:06.333708"	43	2.8366356
"S200310"	"Response_Selection"	"RIGHT"	"RIGHT"	335.590500000023	583.3333345	n/a	n/a	n/a	n/a	n/a	n/a	n/a	"2020-03-10 13:29:06.925452"	"2020-03-10 13:29:07.469554"	44	2.8366356
"S200310"	"Response_Selection"	"LEFT"	"LEFT"	315.204800000004	1500.000003	n/a	n/a	n/a	n/a	n/a	n/a	n/a	"2020-03-10 13:29:08.977641"	"2020-03-10 13:29:09.501520"	45	2.8366356
"S200310"	"Response_Selection"	"RIGHT"	"RIGHT"	356.787499999996	1066.6666688	n/a	n/a	n/a	n/a	n/a	n/a	n/a	"2020-03-10 13:29:10.576753"	"2020-03-10 13:29:11.141446"	46	2.8366356
"S200310"	"Response_Selection"	"RIGHT"	"RIGHT"	380.047600000012	883.3333351	n/a	n/a	n/a	n/a	n/a	n/a	n/a	"2020-03-10 13:29:12.033673"	"2020-03-10 13:29:12.621424"	47	2.8366356
"S200310"	"Response_Selection"	"LEFT"	"LEFT"	372.699000000011	1066.6666688	n/a	n/a	n/a	n/a	n/a	n/a	n/a	"2020-03-10 13:29:13.696565"	"2020-03-10 13:29:14.277508"	48	2.8366356
"S200310"	"Response_Selection"	"LEFT"	"LEFT"	355.315300000029	1300.0000026	n/a	n/a	n/a	n/a	n/a	n/a	n/a	"2020-03-10 13:29:15.586541"	"2020-03-10 13:29:16.149597"	49	2.8366356
"S200310"	"Response_Selection"	"RIGHT"	"RIGHT"	389.802599999996	983.3333353	n/a	n/a	n/a	n/a	n/a	n/a	n/a	"2020-03-10 13:29:17.143712"	"2020-03-10 13:29:17.741114"	50	2.8366356
"S200310"	"Response_Selection"	"LEFT"	"LEFT"	295.977300000004	983.3333353	n/a	n/a	n/a	n/a	n/a	n/a	n/a	"2020-03-10 13:29:18.733310"	"2020-03-10 13:29:19.237268"	51	2.8366356
"S200310"	"Response_Selection"	"LEFT"	"LEFT"	326.563499999963	1200.0000024	n/a	n/a	n/a	n/a	n/a	n/a	n/a	"2020-03-10 13:29:20.447208"	"2020-03-10 13:29:20.980792"	52	2.8366356
"S200310"	"Response_Selection"	"RIGHT"	"RIGHT"	387.182999999993	1116.6666689	n/a	n/a	n/a	n/a	n/a	n/a	n/a	"2020-03-10 13:29:22.106383"	"2020-03-10 13:29:22.700814"	53	2.8366356
"S200310"	"Response_Selection"	"LEFT"	"LEFT"	394.259500000032	533.3333344	n/a	n/a	n/a	n/a	n/a	n/a	n/a	"2020-03-10 13:29:23.242905"	"2020-03-10 13:29:23.844816"	54	2.8366356
"S200310"	"Response_Selection"	"LEFT"	"LEFT"	357.816800000023	650.0000013	n/a	n/a	n/a	n/a	n/a	n/a	n/a	"2020-03-10 13:29:24.503608"	"2020-03-10 13:29:25.070666"	55	2.8366356
"S200310"	"Response_Selection"	"LEFT"	"LEFT"	346.869500000025	1083.3333355	n/a	n/a	n/a	n/a	n/a	n/a	n/a	"2020-03-10 13:29:26.162802"	"2020-03-10 13:29:26.717014"	56	2.8366356
"S200310"	"Response_Selection"	"RIGHT"	"RIGHT"	355.233399999975	1316.6666693	n/a	n/a	n/a	n/a	n/a	n/a	n/a	"2020-03-10 13:29:28.041704"	"2020-03-10 13:29:28.606183"	57	2.8366356
"S200310"	"Response_Selection"	"LEFT"	"LEFT"	473.516700000005	916.6666685	n/a	n/a	n/a	n/a	n/a	n/a	n/a	"2020-03-10 13:29:29.531572"	"2020-03-10 13:29:30.212742"	58	2.8366356
"S200310"	"Response_Selection"	"LEFT"	"LEFT"	367.090500000018	1216.6666691	n/a	n/a	n/a	n/a	n/a	n/a	n/a	"2020-03-10 13:29:31.438293"	"2020-03-10 13:29:32.012779"	59	2.8366356
"S200310"	"Response_Selection"	"LEFT"	"LEFT"	437.190199999975	866.6666684	n/a	n/a	n/a	n/a	n/a	n/a	n/a	"2020-03-10 13:29:32.888103"	"2020-03-10 13:29:33.533425"	60	2.8366356
"S200310"	"Response_Selection"	"RIGHT"	"RIGHT"	291.94050000001	1083.3333355	n/a	n/a	n/a	n/a	n/a	n/a	n/a	"2020-03-10 13:29:34.625460"	"2020-03-10 13:29:35.126335"	61	2.8366356
"S200310"	"Response_Selection"	"RIGHT"	"RIGHT"	462.389299999984	1400.0000028	n/a	n/a	n/a	n/a	n/a	n/a	n/a	"2020-03-10 13:29:36.534855"	"2020-03-10 13:29:37.205069"	62	2.8366356
"S200310"	"Response_Selection"	"LEFT"	"LEFT"	467.474500000037	500.000001	n/a	n/a	n/a	n/a	n/a	n/a	n/a	"2020-03-10 13:29:37.714337"	"2020-03-10 13:29:38.389791"	63	2.8366356
"S200310"	"Response_Selection"	"LEFT"	"LEFT"	388.360200000022	1266.6666692	n/a	n/a	n/a	n/a	n/a	n/a	n/a	"2020-03-10 13:29:39.664550"	"2020-03-10 13:29:40.260942"	64	2.8366356
"S200310"	"Response_Selection"	"RIGHT"	"RIGHT"	321.049899999991	966.6666686	n/a	n/a	n/a	n/a	n/a	n/a	n/a	"2020-03-10 13:29:41.236359"	"2020-03-10 13:29:41.764945"	65	2.8366356
"S200310"	"Response_Selection"	"RIGHT"	"RIGHT"	352.444999999989	1166.666669	n/a	n/a	n/a	n/a	n/a	n/a	n/a	"2020-03-10 13:29:42.940873"	"2020-03-10 13:29:43.502371"	66	2.8366356
"S200310"	"Response_Selection"	"LEFT"	"LEFT"	384.641199999976	750.0000015	n/a	n/a	n/a	n/a	n/a	n/a	n/a	"2020-03-10 13:29:44.260607"	"2020-03-10 13:29:44.853040"	67	2.8366356
"S200310"	"Response_Selection"	"RIGHT"	"RIGHT"	315.377899999987	1500.000003	n/a	n/a	n/a	n/a	n/a	n/a	n/a	"2020-03-10 13:29:46.361876"	"2020-03-10 13:29:46.885544"	68	2.8366356
"S200310"	"Response_Selection"	"LEFT"	"LEFT"	379.179799999974	700.0000014	n/a	n/a	n/a	n/a	n/a	n/a	n/a	"2020-03-10 13:29:47.594042"	"2020-03-10 13:29:48.181481"	69	2.8366356
"S200310"	"Response_Selection"	"LEFT"	"LEFT"	378.005599999995	933.3333352	n/a	n/a	n/a	n/a	n/a	n/a	n/a	"2020-03-10 13:29:49.122777"	"2020-03-10 13:29:49.709208"	70	2.8366356
"S200310"	"Response_Selection"	"LEFT"	"LEFT"	333.736599999952	1250.0000025	n/a	n/a	n/a	n/a	n/a	n/a	n/a	"2020-03-10 13:29:50.967490"	"2020-03-10 13:29:51.509027"	71	2.8366356
"S200310"	"Response_Selection"	"RIGHT"	"RIGHT"	409.593099999995	550.0000011	n/a	n/a	n/a	n/a	n/a	n/a	n/a	"2020-03-10 13:29:52.067425"	"2020-03-10 13:29:52.685196"	72	2.8366356
"S200310"	"Response_Selection"	"LEFT"	"LEFT"	359.662799999967	800.0000016	n/a	n/a	n/a	n/a	n/a	n/a	n/a	"2020-03-10 13:29:53.493608"	"2020-03-10 13:29:54.060987"	73	2.8366356
"S200310"	"Response_Selection"	"RIGHT"	"RIGHT"	273.032900000032	1350.0000027	n/a	n/a	n/a	n/a	n/a	n/a	n/a	"2020-03-10 13:29:55.420309"	"2020-03-10 13:29:55.900895"	74	2.8366356
"S200310"	"Response_Selection"	"RIGHT"	"RIGHT"	372.972200000049	1250.0000025	n/a	n/a	n/a	n/a	n/a	n/a	n/a	"2020-03-10 13:29:57.160166"	"2020-03-10 13:29:57.741117"	75	2.8366356
"S200310"	"Response_Selection"	"LEFT"	"LEFT"	364.350599999966	683.3333347	n/a	n/a	n/a	n/a	n/a	n/a	n/a	"2020-03-10 13:29:58.432848"	"2020-03-10 13:29:59.005601"	76	2.8366356
"S200310"	"Response_Selection"	"RIGHT"	"RIGHT"	337.904699999967	533.3333344	n/a	n/a	n/a	n/a	n/a	n/a	n/a	"2020-03-10 13:29:59.547135"	"2020-03-10 13:30:00.093962"	77	2.8366356
"S200310"	"Response_Selection"	"RIGHT"	"RIGHT"	421.456700000022	633.3333346	n/a	n/a	n/a	n/a	n/a	n/a	n/a	"2020-03-10 13:30:00.735408"	"2020-03-10 13:30:01.365625"	78	2.8366356
"S200310"	"Response_Selection"	"LEFT"	"LEFT"	357.089700000017	1450.0000029	n/a	n/a	n/a	n/a	n/a	n/a	n/a	"2020-03-10 13:30:02.824139"	"2020-03-10 13:30:03.389626"	79	2.8366356
"S200310"	"Response_Selection"	"LEFT"	"LEFT"	422.45829999996	1016.6666687	n/a	n/a	n/a	n/a	n/a	n/a	n/a	"2020-03-10 13:30:04.414459"	"2020-03-10 13:30:05.044773"	80	2.8366356
