index	Trial_Type	Participant_ID	Trial_Probability	Question_Position_Prediction_Correct	Question_Position_Prediction_Agent	Question_Position_Comparison_Self	Question_Position_Comparison_Irrelevant	Trial_Stake	Trial_Stake_Jitter	Trial_Type_Jitter	Trial_Result_Jitter	Balance_Update_Jitter	Question_Comparison_Condition	Question_Comparison_Type	Question_Comparison_Question	Question_Comparison_Label	Question_Comparison_Item	Question_Comparison_Proportion_Yes	Question_Factual_Condition	Question_Factual_Item	Question_Factual_Question	Question_Factual_Label	Question_Factual_Proportion_DontKnow	Question_Factual_Type	Answer_Prediction_Correct	Answer_Prediction_Correct_RT	Answer_Prediction_Agent	Answer_Prediction_Agent_RT	Answer_Irrelevant	Answer_Irrelevant_RT	Answer_Self	Answer_Self_RT	Trial_Balance	Trial_Balance_Effect	Trial_Condition	Trial_ProbableSide	Prediction_Choice	Prediction_Result	Prediction_RT	Trial_Order	Trial_Datetime
4	Self	S200121	0.5	1	2	2	1	0.5	1500.000003	1150.0000023	1650.0000033	1933.3333372	Major	Wrong_doings	51	You have started a hotline for victims of bully	C2_43	0.0	Hard	I1_60	46	The Eiffel Tower is in Paris	0.0555555555555556	No	RIGHT	814.84260000002	RIGHT	496.2863000000084	RIGHT	1548.8359000000287	RIGHT	1776.2314999999944	10.5	0.5	Probable_Truth	LEFT	RIGHT	6	1207.7464999999847	0	2020-01-21 11:52:32.782416
32	Self	S200121	0.8333333333333334	1	2	1	2	0.6	1000.000002	1066.6666688	2350.0000047	1500.000003	Minor	Wrong_doings	16	You have signed up as a bone marrow donor	C1_9	0.05	Easy	I2_30	18	Beef comes from cows	0.0555555555555556	No	RIGHT	635.4898000000162	RIGHT	553.7775999999894	RIGHT	1176.0608999999818	RIGHT	1659.589799999992	11.1	0.6	Probable_Truth	LEFT	LEFT	1	969.856899999968	1	2020-01-21 11:52:56.270158
143	Computer	S200121	0.8333333333333334	2	1	2	1	0.7	1433.3333362	1066.6666688	2216.6666711000003	1500.000003	Major	Wrong_doings	16	You have been sued	C1_47	0.0	Easy	I2_5	44	Red is a color	0.764705882352941	Yes	LEFT	519.0617999999745	LEFT	988.8606999999752	RIGHT	1166.3176000000135	LEFT	1016.5872000000036	11.1	0.7	Probable_Truth	RIGHT	RIGHT	3	666.0061222414762	2	2020-01-21 11:53:19.412453
96	Computer	S200121	0.5	1	2	1	2	0.5	1066.6666688	1066.6666688	1933.3333372	1500.000003	Major	Wrong_doings	28	You have faked an illness	C1_28	0.9	Hard	I1_28	35	Mozambique is the world's poorest country	0.0555555555555556	No	LEFT	1025.192899999979	LEFT	583.4315000000174	LEFT	1895.112700000027	LEFT	1143.3569999999804	11.1	0.5	Probable_Lie	LEFT	LEFT	6	564.0841969404112	3	2020-01-21 11:53:42.765197
108	Computer	S200121	0.5	2	1	2	1	0.7	1216.6666691	1066.6666688	1500.000003	1783.3333369	Major	Good_deeds	46	You have started an NGO using your savings	C2_46	0.95	Hard	I2_55	46	Cernan was the second last man to walk on the Moon	1.0	No	RIGHT	752.1472000000244	LEFT	667.9854999999861	LEFT	2058.896600000025	RIGHT	1711.6280000000188	11.1	0.7	Probable_Truth	RIGHT	LEFT	2	730.7447438749496	4	2020-01-21 11:54:06.829469
34	Self	S200121	0.8333333333333334	1	2	1	2	0.4	1350.0000027	1000.000002	2500.000005	1650.0000033	Major	Good_deeds	30	You have given way to the handicapped	C2_42	0.05	Hard	I2_18	43	Hot chocolate was created by the Mayan culture	0.777777777777778	Yes	RIGHT	742.2363999999675	RIGHT	831.2852000000248	LEFT	1927.5180000000205	RIGHT	2035.7465999999815	11.5	0.4	Probable_Truth	RIGHT	RIGHT	4	1112.605099999996	5	2020-01-21 11:54:32.566259
52	Self	S200121	0.5	1	2	2	1	0.2	1216.6666691	1350.0000027	2216.6666711000003	2500.000005	Minor	Wrong_doings	20	You have sorted your trash into recycling bin	C1_37	1.0	Easy	I1_36	4	The human's inner ear is larger than a pencil eraser	0.0	No	RIGHT	1159.540599999957	RIGHT	767.0416000000273	RIGHT	3398.130600000002	RIGHT	1847.720299999992	11.7	0.2	Probable_Truth	LEFT	RIGHT	6	1283.1054999999765	6	2020-01-21 11:55:00.877483
107	Computer	S200121	0.5	2	1	1	2	0.3	1150.0000023	1350.0000027	2216.6666711000003	2216.6666711000003	Minor	Good_deeds	30	You have complimented others for good work	C2_25	0.85	Easy	I1_1	23	Malay is one of the races in Singapore	1.0	No	LEFT	753.7818999999217	LEFT	1087.5184999999874	RIGHT	1103.966000000014	RIGHT	1431.209500000023	11.7	0.3	Probable_Lie	LEFT	RIGHT	3	560.4042647793011	7	2020-01-21 11:55:25.325658
83	Self	S200121	0.8333333333333334	1	2	1	2	0.3	1066.6666688	1150.0000023	2066.6666708	2500.000005	Minor	Wrong_doings	38	You have used a fake name online	C2_29	0.7	Easy	I1_44	8	Teddy Roosevelt was the youngest US President	0.0	No	LEFT	1166.0571999999547	RIGHT	1105.0193000000943	LEFT	2063.572300000033	LEFT	1766.9990999999072	11.4	0.3	Probable_Lie	RIGHT	RIGHT	1	1030.7169999999817	8	2020-01-21 11:55:51.813323
30	Self	S200121	0.6666666666666666	2	1	2	1	0.6	1216.6666691	1000.000002	2350.0000047	2350.0000047	Minor	Good_deeds	2	You have stopped using plastics completely	C2_59	1.0	Easy	I1_24	35	It is 20th Century now	0.666666666666667	No	RIGHT	879.2410000000928	RIGHT	1001.0322000000542	LEFT	1803.03159999994	RIGHT	1720.287199999916	11.999999999999998	0.6	Probable_Lie	LEFT	LEFT	4	1151.2089999999944	9	2020-01-21 11:56:17.861971
10	Self	S200121	0.5	2	1	1	2	0.8	1150.0000023	1066.6666688	2216.6666711000003	2350.0000047	Major	Wrong_doings	38	You have been restricting your electricity consumption	C1_29	0.45	Easy	I1_50	55	Today is Sunday	0.0	Yes	LEFT	721.4365999999472	RIGHT	1343.577400000072	LEFT	2007.705200000032	LEFT	2065.257699999961	11.199999999999998	0.8	Probable_Lie	LEFT	RIGHT	1	1688.09310000006	10	2020-01-21 11:56:45.046102
51	Self	S200121	0.5	1	2	1	2	0.7	1433.3333362	1000.000002	2500.000005	2350.0000047	Major	Wrong_doings	19	You have participated in a scamming business	C2_45	0.45	Hard	I1_54	36	Singapore is in Africa	0.0	Yes	LEFT	1185.7201999999916	RIGHT	912.4097999999776	LEFT	1336.6267000000107	LEFT	1586.7504999999935	10.499999999999998	0.7	Probable_Lie	LEFT	RIGHT	1	1469.8779999999942	11	2020-01-21 11:57:11.397941
19	Self	S200121	0.6666666666666666	1	2	1	2	0.7	1283.3333359	1066.6666688	1783.3333369	1650.0000033	Major	Wrong_doings	18	You have sold illegal drugs	C1_11	0.0	Easy	I2_58	10	French is Singapore's official language	0.0	Yes	RIGHT	1073.935399999982	RIGHT	718.8724000000093	LEFT	1447.1130000000585	LEFT	1376.4991000000464	11.199999999999998	0.7	Probable_Truth	LEFT	LEFT	2	830.9480000000349	12	2020-01-21 11:57:35.207095
104	Computer	S200121	0.5	2	1	1	2	0.4	1283.3333359	1500.000003	2066.6666708	2350.0000047	Major	Good_deeds	25	You have eaten something in the MRT train	C1_60	0.95	Easy	I2_17	1	It takes 112 years to build the Pisa Tower	0.0	No	LEFT	391.2930999999844	LEFT	878.9616999999907	RIGHT	2055.534699999953	LEFT	1818.166299999916	11.199999999999998	0.4	Probable_Lie	LEFT	LEFT	6	849.6803900860644	13	2020-01-21 11:58:00.981910
20	Self	S200121	0.6666666666666666	1	2	2	1	0.5	1150.0000023	1216.6666691	1933.3333372	1500.000003	Minor	Wrong_doings	50	You have helped others to pick up their belongings	C2_36	0.95	Easy	I1_10	2	The Franco-Prussian War occurred in the 19th century	1.0	No	RIGHT	682.6661000000058	RIGHT	568.6436999999387	LEFT	2564.633000000072	RIGHT	1350.700599999982	11.699999999999998	0.5	Probable_Truth	RIGHT	RIGHT	3	925.184300000069	14	2020-01-21 11:58:25.453548
21	Self	S200121	0.6666666666666666	1	2	2	1	0.6	1500.000003	1283.3333359	2350.0000047	2500.000005	Major	Good_deeds	19	You have drunk alcohol when you were underage	C2_50	0.7	Hard	I1_45	33	It sometimes snows in Singapore	1.0	Yes	RIGHT	794.1198999999415	RIGHT	614.9566999999934	LEFT	1310.1739999999609	LEFT	1486.9042000000263	12.299999999999995	0.6	Probable_Truth	LEFT	LEFT	2	1138.264700000036	15	2020-01-21 11:58:51.006237
125	Computer	S200121	0.6666666666666666	2	1	2	1	0.8	1500.000003	1150.0000023	2500.000005	1933.3333372	Minor	Good_deeds	59	You have helped your parents when asked to	C1_20	1.0	Hard	I1_35	40	Statute of Liberty is in New York	0.0	Yes	RIGHT	959.5962000000782	LEFT	1119.1546000000017	RIGHT	1699.007800000004	RIGHT	2216.632200000049	12.299999999999995	0.8	Probable_Truth	LEFT	LEFT	2	817.5906871079783	16	2020-01-21 11:59:17.469819
63	Self	S200121	0.5	2	1	2	1	0.5	1216.6666691	1350.0000027	1933.3333372	1650.0000033	Major	Wrong_doings	57	You have a non-judgmental attitude towards everyone	C2_40	0.0	Easy	I1_39	8	Cheese is an Asian staple	0.777777777777778	Yes	RIGHT	648.1650000000627	RIGHT	876.8231000000242	LEFT	1647.6784999999836	RIGHT	1455.0550000000158	12.799999999999995	0.5	Probable_Truth	LEFT	RIGHT	4	1506.758600000012	17	2020-01-21 11:59:42.326114
14	Self	S200121	0.5	2	1	2	1	0.7	1500.000003	1150.0000023	2350.0000047	2500.000005	Major	Wrong_doings	60	You have organized a violent protest	C1_46	0.0	Hard	I2_46	17	Beer is an alcoholic drink	0.0	Yes	LEFT	575.0835999999708	RIGHT	1297.0116999999846	RIGHT	2196.4815000000044	LEFT	1095.2366999999867	12.099999999999998	0.7	Probable_Lie	RIGHT	RIGHT	3	976.2233000000152	18	2020-01-21 12:00:08.542900
124	Computer	S200121	0.6666666666666666	2	1	2	1	0.4	1150.0000023	1216.6666691	1783.3333369	2350.0000047	Major	Wrong_doings	34	You have gossiped about your best friend	C1_43	0.65	Easy	I1_12	12	There is typically 0.6 grams of mercury in glass thermometer	0.0555555555555556	No	RIGHT	657.1294999999964	LEFT	1153.1072999999878	RIGHT	2475.1274000000194	LEFT	1192.0026000000234	12.099999999999998	0.4	Probable_Truth	LEFT	LEFT	1	644.1337804324214	19	2020-01-21 12:00:33.742568
27	Self	S200121	0.6666666666666666	2	1	1	2	0.5	1500.000003	1433.3333362	1783.3333369	2066.6666708	Minor	Good_deeds	43	You have been arrested	C1_49	0.0	Hard	I2_40	36	Penguin can fly with their wings	0.611111111111111	Yes	RIGHT	543.5013000000026	RIGHT	593.0898000000298	LEFT	1647.537199999988	LEFT	944.3642999999612	12.599999999999998	0.5	Probable_Truth	LEFT	LEFT	2	916.4021999999932	20	2020-01-21 12:00:57.742219
119	Computer	S200121	0.6666666666666666	1	2	2	1	0.7	1433.3333362	1216.6666691	2350.0000047	1500.000003	Minor	Good_deeds	36	You have bought cigarettes for a minor	C1_39	0.55	Hard	I2_38	25	Cleopatra was born in Greece	0.0555555555555556	No	LEFT	816.7286999999988	LEFT	952.6832999999896	LEFT	1334.7046000000091	LEFT	1608.9794999999183	12.599999999999998	0.7	Probable_Lie	LEFT	RIGHT	1	820.4279812874472	21	2020-01-21 12:01:22.342366
97	Computer	S200121	0.5	1	2	1	2	0.7	1350.0000027	1216.6666691	1783.3333369	2216.6666711000003	Major	Wrong_doings	8	You have given directions to a lost tourist	C2_8	1.0	Easy	I2_35	27	North Korea is more developed than South Korea	0.833333333333333	Yes	LEFT	2807.9058000000714	LEFT	720.4105999999229	LEFT	1823.704500000076	RIGHT	1439.296499999955	12.599999999999998	0.7	Probable_Lie	RIGHT	RIGHT	1	768.2285335337685	22	2020-01-21 12:01:49.038001
61	Self	S200121	0.5	2	1	2	1	0.8	1350.0000027	1500.000003	1650.0000033	2500.000005	Major	Good_deeds	28	You have failed to keep promises	C2_60	1.0	Hard	I2_4	4	Summer is hotter than winter	0.111111111111111	No	RIGHT	616.5672000000768	RIGHT	1014.3846999999369	RIGHT	1613.686199999961	LEFT	1136.4384000000882	13.4	0.8	Probable_Truth	RIGHT	LEFT	2	1207.512799999904	23	2020-01-21 12:02:14.197766
99	Computer	S200121	0.5	1	2	1	2	0.6	1500.000003	1000.000002	2216.6666711000003	1650.0000033	Minor	Good_deeds	42	You have taken part in burglary	C1_42	0.2	Easy	I2_27	60	Dutch is the 6th Europe's most widely spoken language	0.0555555555555556	No	LEFT	766.1426999999321	LEFT	496.224600000005	RIGHT	2070.9441999999854	LEFT	1224.9149000000443	13.4	0.6	Probable_Lie	LEFT	LEFT	4	669.9644032686618	24	2020-01-21 12:02:38.360197
29	Self	S200121	0.6666666666666666	2	1	2	1	0.2	1000.000002	1150.0000023	2216.6666711000003	1783.3333369	Minor	Good_deeds	59	You have helped your parents when asked to	C1_20	1.0	Hard	I1_35	40	Statute of Liberty is in New York	0.0	Yes	RIGHT	776.202299999909	RIGHT	929.5895999999856	RIGHT	1019.0732000000936	RIGHT	1223.3075999999985	13.599999999999998	0.2	Probable_Truth	RIGHT	RIGHT	3	1699.314799999911	25	2020-01-21 12:03:02.734334
113	Computer	S200121	0.6666666666666666	1	2	1	2	0.1	1000.000002	1350.0000027	2216.6666711000003	1650.0000033	Major	Good_deeds	53	You have been donating all your excess food to a food bank	C1_24	0.15	Easy	I2_49	49	Mexico's National Day is September 16	0.0555555555555556	Yes	LEFT	1376.5190000000302	LEFT	608.656099999962	LEFT	1463.006500000006	RIGHT	2238.3740000000216	13.599999999999998	0.1	Probable_Lie	RIGHT	RIGHT	1	650.6000326912788	26	2020-01-21 12:03:27.861860
136	Computer	S200121	0.8333333333333334	2	1	1	2	0.3	1350.0000027	1000.000002	1783.3333369	1650.0000033	Major	Good_deeds	3	You have taken responsibility for your actions	C1_22	0.1	Easy	I1_41	43	Some owl species hunt fish	0.0	No	RIGHT	1105.0718000000188	LEFT	760.0424999999404	RIGHT	1454.839199999924	RIGHT	1431.1365999999452	13.599999999999998	0.3	Probable_Truth	RIGHT	RIGHT	3	781.556561737551	27	2020-01-21 12:03:51.750337
103	Computer	S200121	0.5	1	2	2	1	0.1	1216.6666691	1350.0000027	2066.6666708	1933.3333372	Minor	Wrong_doings	43	You have said thank you when you have received help	C2_14	1.0	Hard	I1_21	28	The Moon orbits around the Earth	0.0	Yes	LEFT	1254.649900000004	LEFT	744.5792000000893	LEFT	2576.905399999987	RIGHT	1462.3266000000967	13.599999999999998	0.1	Probable_Lie	LEFT	LEFT	5	892.1635738492582	28	2020-01-21 12:04:17.822386
90	Self	S200121	0.8333333333333334	2	1	1	2	0.6	1500.000003	1216.6666691	2066.6666708	2350.0000047	Minor	Wrong_doings	7	You have done something against your values	C2_9	0.0	Hard	I2_28	37	It takes 500 days to travel from Earth to Mars	0.944444444444444	Yes	LEFT	640.5271000000994	RIGHT	1318.539200000032	RIGHT	2904.944099999966	LEFT	1706.5913000001274	12.999999999999998	0.6	Probable_Lie	RIGHT	RIGHT	1	1252.2337999998854	29	2020-01-21 12:04:45.350773
69	Self	S200121	0.6666666666666666	1	2	2	1	0.4	1000.000002	1350.0000027	2500.000005	1650.0000033	Minor	Wrong_doings	13	You have extorted money from anyone	C2_57	0.2	Easy	I1_52	52	Obama is the USA president now	0.777777777777778	No	RIGHT	693.041600000015	RIGHT	847.9161999998723	LEFT	1613.5163999999804	LEFT	1023.9444000001184	13.4	0.4	Probable_Truth	LEFT	LEFT	1	987.3153000000912	30	2020-01-21 12:05:09.589415
70	Self	S200121	0.6666666666666666	1	2	2	1	0.7	1350.0000027	1000.000002	1650.0000033	2066.6666708	Major	Wrong_doings	57	You have attended all lectures as a student	C2_48	1.0	Hard	I1_38	38	Septicemia is a lung infection condition	0.888888888888889	Yes	LEFT	1006.6581999999472	RIGHT	551.8807000000834	LEFT	1383.372799999961	RIGHT	1271.783400000004	12.7	0.7	Probable_Lie	RIGHT	RIGHT	1	973.0107999998836	31	2020-01-21 12:05:33.414738
64	Self	S200121	0.6666666666666666	1	2	1	2	0.5	1500.000003	1283.3333359	2350.0000047	2500.000005	Major	Good_deeds	23	You have said sorry when you were rude	C1_59	0.55	Hard	I2_13	13	The sun rises at night	0.944444444444444	No	LEFT	779.2454000000362	RIGHT	360.982500000091	LEFT	1311.5795000001071	RIGHT	2086.0141999999087	12.2	0.5	Probable_Lie	RIGHT	RIGHT	2	993.0699000001368	32	2020-01-21 12:05:59.150685
26	Self	S200121	0.6666666666666666	2	1	1	2	0.1	1150.0000023	1216.6666691	1933.3333372	2216.6666711000003	Major	Good_deeds	11	You have returned your trays in food courts	C1_6	0.0	Hard	I2_36	24	Singapore is a country	0.888888888888889	Yes	RIGHT	456.1923000001116	RIGHT	1956.7635000000791	RIGHT	768.0725000000166	RIGHT	1376.8351000001076	12.3	0.1	Probable_Truth	RIGHT	RIGHT	3	1526.6028000000915	33	2020-01-21 12:06:24.325917
72	Self	S200121	0.6666666666666666	2	1	1	2	0.8	1066.6666688	1066.6666688	2216.6666711000003	1650.0000033	Major	Wrong_doings	58	You have taken months off to volunteer	C1_14	0.0	Easy	I1_57	54	There are 9 rings in the Olympic flag	0.0	No	RIGHT	599.6041000000787	RIGHT	809.3105000000378	LEFT	1679.4806999998857	RIGHT	1750.9359000000586	13.1	0.8	Probable_Truth	RIGHT	RIGHT	6	1000.3086000001532	34	2020-01-21 12:06:48.743077
68	Self	S200121	0.6666666666666666	1	2	2	1	0.8	1283.3333359	1150.0000023	1933.3333372	1500.000003	Minor	Wrong_doings	36	You have claimed doing things that you never did	C2_23	0.0	Hard	I1_14	9	Polish is 20th most spoken language in the World	0.0	Yes	RIGHT	1243.2229999999436	RIGHT	424.8110000000906	LEFT	2455.983900000092	LEFT	2391.52369999988	13.9	0.8	Probable_Truth	LEFT	LEFT	2	2213.999799999783	35	2020-01-21 12:07:15.910850
42	Self	S200121	0.8333333333333334	2	1	1	2	0.5	1066.6666688	1433.3333362	1933.3333372	2350.0000047	Minor	Good_deeds	58	You have thrown your trash into the bin	C2_3	1.0	Hard	I2_6	13	A square has 3 corners	0.944444444444444	No	RIGHT	561.0020000001441	RIGHT	964.0750999999456	LEFT	2064.933999999994	RIGHT	1450.6137000000765	14.4	0.5	Probable_Truth	RIGHT	RIGHT	5	2203.424600000062	36	2020-01-21 12:07:42.512128
1	Self	S200121	0.5	1	2	1	2	0.6	1283.3333359	1216.6666691	2350.0000047	2216.6666711000003	Major	Wrong_doings	8	You have given directions to a lost tourist	C2_8	1.0	Easy	I2_35	27	North Korea is more developed than South Korea	0.833333333333333	Yes	RIGHT	1035.299799999848	RIGHT	1152.1640999999363	LEFT	1150.1071999998658	RIGHT	1137.2031999999308	15.0	0.6	Probable_Truth	LEFT	LEFT	3	1516.2879000001794	37	2020-01-21 12:08:08.142662
62	Self	S200121	0.5	2	1	2	1	0.6	1066.6666688	1000.000002	2216.6666711000003	2216.6666711000003	Minor	Wrong_doings	13	You have adopted a zero-waste lifestyle	C2_13	0.85	Hard	I1_19	32	Saturn's rings are between 30 and 300 feet thick	0.0	No	RIGHT	776.061000000027	RIGHT	752.6878000001034	LEFT	1615.354900000057	RIGHT	1313.4337999999843	15.6	0.6	Probable_Truth	RIGHT	RIGHT	6	1491.168900000048	38	2020-01-21 12:08:33.167436
45	Self	S200121	0.8333333333333334	2	1	2	1	0.7	1283.3333359	1500.000003	2216.6666711000003	1650.0000033	Minor	Good_deeds	22	You have cursed at your loved ones	C1_5	0.05	Hard	I1_43	41	The hyoid bone is the only jointless bone	0.833333333333333	Yes	LEFT	936.2337000000024	RIGHT	1264.7236999998768	LEFT	1151.1198000000604	LEFT	1520.117300000038	14.9	0.7	Probable_Lie	RIGHT	RIGHT	1	2308.3277000000635	39	2020-01-21 12:08:59.575218
106	Computer	S200121	0.5	2	1	1	2	0.2	1500.000003	1283.3333359	2500.000005	1500.000003	Major	Wrong_doings	38	You have been restricting your electricity consumption	C1_29	0.45	Easy	I1_50	55	Today is Sunday	0.0	Yes	LEFT	2376.066000000037	LEFT	1223.9322000000357	LEFT	1136.6460000001553	RIGHT	1742.938200000026	14.9	0.2	Probable_Lie	RIGHT	RIGHT	2	522.7691242586486	40	2020-01-21 12:09:25.926757
3	Self	S200121	0.5	1	2	1	2	0.2	1000.000002	1500.000003	1500.000003	2350.0000047	Minor	Good_deeds	42	You have taken part in burglary	C1_42	0.2	Easy	I2_27	60	Dutch is the 6th Europe's most widely spoken language	0.0555555555555556	No	LEFT	1214.0119999999115	RIGHT	367.8142999999636	LEFT	1152.736399999867	LEFT	1034.1567000000396	14.7	0.2	Probable_Lie	LEFT	LEFT	4	3085.559600000124	41	2020-01-21 12:09:51.702838
74	Self	S200121	0.6666666666666666	2	1	1	2	0.4	1283.3333359	1500.000003	1500.000003	2216.6666711000003	Minor	Good_deeds	27	You have intentionally let others cut in line	C2_27	1.0	Hard	I2_54	29	The first Olympic Games was held in the 5th century B.C	0.888888888888889	Yes	RIGHT	1151.6035999998169	RIGHT	1390.386400000125	LEFT	1352.2907000001396	LEFT	3560.1223000001028	15.1	0.4	Probable_Truth	RIGHT	RIGHT	3	1495.549100000062	42	2020-01-21 12:10:19.727957
38	Self	S200121	0.8333333333333334	1	2	2	1	0.5	1150.0000023	1433.3333362	2066.6666708	2500.000005	Minor	Good_deeds	6	You have cursed at others	C2_47	1.0	Hard	I1_42	30	R. Amundsen discovered the South Pole	0.111111111111111	No	RIGHT	862.7787999998873	RIGHT	565.4193000000305	LEFT	1565.3419000000213	LEFT	977.159100000108	15.6	0.5	Probable_Truth	RIGHT	RIGHT	6	1120.0092999999924	43	2020-01-21 12:10:44.542326
2	Self	S200121	0.5	1	2	1	2	0.4	1433.3333362	1000.000002	2500.000005	2066.6666708	Minor	Good_deeds	17	You have watched a pirated movie	C2_33	1.0	Hard	I1_46	3	Lehman Brothers went bankrupt on 20th September	0.722222222222222	No	RIGHT	1332.727499999919	RIGHT	480.2178999998432	RIGHT	1696.4715000001434	LEFT	1486.5766999998868	16.0	0.4	Probable_Truth	RIGHT	LEFT	2	1120.0976000000082	44	2020-01-21 12:11:10.230879
55	Self	S200121	0.5	1	2	2	1	0.6	1350.0000027	1500.000003	2350.0000047	2216.6666711000003	Minor	Good_deeds	45	You have made someone cry	C1_27	0.7	Easy	I1_26	25	Mageirocophobia is a fear of deathly disease	0.611111111111111	Yes	LEFT	1530.6401000000278	RIGHT	904.619700000012	LEFT	969.3830999999592	LEFT	1240.520300000071	15.4	0.6	Probable_Lie	LEFT	RIGHT	2	3681.7336000001433	45	2020-01-21 12:11:38.550582
84	Self	S200121	0.8333333333333334	1	2	2	1	0.2	1000.000002	1000.000002	1783.3333369	2350.0000047	Minor	Good_deeds	4	You have helped a friend in need	C1_33	0.9	Easy	I1_3	22	It is snowing outside now	0.0	Yes	RIGHT	695.8893000000899	RIGHT	1006.8867999998474	LEFT	1185.9497000000374	RIGHT	1088.2936000000427	15.6	0.2	Probable_Truth	LEFT	LEFT	1	1816.8252000000396	46	2020-01-21 12:12:03.055246
41	Self	S200121	0.8333333333333334	2	1	1	2	0.3	1000.000002	1216.6666691	2350.0000047	2216.6666711000003	Major	Wrong_doings	31	You have made counterfeit money	C2_16	0.0	Easy	I1_13	34	There are 20 bones in the human skull	0.944444444444444	Yes	RIGHT	416.481900000008	RIGHT	570.363000000043	RIGHT	1288.3842999999615	LEFT	1191.238099999964	15.9	0.3	Probable_Lie	LEFT	LEFT	2	1287.3771999998098	47	2020-01-21 12:12:27.166853
50	Self	S200121	0.5	1	2	1	2	0.8	1066.6666688	1150.0000023	1500.000003	1500.000003	Major	Good_deeds	52	You have kidnapped someone	C2_10	0.0	Easy	I1_4	26	The current century is 21st	0.888888888888889	No	RIGHT	884.3512999999348	RIGHT	489.8969000000761	RIGHT	1752.2710000000643	LEFT	948.608400000012	16.7	0.8	Probable_Truth	RIGHT	LEFT	2	4895.75519999994	48	2020-01-21 12:13:46.089172
65	Self	S200121	0.6666666666666666	1	2	1	2	0.1	1216.6666691	1066.6666688	1783.3333369	2216.6666711000003	Minor	Wrong_doings	48	You have engaged in arson	C1_36	0.65	Easy	I2_51	59	December is the last month of the year	0.0	Yes	LEFT	1433.8823999999022	RIGHT	807.0631000000503	RIGHT	1184.1412000001128	LEFT	1376.5662000000702	16.599999999999998	0.1	Probable_Lie	RIGHT	RIGHT	1	1380.0556000001052	49	2020-01-21 12:14:11.135874
0	Self	S200121	0.5	1	2	1	2	0.3	1216.6666691	1283.3333359	2216.6666711000003	1783.3333369	Major	Wrong_doings	28	You have faked an illness	C1_28	0.9	Hard	I1_28	35	Mozambique is the world's poorest country	0.0555555555555556	No	LEFT	1032.2949000001245	RIGHT	1104.7727999998642	RIGHT	1510.8694999998988	LEFT	755.5757999998605	16.299999999999997	0.3	Probable_Lie	LEFT	LEFT	4	1415.5333000001065	50	2020-01-21 12:14:36.031545
89	Self	S200121	0.8333333333333334	2	1	1	2	0.3	1350.0000027	1350.0000027	2216.6666711000003	2066.6666708	Major	Good_deeds	15	You have cheated on a national exam	C2_37	0.95	Easy	I2_60	24	It is night time now	0.888888888888889	No	LEFT	592.5942999999734	RIGHT	1535.372499999994	LEFT	1152.1253000000795	LEFT	1020.6514999999854	15.999999999999996	0.3	Probable_Lie	LEFT	RIGHT	1	3674.9288999999408	51	2020-01-21 12:15:03.567354
91	Self	S200121	0.8333333333333334	2	1	1	2	0.4	1066.6666688	1433.3333362	1933.3333372	2500.000005	Major	Wrong_doings	9	You have stolen something	C2_7	0.65	Hard	I1_37	28	The Seine river is 50 feet above sea level	0.722222222222222	No	RIGHT	463.0088999999771	RIGHT	780.4349000000457	RIGHT	1174.9995000000126	LEFT	861.6107000000284	16.399999999999995	0.4	Probable_Truth	LEFT	LEFT	1	954.1013000000476	52	2020-01-21 12:15:27.310962
9	Self	S200121	0.5	2	1	1	2	0.2	1066.6666688	1283.3333359	1500.000003	2216.6666711000003	Minor	Wrong_doings	29	You have blackmailed others for money	C1_30	0.85	Easy	I1_53	50	Nomophobia is the fear of being without a phone or computer	0.0	No	LEFT	439.8834000000989	RIGHT	884.3182000000525	LEFT	1142.5884000000224	LEFT	834.9470999999085	16.199999999999996	0.2	Probable_Lie	LEFT	RIGHT	2	2062.2507999999016	53	2020-01-21 12:15:51.327399
79	Self	S200121	0.6666666666666666	2	1	2	1	0.1	1433.3333362	1150.0000023	2066.6666708	1783.3333369	Minor	Good_deeds	35	You have assisted in a crime	C2_35	0.95	Easy	I2_56	53	Christmas Day is in March	0.777777777777778	No	RIGHT	582.8321000001324	RIGHT	901.107599999932	LEFT	1315.3199999999288	LEFT	744.8996000000534	16.299999999999997	0.1	Probable_Truth	LEFT	LEFT	1	1431.8192999999155	54	2020-01-21 12:16:15.312274
16	Self	S200121	0.6666666666666666	1	2	1	2	0.4	1066.6666688	1000.000002	2500.000005	1933.3333372	Minor	Wrong_doings	24	You have volunteered every week for many years	C2_18	0.05	Hard	I1_25	45	Slavery was abolished in Cuba in 1886	0.888888888888889	Yes	RIGHT	638.3780000001025	RIGHT	447.7816999999504	RIGHT	1718.2758000001286	RIGHT	1667.534700000033	16.699999999999996	0.4	Probable_Truth	RIGHT	RIGHT	3	1151.530300000104	55	2020-01-21 12:16:40.014322
40	Self	S200121	0.8333333333333334	2	1	1	2	0.6	1500.000003	1066.6666688	1500.000003	1933.3333372	Major	Good_deeds	3	You have taken responsibility for your actions	C1_22	0.1	Easy	I1_41	43	Some owl species hunt fish	0.0	No	LEFT	433.8612999999896	RIGHT	2293.061200000011	RIGHT	1030.1827000000685	RIGHT	1099.8855000000276	16.099999999999994	0.6	Probable_Lie	RIGHT	RIGHT	1	1446.978799999897	56	2020-01-21 12:17:04.894831
100	Computer	S200121	0.5	1	2	2	1	0.3	1000.000002	1500.000003	1500.000003	2350.0000047	Major	Wrong_doings	51	You have started a hotline for victims of bully	C2_43	0.0	Hard	I1_60	46	The Eiffel Tower is in Paris	0.0555555555555556	No	LEFT	3199.4211000001087	LEFT	1031.5751000000546	RIGHT	1746.1107000001448	RIGHT	1344.5196000000124	16.099999999999994	0.3	Probable_Lie	RIGHT	RIGHT	2	824.4484089281887	57	2020-01-21 12:17:31.959808
57	Self	S200121	0.5	2	1	1	2	0.7	1150.0000023	1433.3333362	2500.000005	2066.6666708	Major	Good_deeds	60	You have used heroin	C2_28	0.25	Easy	I2_16	39	Kangaroos live in Africa	0.888888888888889	Yes	LEFT	824.1815999999744	RIGHT	1004.5965000001617	LEFT	2024.645800000144	LEFT	1765.1754999999412	15.399999999999997	0.7	Probable_Lie	LEFT	RIGHT	3	2054.7478000000865	58	2020-01-21 12:17:59.360147
25	Self	S200121	0.6666666666666666	2	1	1	2	0.4	1283.3333359	1066.6666688	1650.0000033	1933.3333372	Major	Wrong_doings	49	You have rescued others from a catastrophe	C2_2	0.05	Easy	I2_11	11	Bears have the biggest eyes among mammals	0.833333333333333	No	LEFT	311.3720999999714	RIGHT	1806.692999999996	RIGHT	2687.9054000000906	RIGHT	1949.2659999998525	14.999999999999996	0.4	Probable_Lie	RIGHT	RIGHT	2	951.662400000032	59	2020-01-21 12:18:25.575547
95	Self	S200121	0.8333333333333334	2	1	2	1	0.7	1216.6666691	1000.000002	1650.0000033	1500.000003	Major	Good_deeds	39	You have donated a pay cheque to charity	C1_15	1.0	Easy	I2_39	39	Algeria is Africa's second largest country	0.944444444444444	No	RIGHT	319.38849999983177	RIGHT	847.2372999999607	RIGHT	1517.7349000000504	RIGHT	888.441499999999	15.699999999999994	0.7	Probable_Truth	LEFT	LEFT	1	2070.652399999972	60	2020-01-21 12:18:49.159720
137	Computer	S200121	0.8333333333333334	2	1	1	2	0.2	1066.6666688	1283.3333359	1933.3333372	1933.3333372	Major	Wrong_doings	31	You have made counterfeit money	C2_16	0.0	Easy	I1_13	34	There are 20 bones in the human skull	0.944444444444444	Yes	LEFT	288.2130000000416	LEFT	814.2247999999199	RIGHT	831.0501000000841	LEFT	1221.192100000053	15.699999999999994	0.2	Probable_Lie	LEFT	RIGHT	1	970.7885546121054	61	2020-01-21 12:19:12.062964
122	Computer	S200121	0.6666666666666666	2	1	1	2	0.5	1433.3333362	1000.000002	2216.6666711000003	1500.000003	Major	Good_deeds	11	You have returned your trays in food courts	C1_6	0.0	Hard	I2_36	24	Singapore is a country	0.888888888888889	Yes	LEFT	240.93919999995703	LEFT	494.9638999999024	RIGHT	656.251999999995	RIGHT	1340.6291999999669	15.699999999999994	0.5	Probable_Lie	LEFT	RIGHT	1	754.5302249692194	62	2020-01-21 12:19:34.271468
132	Computer	S200121	0.8333333333333334	1	2	2	1	0.6	1150.0000023	1433.3333362	1783.3333369	2500.000005	Major	Wrong_doings	47	You have fabricated facts about yourself	C1_16	0.1	Easy	I1_27	6	There are 10 continents in the World	1.0	Yes	RIGHT	782.8392999999778	LEFT	327.5180999999065	RIGHT	1677.2713999998814	LEFT	887.7672000000985	15.699999999999994	0.6	Probable_Truth	LEFT	LEFT	1	752.9349788025085	63	2020-01-21 12:19:58.135683
98	Computer	S200121	0.5	1	2	1	2	0.8	1433.3333362	1283.3333359	1650.0000033	2066.6666708	Minor	Good_deeds	17	You have watched a pirated movie	C2_33	1.0	Hard	I1_46	3	Lehman Brothers went bankrupt on 20th September	0.722222222222222	No	LEFT	1105.4842000000915	LEFT	775.9931999999026	RIGHT	1048.4914999999546	LEFT	950.5676000001132	15.699999999999994	0.8	Probable_Lie	RIGHT	RIGHT	1	857.267867118602	64	2020-01-21 12:20:21.871447
115	Computer	S200121	0.6666666666666666	1	2	1	2	0.6	1150.0000023	1433.3333362	1650.0000033	2500.000005	Major	Wrong_doings	18	You have sold illegal drugs	C1_11	0.0	Easy	I2_58	10	French is Singapore's official language	0.0	Yes	LEFT	803.2969000000776	LEFT	1047.9961999999432	LEFT	976.4141000000564	LEFT	818.5080999999172	15.699999999999994	0.6	Probable_Truth	LEFT	RIGHT	4	728.238138951267	65	2020-01-21 12:20:45.551655
76	Self	S200121	0.6666666666666666	2	1	2	1	0.3	1150.0000023	1433.3333362	2500.000005	1933.3333372	Major	Good_deeds	54	You have volunteered for a disaster-related humanitarian mission	C1_58	0.05	Hard	I1_31	33	The first Grammy awards was held in 1959	0.722222222222222	No	LEFT	277.8269000000364	RIGHT	1390.705700000126	LEFT	1421.6449000000466	RIGHT	975.9555999999066	15.399999999999991	0.3	Probable_Lie	LEFT	RIGHT	2	1052.9633999999533	66	2020-01-21 12:21:10.265053
48	Self	S200121	0.5	1	2	1	2	0.3	1150.0000023	1216.6666691	1933.3333372	1933.3333372	Major	Good_deeds	37	You have coveted things that belong to others	C1_19	0.0	Easy	I2_25	1	Marijuana is legal in Singapore	0.0	No	LEFT	917.2506999998404	RIGHT	231.27850000037145	LEFT	1807.6600999997936	LEFT	1660.3460000001178	15.099999999999993	0.3	Probable_Lie	LEFT	LEFT	6	1626.9179000000804	67	2020-01-21 12:21:35.319317
49	Self	S200121	0.5	1	2	1	2	0.5	1283.3333359	1066.6666688	1783.3333369	2066.6666708	Minor	Wrong_doings	35	You have been physically hurt to protect others	C1_35	0.1	Hard	I2_21	21	"Statue of Liberty is 151 feet tall"	0.944444444444444	Yes	RIGHT	937.7795999998852	RIGHT	343.82159999995565	LEFT	1958.690800000113	LEFT	2221.703600000182	15.599999999999993	0.5	Probable_Truth	RIGHT	LEFT	3	941.3754000001971	68	2020-01-21 12:22:00.505146
56	Self	S200121	0.5	2	1	1	2	0.1	1000.000002	1216.6666691	2066.6666708	1783.3333369	Minor	Wrong_doings	40	You have bought cocaine	C1_1	0.05	Hard	I2_50	16	Today is a weekday	0.777777777777778	Yes	RIGHT	304.92439999989074	RIGHT	918.445299999803	RIGHT	1327.6496999997107	LEFT	1163.0026000002545	15.699999999999992	0.1	Probable_Truth	RIGHT	RIGHT	4	2554.485300000124	69	2020-01-21 12:22:25.416166
78	Self	S200121	0.6666666666666666	2	1	2	1	0.6	1500.000003	1350.0000027	1650.0000033	1500.000003	Major	Wrong_doings	45	You have told someone's secret to others	C1_45	0.85	Hard	I1_5	5	There are 7 days in a week	0.0	Yes	LEFT	447.8846000001795	RIGHT	1078.5436000001027	RIGHT	1013.2500999998229	LEFT	1111.542699999973	15.099999999999993	0.6	Probable_Lie	LEFT	RIGHT	2	2986.980300000141	70	2020-01-21 12:22:50.631675
111	Computer	S200121	0.5	2	1	2	1	0.1	1066.6666688	1150.0000023	1650.0000033	2066.6666708	Minor	Wrong_doings	24	You have pretended to be busy to avoid a social situation	C2_38	0.0	Hard	I2_23	15	Nanyang Technological University is in Australia	0.833333333333333	Yes	LEFT	217.2090999997636	LEFT	607.2700999998233	LEFT	1557.9091999998127	LEFT	1893.8975000000935	15.099999999999993	0.1	Probable_Lie	LEFT	LEFT	6	598.5670224007255	71	2020-01-21 12:23:14.016451
36	Self	S200121	0.8333333333333334	1	2	2	1	0.8	1216.6666691	1216.6666691	1650.0000033	2066.6666708	Major	Wrong_doings	47	You have fabricated facts about yourself	C1_16	0.1	Easy	I1_27	6	There are 10 continents in the World	1.0	Yes	LEFT	2302.4356999999327	RIGHT	208.66750000004689	LEFT	1461.951499999941	LEFT	896.2549999996554	14.299999999999992	0.8	Probable_Lie	LEFT	LEFT	6	1297.9296999997132	72	2020-01-21 12:23:38.911713
114	Computer	S200121	0.6666666666666666	1	2	1	2	0.5	1500.000003	1066.6666688	2500.000005	2350.0000047	Minor	Good_deeds	39	You have downloaded pirated movies	C2_19	1.0	Easy	I2_2	58	Brazil is in South America	0.0	No	RIGHT	2095.8598000001984	RIGHT	304.008800000247	LEFT	1190.8809000001384	LEFT	1649.462400000175	14.799999999999992	0.5	Probable_Truth	RIGHT	RIGHT	6	734.4313730595147	73	2020-01-21 12:24:04.879449
101	Computer	S200121	0.5	1	2	2	1	0.4	1283.3333359	1433.3333362	2350.0000047	1783.3333369	Major	Good_deeds	14	You have bribed someone to improve a grade	C1_17	0.0	Easy	I2_12	12	A caterpillar has more muscle than a human	0.888888888888889	Yes	LEFT	1411.775700000362	RIGHT	1200.545199999851	LEFT	3176.534199999878	LEFT	1857.1853000003105	14.399999999999991	0.4	Probable_Lie	LEFT	RIGHT	3	551.2354806145026	74	2020-01-21 12:24:32.497003
87	Self	S200121	0.8333333333333334	1	2	2	1	0.4	1433.3333362	1433.3333362	2216.6666711000003	2216.6666711000003	Minor	Wrong_doings	26	You have let a homeless man into your house	C1_23	1.0	Easy	I1_8	3	Arabi is the oldest surviving breed of horse	0.833333333333333	Yes	RIGHT	543.9603999998326	RIGHT	615.7631999999467	LEFT	2079.529300000104	RIGHT	1718.8943999999535	14.799999999999992	0.4	Probable_Truth	RIGHT	RIGHT	4	1385.181999999986	75	2020-01-21 12:24:58.719986
88	Self	S200121	0.8333333333333334	2	1	1	2	0.2	1150.0000023	1500.000003	1500.000003	2216.6666711000003	Minor	Wrong_doings	37	You have lost everything just to help others	C2_39	0.05	Easy	I1_40	40	Animals are living things	0.0555555555555556	No	LEFT	272.1388999998453	RIGHT	941.2376999998742	RIGHT	784.3475999998191	RIGHT	1544.54990000022	14.599999999999993	0.2	Probable_Lie	RIGHT	RIGHT	1	1282.1696999999403	76	2020-01-21 12:25:22.489701
129	Computer	S200121	0.8333333333333334	1	2	1	2	0.8	1000.000002	1000.000002	2066.6666708	1933.3333372	Major	Good_deeds	9	You have followed instructions	C1_44	0.85	Easy	I2_45	47	Most plants emit oxygen in the day	0.833333333333333	No	RIGHT	1482.0230999998785	LEFT	704.9409999999625	RIGHT	2048.501100000067	RIGHT	1669.1142999998192	14.599999999999993	0.8	Probable_Truth	LEFT	LEFT	1	556.3422571131116	77	2020-01-21 12:25:47.513299
142	Computer	S200121	0.8333333333333334	2	1	2	1	0.4	1216.6666691	1150.0000023	1650.0000033	2350.0000047	Minor	Good_deeds	5	You have stopped using products tested on animals	C1_50	0.7	Easy	I1_11	6	Pyramid of Giza is 468 feet tall	0.0	No	LEFT	742.9560999999012	LEFT	849.5311000001493	RIGHT	1394.3143999999847	RIGHT	1344.4297000000915	14.599999999999993	0.4	Probable_Lie	LEFT	RIGHT	1	741.0655596774757	78	2020-01-21 12:26:11.520733
105	Computer	S200121	0.5	2	1	1	2	0.8	1433.3333362	1433.3333362	2350.0000047	1650.0000033	Minor	Wrong_doings	29	You have blackmailed others for money	C1_30	0.85	Easy	I1_53	50	Nomophobia is the fear of being without a phone or computer	0.0	No	LEFT	416.8445000000247	LEFT	879.5003000000179	LEFT	832.1737000001121	LEFT	2334.2336999999134	14.599999999999993	0.8	Probable_Lie	LEFT	LEFT	5	846.8543531441157	79	2020-01-21 12:26:36.271534
75	Self	S200121	0.6666666666666666	2	1	1	2	0.2	1216.6666691	1283.3333359	2350.0000047	2350.0000047	Minor	Wrong_doings	12	You have lied to your parents	C1_12	0.8	Easy	I2_53	31	Acoustic Kitty refers to cat with implants	0.0555555555555556	No	RIGHT	198.98540000031065	LEFT	803.599899999881	LEFT	1671.3015999998788	LEFT	3306.823200000053	14.599999999999993	0.2	Probable_Lie	LEFT	LEFT	6	826.3675000002877	80	2020-01-21 12:27:02.855812
15	Self	S200121	0.5	2	1	2	1	0.6	1350.0000027	1216.6666691	2500.000005	1783.3333369	Minor	Wrong_doings	24	You have pretended to be busy to avoid a social situation	C2_38	0.0	Hard	I2_23	15	Nanyang Technological University is in Australia	0.833333333333333	Yes	RIGHT	774.7275000001537	LEFT	3093.282899999849	LEFT	1763.718799999879	LEFT	902.2132999998576	14.599999999999993	0.6	Probable_Lie	RIGHT	LEFT	6	1828.3093999998528	81	2020-01-21 12:27:30.640007
86	Self	S200121	0.8333333333333334	1	2	2	1	0.1	1500.000003	1216.6666691	1500.000003	1933.3333372	Major	Good_deeds	33	You have switched off appliances when not in use	C2_26	0.05	Hard	I2_31	48	There are 30 hours in a day	0.0	No	RIGHT	501.7907000001287	RIGHT	449.0326000000096	RIGHT	1243.8544999999976	RIGHT	967.1590000002652	14.699999999999992	0.1	Probable_Truth	RIGHT	RIGHT	2	872.4190000002636	82	2020-01-21 12:27:53.399758
130	Computer	S200121	0.8333333333333334	1	2	1	2	0.3	1066.6666688	1216.6666691	2350.0000047	1650.0000033	Major	Good_deeds	30	You have given way to the handicapped	C2_42	0.05	Hard	I2_18	43	Hot chocolate was created by the Mayan culture	0.777777777777778	Yes	LEFT	1299.8335000002044	LEFT	808.8324999998804	RIGHT	375.8834999998726	RIGHT	846.5449000000262	14.699999999999992	0.3	Probable_Lie	LEFT	RIGHT	1	564.2113839022273	83	2020-01-21 12:28:16.159877
67	Self	S200121	0.6666666666666666	1	2	1	2	0.3	1150.0000023	1500.000003	2216.6666711000003	1783.3333369	Major	Good_deeds	59	You have helped with household chores	C1_13	0.05	Hard	I1_9	51	Afghan Hound is the first cloned cat	0.833333333333333	No	RIGHT	623.2833999997638	RIGHT	713.5175000003073	RIGHT	1320.2989000001253	RIGHT	1163.0032000002757	14.999999999999991	0.3	Probable_Truth	LEFT	LEFT	1	977.6018000002296	84	2020-01-21 12:28:40.185029
8	Self	S200121	0.5	2	1	1	2	0.3	1283.3333359	1000.000002	1650.0000033	2066.6666708	Major	Good_deeds	25	You have eaten something in the MRT train	C1_60	0.95	Easy	I2_17	1	It takes 112 years to build the Pisa Tower	0.0	No	RIGHT	319.8711000000003	RIGHT	719.7654000001421	RIGHT	1464.3034999999145	LEFT	1452.9490999998416	15.299999999999994	0.3	Probable_Truth	LEFT	RIGHT	5	1194.853299999977	85	2020-01-21 12:29:03.913092
102	Computer	S200121	0.5	1	2	2	1	0.2	1150.0000023	1150.0000023	2500.000005	2500.000005	Minor	Good_deeds	33	You have provided shelter for stray animals	C1_51	0.0	Easy	I2_3	21	Last day of the year is 30th December	0.888888888888889	Yes	RIGHT	1298.0035999999018	LEFT	1351.8761999998787	RIGHT	2607.5635000001967	RIGHT	958.085299999766	15.299999999999994	0.2	Probable_Truth	LEFT	RIGHT	5	583.962887208659	86	2020-01-21 12:29:30.583394
44	Self	S200121	0.8333333333333334	2	1	2	1	0.2	1350.0000027	1150.0000023	1650.0000033	2066.6666708	Major	Wrong_doings	47	You have deceived a loved one	C2_31	0.95	Hard	I2_34	11	A triangle has three sides	0.0	Yes	LEFT	201.22270000001663	RIGHT	912.1165999999904	RIGHT	1160.406899999998	RIGHT	1367.2283999999308	15.099999999999994	0.2	Probable_Lie	LEFT	LEFT	6	999.2818000000624	87	2020-01-21 12:29:54.016575
128	Computer	S200121	0.8333333333333334	1	2	1	2	0.1	1216.6666691	1150.0000023	1500.000003	1783.3333369	Minor	Wrong_doings	16	You have signed up as a bone marrow donor	C1_9	0.05	Easy	I2_30	18	Beef comes from cows	0.0555555555555556	No	LEFT	872.9895999999826	RIGHT	727.9899000000114	RIGHT	1239.544300000034	RIGHT	3074.005500000112	14.999999999999996	0.1	Probable_Truth	LEFT	LEFT	1	939.0229111150924	88	2020-01-21 12:30:19.087786
77	Self	S200121	0.6666666666666666	2	1	2	1	0.5	1350.0000027	1000.000002	1783.3333369	2066.6666708	Major	Wrong_doings	14	You have held the elevator doors for others	C2_54	0.05	Easy	I2_33	56	The Amazon forest covers an area of 1 billion acres	0.0	Yes	RIGHT	672.7702000002864	RIGHT	793.3984999999666	RIGHT	1448.806400000194	RIGHT	1768.0294000001595	15.499999999999996	0.5	Probable_Truth	LEFT	LEFT	1	1021.929900000032	89	2020-01-21 12:30:43.568374
73	Self	S200121	0.6666666666666666	2	1	1	2	0.7	1000.000002	1216.6666691	1933.3333372	2500.000005	Minor	Good_deeds	1	You have bribed a police officer	C2_1	0.0	Hard	I1_29	57	Vegetarians can eat vegetable products	0.944444444444444	Yes	RIGHT	456.7439999996168	RIGHT	873.176400000375	RIGHT	1471.209700000145	LEFT	933.7123999998768	16.199999999999996	0.7	Probable_Lie	LEFT	LEFT	3	827.9073999997308	90	2020-01-21 12:31:07.359752
66	Self	S200121	0.6666666666666666	1	2	1	2	0.2	1433.3333362	1433.3333362	2066.6666708	1933.3333372	Major	Good_deeds	3	You have watched an M18 movie when you were underage	C1_3	0.95	Easy	I2_59	52	The Earth turns the closest to the sun in May	0.0	Yes	RIGHT	430.3737000000183	RIGHT	305.5521000001136	RIGHT	2271.317799999906	LEFT	1074.835499999608	16.399999999999995	0.2	Probable_Lie	LEFT	LEFT	4	830.718700000034	91	2020-01-21 12:31:31.712898
18	Self	S200121	0.6666666666666666	1	2	1	2	0.1	1433.3333362	1150.0000023	2066.6666708	2066.6666708	Minor	Good_deeds	39	You have downloaded pirated movies	C2_19	1.0	Easy	I2_2	58	Brazil is in South America	0.0	No	RIGHT	949.9026999997112	RIGHT	584.0487999998913	RIGHT	1135.9557999999197	LEFT	999.3333000002168	16.499999999999996	0.1	Probable_Truth	LEFT	LEFT	2	552.7288000002955	92	2020-01-21 12:31:55.224425
126	Computer	S200121	0.6666666666666666	2	1	2	1	0.6	1350.0000027	1066.6666688	2066.6666708	1783.3333369	Minor	Good_deeds	2	You have stopped using plastics completely	C2_59	1.0	Easy	I1_24	35	It is 20th Century now	0.666666666666667	No	LEFT	832.5504999997975	LEFT	1245.664199999737	RIGHT	1778.8266000002295	RIGHT	1973.5356999999567	16.499999999999996	0.6	Probable_Lie	RIGHT	RIGHT	2	983.9158814001725	93	2020-01-21 12:32:20.881134
135	Computer	S200121	0.8333333333333334	1	2	2	1	0.5	1350.0000027	1283.3333359	1933.3333372	2066.6666708	Major	Wrong_doings	34	You have engaged in underage smoking	C2_6	0.0	Hard	I2_43	27	Feijoa is a type of grape	0.0	Yes	RIGHT	1379.8228999999085	LEFT	1647.1684000002824	LEFT	1335.5947000000017	LEFT	1038.276499999938	16.499999999999996	0.5	Probable_Truth	LEFT	LEFT	1	839.0030093339776	94	2020-01-21 12:32:46.321267
60	Self	S200121	0.5	2	1	2	1	0.2	1283.3333359	1066.6666688	1500.000003	1933.3333372	Minor	Good_deeds	1	You have offered a listening ear to a friend	C1_57	0.0	Easy	I1_23	19	South East Asia is currently free from polio	0.666666666666667	Yes	RIGHT	280.30790000002526	RIGHT	733.4894000000531	RIGHT	2682.876899999883	RIGHT	2191.2176000000727	16.699999999999996	0.2	Probable_Truth	RIGHT	LEFT	2	1102.8473999999733	95	2020-01-21 12:33:11.672739
120	Computer	S200121	0.6666666666666666	2	1	1	2	0.1	1066.6666688	1433.3333362	1933.3333372	2500.000005	Major	Wrong_doings	20	You have illegally stayed in a country	C2_34	0.55	Easy	I2_42	58	Africa is the continent with the least rainfall	0.0	Yes	LEFT	831.6403999997419	LEFT	2410.8978999997817	LEFT	2278.8103000002598	LEFT	2341.115499999887	16.699999999999996	0.1	Probable_Lie	LEFT	RIGHT	1	732.2167234004147	96	2020-01-21 12:36:15.257117
43	Self	S200121	0.8333333333333334	2	1	1	2	0.4	1433.3333362	1283.3333359	2066.6666708	2500.000005	Minor	Wrong_doings	50	You have sign up to sponsor a needy child	C2_58	0.65	Hard	I2_44	5	February has 30 days	0.0	No	RIGHT	416.1518000000797	RIGHT	1220.090700000128	RIGHT	1264.0532999998868	RIGHT	2439.5713999997497	17.099999999999994	0.4	Probable_Lie	LEFT	LEFT	3	1614.6435999999085	97	2020-01-21 12:36:42.072921
58	Self	S200121	0.5	2	1	1	2	0.3	1433.3333362	1150.0000023	1783.3333369	2350.0000047	Minor	Good_deeds	40	You have violated a traffic law	C1_40	0.75	Hard	I2_8	50	There are 6000 spoken languages in the World	0.0	No	LEFT	793.1055999997625	RIGHT	954.9391000000468	RIGHT	1000.4530000001068	LEFT	1188.3005999998204	16.799999999999994	0.3	Probable_Lie	RIGHT	RIGHT	3	1366.9134000001577	98	2020-01-21 12:37:06.666085
85	Self	S200121	0.8333333333333334	1	2	2	1	0.7	1216.6666691	1283.3333359	1650.0000033	1783.3333369	Minor	Good_deeds	23	You have engaged in drink-driving	C2_53	0.8	Hard	I2_41	44	Milwaukee Art Museum is located in California	0.666666666666667	No	RIGHT	1925.823500000206	RIGHT	689.240300000165	LEFT	1425.9115999998355	LEFT	1015.4342000000725	17.499999999999993	0.7	Probable_Truth	RIGHT	RIGHT	2	832.1023000003152	99	2020-01-21 12:37:31.065097
53	Self	S200121	0.5	1	2	2	1	0.1	1000.000002	1283.3333359	1650.0000033	1650.0000033	Minor	Good_deeds	27	You have donated blood every 6 months for many years	C2_52	0.95	Hard	I2_26	54	China is a part of Asia	0.666666666666667	Yes	RIGHT	519.1069000002244	RIGHT	368.0712000000312	Time_Max_Exceeded	5000.131599999804	RIGHT	2191.257699999824	17.599999999999994	0.1	Probable_Truth	LEFT	RIGHT	4	1833.6343000000847	100	2020-01-21 12:37:59.137213
59	Self	S200121	0.5	2	1	1	2	0.4	1500.000003	1283.3333359	2350.0000047	1500.000003	Major	Wrong_doings	8	You have queued to enter the MRT train	C1_8	1.0	Easy	I1_32	23	Earth's atmosphere extends up to 10,000km into space	0.166666666666667	No	LEFT	360.8110000000124	RIGHT	636.1330999998245	RIGHT	782.7927000003001	RIGHT	1780.760900000132	17.199999999999996	0.4	Probable_Lie	LEFT	RIGHT	2	933.094600000004	101	2020-01-21 12:38:22.840663
118	Computer	S200121	0.6666666666666666	1	2	2	1	0.2	1066.6666688	1500.000003	1783.3333369	2216.6666711000003	Major	Wrong_doings	11	You have given up your seat in the MRT	C1_53	0.0	Hard	I1_33	38	The Earth is round	0.722222222222222	No	LEFT	1457.3365000001104	RIGHT	759.5946999999796	RIGHT	1151.0081999999784	RIGHT	759.2475999999806	16.999999999999996	0.2	Probable_Truth	LEFT	LEFT	1	543.5260788162138	102	2020-01-21 12:38:46.656558
22	Self	S200121	0.6666666666666666	1	2	2	1	0.8	1000.000002	1500.000003	2216.6666711000003	2216.6666711000003	Major	Wrong_doings	11	You have given up your seat in the MRT	C1_53	0.0	Hard	I1_33	38	The Earth is round	0.722222222222222	No	RIGHT	999.5890999998664	RIGHT	359.44119999976465	RIGHT	1103.3496000000014	RIGHT	758.2823999996435	17.799999999999997	0.8	Probable_Truth	LEFT	LEFT	1	912.7644000000146	103	2020-01-21 12:39:10.304898
127	Computer	S200121	0.6666666666666666	2	1	2	1	0.3	1000.000002	1500.000003	2350.0000047	2066.6666708	Minor	Wrong_doings	6	You have cheated on a test	C2_11	0.0	Hard	I1_58	42	There are 6 million animal species on Earth	0.0	No	LEFT	1215.2875000001586	LEFT	2215.5621999995674	RIGHT	2020.1501000001367	LEFT	1087.4760000001515	17.799999999999997	0.3	Probable_Lie	RIGHT	RIGHT	2	583.1279220472486	104	2020-01-21 12:39:36.920559
92	Self	S200121	0.8333333333333334	2	1	2	1	0.8	1283.3333359	1283.3333359	2500.000005	1933.3333372	Minor	Wrong_doings	7	You have shown your appreciation to your teachers	C1_31	0.0	Hard	I2_24	60	Fishes can swim in water	0.0	Yes	RIGHT	289.4526999998561	RIGHT	914.8151999997935	RIGHT	2155.702900000051	RIGHT	1590.4719000000114	18.6	0.8	Probable_Truth	RIGHT	RIGHT	4	688.8308000002326	105	2020-01-21 12:40:02.138121
17	Self	S200121	0.6666666666666666	1	2	1	2	0.2	1350.0000027	1350.0000027	1650.0000033	2350.0000047	Major	Good_deeds	53	You have been donating all your excess food to a food bank	C1_24	0.15	Easy	I2_49	49	Mexico's National Day is September 16	0.0555555555555556	Yes	RIGHT	511.95540000026085	RIGHT	391.2053999997625	RIGHT	471.9751999996333	RIGHT	1018.2368999999198	18.8	0.2	Probable_Truth	LEFT	LEFT	2	857.7820000000429	106	2020-01-21 12:40:24.673260
13	Self	S200121	0.5	2	1	2	1	0.4	1000.000002	1433.3333362	1933.3333372	1933.3333372	Minor	Good_deeds	46	You have kept your promises	C2_24	0.0	Hard	I1_15	53	Singapore ranked 8th in World's smallest countries	0.944444444444444	Yes	RIGHT	279.1932999998608	RIGHT	1044.5165999999515	RIGHT	1092.475499999637	RIGHT	711.370700000316	19.2	0.4	Probable_Truth	RIGHT	RIGHT	4	907.7988000003644	107	2020-01-21 12:40:47.585697
116	Computer	S200121	0.6666666666666666	1	2	2	1	0.4	1216.6666691	1000.000002	1933.3333372	2066.6666708	Minor	Wrong_doings	50	You have helped others to pick up their belongings	C2_36	0.95	Easy	I1_10	2	The Franco-Prussian War occurred in the 19th century	1.0	No	LEFT	1079.9517000000378	LEFT	1111.1348999997972	LEFT	1964.5080000000237	RIGHT	934.1946999998072	19.2	0.4	Probable_Lie	LEFT	RIGHT	1	891.1052805628194	108	2020-01-21 12:41:12.352450
35	Self	S200121	0.8333333333333334	1	2	1	2	0.3	1066.6666688	1150.0000023	1500.000003	1783.3333369	Minor	Good_deeds	42	You have risked your life to save another person's life	C1_34	0.5	Easy	I1_47	42	Singapore has four seasons	0.0	No	RIGHT	373.1743999996979	RIGHT	313.3511000000908	LEFT	1231.1329000003752	RIGHT	2263.8074000001325	19.5	0.3	Probable_Truth	RIGHT	RIGHT	3	907.82100000024	109	2020-01-21 12:41:35.520724
54	Self	S200121	0.5	1	2	2	1	0.4	1500.000003	1433.3333362	2066.6666708	1783.3333369	Major	Wrong_doings	10	You have confessed to your mistake	C2_20	0.85	Hard	I2_1	26	The hardest bone in human body is the jawbone	0.0	No	LEFT	1623.462699999891	RIGHT	391.8464999997013	RIGHT	1147.278500000084	RIGHT	1006.9162999998298	19.1	0.4	Probable_Lie	RIGHT	RIGHT	1	850.9207000001879	110	2020-01-21 12:41:59.897317
28	Self	S200121	0.6666666666666666	2	1	2	1	0.8	1066.6666688	1283.3333359	1500.000003	1650.0000033	Major	Wrong_doings	34	You have gossiped about your best friend	C1_43	0.65	Easy	I1_12	12	There is typically 0.6 grams of mercury in glass thermometer	0.0555555555555556	No	RIGHT	264.4063000002461	RIGHT	605.5654000001596	RIGHT	2943.704000000253	LEFT	822.3727999998118	19.9	0.8	Probable_Truth	LEFT	LEFT	1	1671.7658999996274	111	2020-01-21 12:42:24.281729
6	Self	S200121	0.5	1	2	2	1	0.1	1350.0000027	1350.0000027	1933.3333372	1500.000003	Minor	Good_deeds	33	You have provided shelter for stray animals	C1_51	0.0	Easy	I2_3	21	Last day of the year is 30th December	0.888888888888889	Yes	LEFT	1140.6026999998176	RIGHT	447.76599999977407	RIGHT	2125.6515999998555	RIGHT	742.3346999999012	19.8	0.1	Probable_Lie	RIGHT	RIGHT	3	1904.2311000002885	112	2020-01-21 12:42:49.353970
141	Computer	S200121	0.8333333333333334	2	1	2	1	0.8	1000.000002	1216.6666691	2500.000005	2066.6666708	Minor	Good_deeds	22	You have cursed at your loved ones	C1_5	0.05	Hard	I1_43	41	The hyoid bone is the only jointless bone	0.833333333333333	Yes	RIGHT	1431.1334999997598	LEFT	1791.9002000003277	LEFT	2679.0642999999363	LEFT	1159.9322000001848	19.8	0.8	Probable_Lie	LEFT	LEFT	2	522.0918558191194	113	2020-01-21 12:43:16.290088
117	Computer	S200121	0.6666666666666666	1	2	2	1	0.3	1283.3333359	1150.0000023	1500.000003	1933.3333372	Major	Good_deeds	19	You have drunk alcohol when you were underage	C2_50	0.7	Hard	I1_45	33	It sometimes snows in Singapore	1.0	Yes	RIGHT	1603.4472000001188	LEFT	728.3194000001458	LEFT	1201.2251000001015	LEFT	1080.397599999742	19.8	0.3	Probable_Lie	LEFT	LEFT	3	862.0565421907925	114	2020-01-21 12:43:40.218218
131	Computer	S200121	0.8333333333333334	1	2	1	2	0.2	1500.000003	1500.000003	2216.6666711000003	1500.000003	Minor	Good_deeds	42	You have risked your life to save another person's life	C1_34	0.5	Easy	I1_47	42	Singapore has four seasons	0.0	No	RIGHT	1311.098000000129	LEFT	743.0143999999927	LEFT	1512.2010000000046	LEFT	906.2566000002334	19.8	0.2	Probable_Lie	LEFT	RIGHT	1	819.5642099955494	115	2020-01-21 12:44:04.802250
93	Self	S200121	0.8333333333333334	2	1	2	1	0.1	1433.3333362	1066.6666688	1783.3333369	1783.3333369	Minor	Good_deeds	48	You have held the door open for a stranger	C1_48	0.9	Easy	I1_2	17	Astatine is the rarest element in the Earth's crust	0.0	Yes	RIGHT	224.27430000016105	RIGHT	787.901299999703	LEFT	1849.8217999999724	RIGHT	903.1427000004442	19.9	0.1	Probable_Lie	LEFT	LEFT	2	2057.1623999999247	116	2020-01-21 12:44:29.264833
139	Computer	S200121	0.8333333333333334	2	1	1	2	0.1	1150.0000023	1500.000003	1500.000003	1783.3333369	Minor	Wrong_doings	50	You have sign up to sponsor a needy child	C2_58	0.65	Hard	I2_44	5	February has 30 days	0.0	No	LEFT	737.2146999996403	RIGHT	2098.762200000237	LEFT	1384.2466000000968	RIGHT	2020.0926000002253	19.8	0.1	Probable_Lie	LEFT	RIGHT	1	656.1114982099964	117	2020-01-21 12:44:54.657412
133	Computer	S200121	0.8333333333333334	1	2	2	1	0.4	1283.3333359	1066.6666688	1650.0000033	2350.0000047	Minor	Wrong_doings	44	You have engaged in money laundering	C2_30	0.95	Hard	I1_6	45	Airbags in cars are filled with sodium azide	0.666666666666667	Yes	RIGHT	2062.2048000000177	LEFT	592.1048999998675	LEFT	2803.1942000002346	LEFT	1672.512099999949	19.8	0.4	Probable_Truth	RIGHT	RIGHT	6	626.2571283143976	118	2020-01-21 12:45:21.338798
81	Self	S200121	0.8333333333333334	1	2	1	2	0.6	1283.3333359	1500.000003	1933.3333372	1500.000003	Major	Wrong_doings	56	You have been convicted in court	C1_4	0.15	Easy	I2_48	31	Carnivore refers to meat-eater	0.888888888888889	Yes	RIGHT	1819.65130000026	RIGHT	352.8166000000965	RIGHT	1335.201700000198	LEFT	1747.7217000000564	20.4	0.6	Probable_Truth	LEFT	LEFT	1	565.5801999996584	119	2020-01-21 12:45:45.954139
82	Self	S200121	0.8333333333333334	1	2	1	2	0.8	1350.0000027	1350.0000027	2500.000005	2066.6666708	Major	Wrong_doings	29	You have sheltered others from disasters	C1_38	0.0	Hard	I1_48	41	A dog has four legs	0.611111111111111	Yes	RIGHT	436.4203999998608	RIGHT	329.22459999963394	RIGHT	823.5987000002751	RIGHT	980.9685000000172	21.2	0.8	Probable_Truth	LEFT	LEFT	1	563.050100000055	120	2020-01-21 12:46:08.928609
12	Self	S200121	0.5	2	1	2	1	0.5	1433.3333362	1500.000003	2066.6666708	1650.0000033	Major	Good_deeds	46	You have started an NGO using your savings	C2_46	0.95	Hard	I2_55	46	Cernan was the second last man to walk on the Moon	1.0	No	LEFT	968.3734000000186	RIGHT	1518.136499999855	LEFT	1759.350600000289	RIGHT	887.0630999999776	20.7	0.5	Probable_Lie	LEFT	RIGHT	3	776.8190000001596	121	2020-01-21 12:46:34.066722
46	Self	S200121	0.8333333333333334	2	1	2	1	0.8	1150.0000023	1000.000002	1783.3333369	1783.3333369	Minor	Good_deeds	5	You have stopped using products tested on animals	C1_50	0.7	Easy	I1_11	6	Pyramid of Giza is 468 feet tall	0.0	No	RIGHT	455.6314999999813	RIGHT	465.2615999998488	RIGHT	1385.6212000000596	RIGHT	944.4914999999128	21.5	0.8	Probable_Truth	LEFT	LEFT	1	1721.7593999998826	122	2020-01-21 12:46:57.337501
112	Computer	S200121	0.6666666666666666	1	2	1	2	0.8	1350.0000027	1283.3333359	2066.6666708	1783.3333369	Minor	Wrong_doings	24	You have volunteered every week for many years	C2_18	0.05	Hard	I1_25	45	Slavery was abolished in Cuba in 1886	0.888888888888889	Yes	LEFT	1407.45810000044	LEFT	561.4559000000554	RIGHT	1055.9417999998004	RIGHT	3042.310499999985	21.5	0.8	Probable_Lie	RIGHT	LEFT	6	637.6795377172467	123	2020-01-21 12:47:23.090981
39	Self	S200121	0.8333333333333334	1	2	2	1	0.1	1433.3333362	1283.3333359	1783.3333369	2216.6666711000003	Major	Wrong_doings	34	You have engaged in underage smoking	C2_6	0.0	Hard	I2_43	27	Feijoa is a type of grape	0.0	Yes	RIGHT	361.277599999994	RIGHT	481.0795999997026	LEFT	1556.55569999999	LEFT	1407.726599999933	21.6	0.1	Probable_Truth	LEFT	LEFT	1	814.4027000003007	124	2020-01-21 12:47:47.009791
121	Computer	S200121	0.6666666666666666	2	1	1	2	0.2	1283.3333359	1283.3333359	1500.000003	2216.6666711000003	Major	Wrong_doings	49	You have rescued others from a catastrophe	C2_2	0.05	Easy	I2_11	11	Bears have the biggest eyes among mammals	0.833333333333333	No	RIGHT	808.2331999999042	LEFT	2090.4058000000987	RIGHT	1439.2853000003925	RIGHT	4330.377700000099	21.6	0.2	Probable_Truth	RIGHT	LEFT	1	856.4266839735317	125	2020-01-21 12:48:15.385698
71	Self	S200121	0.6666666666666666	1	2	2	1	0.6	1066.6666688	1216.6666691	1500.000003	2350.0000047	Minor	Good_deeds	17	You have started a movement to support a cause	C2_17	0.0	Easy	I2_52	14	Chickens lay eggs	0.0	No	RIGHT	381.2115000000631	RIGHT	312.5639999998384	RIGHT	1195.518600000014	RIGHT	831.9930000002387	22.200000000000003	0.6	Probable_Truth	LEFT	LEFT	2	831.6201000002366	126	2020-01-21 12:48:37.649771
123	Computer	S200121	0.6666666666666666	2	1	1	2	0.7	1216.6666691	1350.0000027	1650.0000033	1650.0000033	Minor	Good_deeds	43	You have been arrested	C1_49	0.0	Hard	I2_40	36	Penguin can fly with their wings	0.611111111111111	Yes	LEFT	343.0922000002284	LEFT	824.2565999998988	LEFT	2143.4496000001677	LEFT	776.9167000001289	22.200000000000003	0.7	Probable_Lie	RIGHT	LEFT	3	974.9231608248436	127	2020-01-21 12:49:01.145718
23	Self	S200121	0.6666666666666666	1	2	2	1	0.3	1216.6666691	1433.3333362	1500.000003	1783.3333369	Minor	Good_deeds	36	You have bought cigarettes for a minor	C1_39	0.55	Hard	I2_38	25	Cleopatra was born in Greece	0.0555555555555556	No	RIGHT	355.3599000001668	RIGHT	312.45510000007926	RIGHT	1275.8552000000236	LEFT	768.255599999975	22.500000000000004	0.3	Probable_Truth	RIGHT	RIGHT	3	995.8753999999316	128	2020-01-21 12:49:23.361340
80	Self	S200121	0.8333333333333334	1	2	1	2	0.5	1150.0000023	1066.6666688	2350.0000047	1650.0000033	Major	Good_deeds	53	You have borrowed things and never returned	C2_56	0.0	Hard	I2_22	48	Fibers in oranges can be used to make fabric	0.0	No	RIGHT	2499.360400000114	RIGHT	727.6597000000038	LEFT	2239.3871999997828	LEFT	3638.482300000305	23.000000000000004	0.5	Probable_Lie	RIGHT	RIGHT	1	624.0475999998125	129	2020-01-21 12:49:51.881837
24	Self	S200121	0.6666666666666666	2	1	1	2	0.3	1433.3333362	1500.000003	2500.000005	1500.000003	Major	Wrong_doings	20	You have illegally stayed in a country	C2_34	0.55	Easy	I2_42	58	Africa is the continent with the least rainfall	0.0	Yes	RIGHT	583.1385000001319	RIGHT	694.5899999996072	RIGHT	1535.6753999999455	LEFT	2118.544800000109	23.300000000000004	0.3	Probable_Truth	LEFT	LEFT	1	1184.2163999999684	130	2020-01-21 12:50:17.507136
37	Self	S200121	0.8333333333333334	1	2	2	1	0.2	1500.000003	1500.000003	1933.3333372	1933.3333372	Minor	Wrong_doings	44	You have engaged in money laundering	C2_30	0.95	Hard	I1_6	45	Airbags in cars are filled with sodium azide	0.666666666666667	Yes	RIGHT	477.45450000002165	RIGHT	383.8359000001219	LEFT	1436.9317999999112	LEFT	1630.6073000000652	23.500000000000004	0.2	Probable_Lie	LEFT	LEFT	2	837.1885000001384	131	2020-01-21 12:50:41.713609
109	Computer	S200121	0.5	2	1	2	1	0.5	1350.0000027	1216.6666691	1933.3333372	2500.000005	Minor	Good_deeds	46	You have kept your promises	C2_24	0.0	Hard	I1_15	53	Singapore ranked 8th in World's smallest countries	0.944444444444444	Yes	RIGHT	848.3618000000206	LEFT	1050.1991000001	LEFT	1308.676000000105	RIGHT	1375.6223000000318	23.500000000000004	0.5	Probable_Truth	LEFT	LEFT	1	507.1906251728733	132	2020-01-21 12:51:06.370313
134	Computer	S200121	0.8333333333333334	1	2	2	1	0.7	1433.3333362	1350.0000027	2500.000005	2216.6666711000003	Minor	Good_deeds	6	You have cursed at others	C2_47	1.0	Hard	I1_42	30	R. Amundsen discovered the South Pole	0.111111111111111	No	LEFT	2033.266200000071	LEFT	624.9029999999038	LEFT	1224.3935999999849	LEFT	2470.5360000002656	23.500000000000004	0.7	Probable_Lie	LEFT	RIGHT	1	708.3574721371448	133	2020-01-21 12:51:33.498145
47	Self	S200121	0.8333333333333334	2	1	2	1	0.1	1216.6666691	1350.0000027	2500.000005	1500.000003	Major	Wrong_doings	16	You have been sued	C1_47	0.0	Easy	I2_5	44	Red is a color	0.764705882352941	Yes	RIGHT	343.9673999996557	RIGHT	308.61730000015086	RIGHT	991.119400000116	LEFT	1615.5958999997893	23.600000000000005	0.1	Probable_Lie	LEFT	LEFT	4	1245.8377999996628	134	2020-01-21 12:51:57.147151
5	Self	S200121	0.5	1	2	2	1	0.7	1066.6666688	1066.6666688	1783.3333369	2500.000005	Major	Good_deeds	14	You have bribed someone to improve a grade	C1_17	0.0	Easy	I2_12	12	A caterpillar has more muscle than a human	0.888888888888889	Yes	RIGHT	443.8121000002866	RIGHT	407.81550000019706	RIGHT	1719.0988000002108	LEFT	1439.8154000000432	24.300000000000004	0.7	Probable_Truth	LEFT	RIGHT	6	962.9657999998926	135	2020-01-21 12:52:21.113788
138	Computer	S200121	0.8333333333333334	2	1	1	2	0.6	1500.000003	1433.3333362	2066.6666708	2500.000005	Minor	Good_deeds	58	You have thrown your trash into the bin	C2_3	1.0	Hard	I2_6	13	A square has 3 corners	0.944444444444444	No	LEFT	1513.1548999997904	LEFT	1068.40289999991	LEFT	1216.2091000000146	RIGHT	2277.961100000084	24.300000000000004	0.6	Probable_Truth	RIGHT	RIGHT	6	893.9225766280238	136	2020-01-21 12:52:48.163011
110	Computer	S200121	0.5	2	1	2	1	0.6	1000.000002	1000.000002	1783.3333369	1933.3333372	Major	Wrong_doings	60	You have organized a violent protest	C1_46	0.0	Hard	I2_46	17	Beer is an alcoholic drink	0.0	Yes	RIGHT	655.6995999999344	RIGHT	1562.8873000000567	RIGHT	1850.44519999974	LEFT	2296.5518000000884	24.90000000000001	0.6	Probable_Truth	RIGHT	LEFT	3	730.2430495041147	137	2020-01-21 12:53:13.554772
7	Self	S200121	0.5	1	2	2	1	0.8	1150.0000023	1433.3333362	2066.6666708	1650.0000033	Minor	Wrong_doings	43	You have said thank you when you have received help	C2_14	1.0	Hard	I1_21	28	The Moon orbits around the Earth	0.0	Yes	RIGHT	2845.4632000002675	RIGHT	695.8158999996158	LEFT	3903.523099999802	RIGHT	814.5538000003398	25.700000000000006	0.8	Probable_Lie	RIGHT	RIGHT	3	1238.446599999861	138	2020-01-21 12:53:41.930154
33	Self	S200121	0.8333333333333334	1	2	1	2	0.7	1283.3333359	1350.0000027	2216.6666711000003	2350.0000047	Major	Good_deeds	9	You have followed instructions	C1_44	0.85	Easy	I2_45	47	Most plants emit oxygen in the day	0.833333333333333	No	RIGHT	639.6452999997564	RIGHT	423.7448999997469	RIGHT	1591.59580000005	RIGHT	1546.3245999999344	26.40000000000001	0.7	Probable_Truth	LEFT	LEFT	1	937.0929000001524	139	2020-01-21 12:54:06.849682
94	Self	S200121	0.8333333333333334	2	1	2	1	0.5	1000.000002	1150.0000023	2350.0000047	1650.0000033	Major	Good_deeds	31	You have taken part in violent demonstration	C1_7	0.2	Hard	I1_17	2	Singapore is a poor country	0.0	Yes	RIGHT	353.4366000003501	RIGHT	427.3086000002877	LEFT	1153.415800000403	LEFT	1271.276599999965	26.90000000000001	0.5	Probable_Truth	RIGHT	RIGHT	4	1933.8438999998289	140	2020-01-21 12:54:30.714747
31	Self	S200121	0.6666666666666666	2	1	2	1	0.7	1350.0000027	1350.0000027	2066.6666708	2500.000005	Minor	Wrong_doings	6	You have cheated on a test	C2_11	0.0	Hard	I1_58	42	There are 6 million animal species on Earth	0.0	No	RIGHT	502.0715000000564	RIGHT	1006.040700000085	RIGHT	2326.401299999816	LEFT	3424.301899999591	27.600000000000005	0.7	Probable_Lie	RIGHT	RIGHT	2	896.8675999999505	141	2020-01-21 12:54:58.714333
140	Computer	S200121	0.8333333333333334	2	1	2	1	0.5	1283.3333359	1350.0000027	2350.0000047	2216.6666711000003	Major	Wrong_doings	47	You have deceived a loved one	C2_31	0.95	Hard	I2_34	11	A triangle has three sides	0.0	Yes	RIGHT	655.0068999995347	RIGHT	673.7976000003982	RIGHT	1256.7282999998497	LEFT	1031.9094999995286	28.100000000000005	0.5	Probable_Lie	LEFT	RIGHT	1	543.3544894039052	142	2020-01-21 12:55:22.658554
11	Self	S200121	0.5	2	1	1	2	0.1	1216.6666691	1350.0000027	1783.3333369	1500.000003	Minor	Good_deeds	30	You have complimented others for good work	C2_25	0.85	Easy	I1_1	23	Malay is one of the races in Singapore	1.0	No	RIGHT	447.8316999993695	RIGHT	424.19629999949393	RIGHT	886.3574999995762	RIGHT	4293.966999999611	28.200000000000006	0.1	Probable_Truth	LEFT	RIGHT	5	1139.3765000002531	143	2020-01-21 12:55:48.282006
