"Participant"	"Task"	"Stimulus_Side"	"Response"	"RT"	"ITI"	"Previous_Response"	"Previous_RT"	"Stop_Signal"	"Stop_Signal_RT"	"Conflict"	"Cue_Response"	"Cue_Response_RT"	"Trial_Onset"	"Trial_End"	"Trial_Order"	"Duration"
"S210215"	"Conflict_Resolution"	"LEFT"	"LEFT"	611.409399999957	1250.0000025	n/a	n/a	n/a	n/a	"False"	n/a	n/a	"2021-02-15 13:54:34.588164"	"2021-02-15 13:54:35.407991"	1	6.15933533333333
"S210215"	"Conflict_Resolution"	"RIGHT"	"RIGHT"	494.649299999992	1150.0000023	n/a	n/a	n/a	n/a	"False"	n/a	n/a	"2021-02-15 13:54:36.576533"	"2021-02-15 13:54:37.279509"	2	6.15933533333333
"S210215"	"Conflict_Resolution"	"RIGHT"	"RIGHT"	931.313799999998	833.333335	n/a	n/a	n/a	n/a	"True"	n/a	n/a	"2021-02-15 13:54:38.131826"	"2021-02-15 13:54:39.271199"	3	6.15933533333333
"S210215"	"Conflict_Resolution"	"LEFT"	"LEFT"	478.542300000072	1366.6666694	n/a	n/a	n/a	n/a	"False"	n/a	n/a	"2021-02-15 13:54:40.657449"	"2021-02-15 13:54:41.342615"	4	6.15933533333333
"S210215"	"Conflict_Resolution"	"RIGHT"	"RIGHT"	775.436100000093	750.0000015	n/a	n/a	n/a	n/a	"True"	n/a	n/a	"2021-02-15 13:54:42.111692"	"2021-02-15 13:54:43.094703"	5	6.15933533333333
"S210215"	"Conflict_Resolution"	"RIGHT"	"RIGHT"	575.69890000002	783.3333349	n/a	n/a	n/a	n/a	"True"	n/a	n/a	"2021-02-15 13:54:43.895714"	"2021-02-15 13:54:44.679857"	6	6.15933533333333
"S210215"	"Conflict_Resolution"	"RIGHT"	"RIGHT"	578.7239	1033.3333354	n/a	n/a	n/a	n/a	"True"	n/a	n/a	"2021-02-15 13:54:45.732948"	"2021-02-15 13:54:46.521136"	7	6.15933533333333
"S210215"	"Conflict_Resolution"	"RIGHT"	"RIGHT"	627.986000000078	583.3333345	n/a	n/a	n/a	n/a	"False"	n/a	n/a	"2021-02-15 13:54:47.123671"	"2021-02-15 13:54:47.960113"	8	6.15933533333333
"S210215"	"Conflict_Resolution"	"LEFT"	"LEFT"	571.607399999948	1000.000002	n/a	n/a	n/a	n/a	"False"	n/a	n/a	"2021-02-15 13:54:48.980170"	"2021-02-15 13:54:49.760267"	9	6.15933533333333
"S210215"	"Conflict_Resolution"	"RIGHT"	"RIGHT"	438.56679999999	1383.3333361	n/a	n/a	n/a	n/a	"False"	n/a	n/a	"2021-02-15 13:54:51.162709"	"2021-02-15 13:54:51.808932"	10	6.15933533333333
"S210215"	"Conflict_Resolution"	"LEFT"	"LEFT"	527.072799999928	716.6666681	n/a	n/a	n/a	n/a	"True"	n/a	n/a	"2021-02-15 13:54:52.544964"	"2021-02-15 13:54:53.279905"	11	6.15933533333333
"S210215"	"Conflict_Resolution"	"RIGHT"	"RIGHT"	552.003000000013	683.3333347	n/a	n/a	n/a	n/a	"True"	n/a	n/a	"2021-02-15 13:54:53.983299"	"2021-02-15 13:54:54.743999"	12	6.15933533333333
"S210215"	"Conflict_Resolution"	"LEFT"	"LEFT"	494.811799999979	1350.0000027	n/a	n/a	n/a	n/a	"True"	n/a	n/a	"2021-02-15 13:54:56.112756"	"2021-02-15 13:54:56.814708"	13	6.15933533333333
"S210215"	"Conflict_Resolution"	"LEFT"	"LEFT"	554.056500000002	533.3333344	n/a	n/a	n/a	n/a	"False"	n/a	n/a	"2021-02-15 13:54:57.365975"	"2021-02-15 13:54:58.128294"	14	6.15933533333333
"S210215"	"Conflict_Resolution"	"RIGHT"	"RIGHT"	417.170299999952	1083.3333355	n/a	n/a	n/a	n/a	"False"	n/a	n/a	"2021-02-15 13:54:59.230546"	"2021-02-15 13:54:59.856084"	15	6.15933533333333
"S210215"	"Conflict_Resolution"	"RIGHT"	"RIGHT"	422.66189999998	1316.6666693	n/a	n/a	n/a	n/a	"False"	n/a	n/a	"2021-02-15 13:55:01.192684"	"2021-02-15 13:55:01.824095"	16	6.15933533333333
"S210215"	"Conflict_Resolution"	"LEFT"	"LEFT"	647.25640000006	916.6666685	n/a	n/a	n/a	n/a	"True"	n/a	n/a	"2021-02-15 13:55:02.760136"	"2021-02-15 13:55:03.615836"	17	6.15933533333333
"S210215"	"Conflict_Resolution"	"LEFT"	"LEFT"	398.090300000035	966.6666686	n/a	n/a	n/a	n/a	"False"	n/a	n/a	"2021-02-15 13:55:04.601724"	"2021-02-15 13:55:05.207642"	18	6.15933533333333
"S210215"	"Conflict_Resolution"	"LEFT"	"LEFT"	543.065599999977	583.3333345	n/a	n/a	n/a	n/a	"False"	n/a	n/a	"2021-02-15 13:55:05.808224"	"2021-02-15 13:55:06.559382"	19	6.15933533333333
"S210215"	"Conflict_Resolution"	"LEFT"	"LEFT"	470.755199999985	1366.6666694	n/a	n/a	n/a	n/a	"True"	n/a	n/a	"2021-02-15 13:55:07.945108"	"2021-02-15 13:55:08.623676"	20	6.15933533333333
"S210215"	"Conflict_Resolution"	"LEFT"	"LEFT"	530.874799999992	1450.0000029	n/a	n/a	n/a	n/a	"False"	n/a	n/a	"2021-02-15 13:55:10.092383"	"2021-02-15 13:55:10.830377"	21	6.15933533333333
"S210215"	"Conflict_Resolution"	"RIGHT"	"RIGHT"	520.332400000029	700.0000014	n/a	n/a	n/a	n/a	"True"	n/a	n/a	"2021-02-15 13:55:11.551558"	"2021-02-15 13:55:12.280187"	22	6.15933533333333
"S210215"	"Conflict_Resolution"	"RIGHT"	"RIGHT"	431.28999999999	1100.0000022	n/a	n/a	n/a	n/a	"False"	n/a	n/a	"2021-02-15 13:55:13.400710"	"2021-02-15 13:55:14.040064"	23	6.15933533333333
"S210215"	"Conflict_Resolution"	"RIGHT"	"RIGHT"	535.485700000095	533.3333344	n/a	n/a	n/a	n/a	"False"	n/a	n/a	"2021-02-15 13:55:14.591747"	"2021-02-15 13:55:15.336260"	24	6.15933533333333
"S210215"	"Conflict_Resolution"	"LEFT"	"LEFT"	527.004599999941	733.3333348	n/a	n/a	n/a	n/a	"True"	n/a	n/a	"2021-02-15 13:55:16.088444"	"2021-02-15 13:55:16.824305"	25	6.15933533333333
"S210215"	"Conflict_Resolution"	"RIGHT"	"RIGHT"	487.388599999917	1083.3333355	n/a	n/a	n/a	n/a	"True"	n/a	n/a	"2021-02-15 13:55:17.928533"	"2021-02-15 13:55:18.624104"	26	6.15933533333333
"S210215"	"Conflict_Resolution"	"LEFT"	"LEFT"	438.299500000085	950.0000019	n/a	n/a	n/a	n/a	"False"	n/a	n/a	"2021-02-15 13:55:19.593542"	"2021-02-15 13:55:20.239875"	27	6.15933533333333
"S210215"	"Conflict_Resolution"	"LEFT"	"LEFT"	420.338400000105	1416.6666695	n/a	n/a	n/a	n/a	"False"	n/a	n/a	"2021-02-15 13:55:21.675543"	"2021-02-15 13:55:22.303777"	28	6.15933533333333
"S210215"	"Conflict_Resolution"	"RIGHT"	"RIGHT"	520.837799999981	883.3333351	n/a	n/a	n/a	n/a	"True"	n/a	n/a	"2021-02-15 13:55:23.206990"	"2021-02-15 13:55:23.936052"	29	6.15933533333333
"S210215"	"Conflict_Resolution"	"LEFT"	"LEFT"	567.310900000052	516.6666677	n/a	n/a	n/a	n/a	"True"	n/a	n/a	"2021-02-15 13:55:24.472552"	"2021-02-15 13:55:25.247220"	30	6.15933533333333
"S210215"	"Conflict_Resolution"	"LEFT"	"LEFT"	446.812700000009	766.6666682	n/a	n/a	n/a	n/a	"True"	n/a	n/a	"2021-02-15 13:55:26.033184"	"2021-02-15 13:55:26.688055"	31	6.15933533333333
"S210215"	"Conflict_Resolution"	"LEFT"	"LEFT"	578.47019999997	1450.0000029	n/a	n/a	n/a	n/a	"True"	n/a	n/a	"2021-02-15 13:55:28.157244"	"2021-02-15 13:55:28.944290"	32	6.15933533333333
"S210215"	"Conflict_Resolution"	"LEFT"	"LEFT"	459.834399999977	1166.666669	n/a	n/a	n/a	n/a	"True"	n/a	n/a	"2021-02-15 13:55:30.131206"	"2021-02-15 13:55:30.800017"	33	6.15933533333333
"S210215"	"Conflict_Resolution"	"LEFT"	"LEFT"	398.7889	1150.0000023	n/a	n/a	n/a	n/a	"False"	n/a	n/a	"2021-02-15 13:55:31.968905"	"2021-02-15 13:55:32.576025"	34	6.15933533333333
"S210215"	"Conflict_Resolution"	"LEFT"	"LEFT"	678.321500000038	1316.6666693	n/a	n/a	n/a	n/a	"True"	n/a	n/a	"2021-02-15 13:55:33.912950"	"2021-02-15 13:55:34.800133"	35	6.15933533333333
"S210215"	"Conflict_Resolution"	"LEFT"	"LEFT"	459.446800000023	616.6666679	n/a	n/a	n/a	n/a	"False"	n/a	n/a	"2021-02-15 13:55:35.436014"	"2021-02-15 13:55:36.102478"	36	6.15933533333333
"S210215"	"Conflict_Resolution"	"LEFT"	"LEFT"	396.194600000058	1050.0000021	n/a	n/a	n/a	n/a	"False"	n/a	n/a	"2021-02-15 13:55:37.171363"	"2021-02-15 13:55:37.775300"	37	6.15933533333333
"S210215"	"Conflict_Resolution"	"RIGHT"	"RIGHT"	527.352699999938	983.3333353	n/a	n/a	n/a	n/a	"False"	n/a	n/a	"2021-02-15 13:55:38.776328"	"2021-02-15 13:55:39.510431"	38	6.15933533333333
"S210215"	"Conflict_Resolution"	"RIGHT"	"RIGHT"	513.122299999964	1133.3333356	n/a	n/a	n/a	n/a	"True"	n/a	n/a	"2021-02-15 13:55:40.662184"	"2021-02-15 13:55:41.384094"	39	6.15933533333333
"S210215"	"Conflict_Resolution"	"RIGHT"	"RIGHT"	441.002700000013	1483.3333363	n/a	n/a	n/a	n/a	"False"	n/a	n/a	"2021-02-15 13:55:42.886180"	"2021-02-15 13:55:43.534977"	40	6.15933533333333
"S210215"	"Conflict_Resolution"	"LEFT"	"LEFT"	513.165500000014	733.3333348	n/a	n/a	n/a	n/a	"False"	n/a	n/a	"2021-02-15 13:55:44.286721"	"2021-02-15 13:55:45.008071"	41	6.15933533333333
"S210215"	"Conflict_Resolution"	"RIGHT"	"RIGHT"	481.159200000093	1283.3333359	n/a	n/a	n/a	n/a	"True"	n/a	n/a	"2021-02-15 13:55:46.310086"	"2021-02-15 13:55:46.999719"	42	6.15933533333333
"S210215"	"Conflict_Resolution"	"LEFT"	"LEFT"	465.001899999947	1116.6666689	n/a	n/a	n/a	n/a	"False"	n/a	n/a	"2021-02-15 13:55:48.134359"	"2021-02-15 13:55:48.807762"	43	6.15933533333333
"S210215"	"Conflict_Resolution"	"RIGHT"	"RIGHT"	476.761900000042	983.3333353	n/a	n/a	n/a	n/a	"True"	n/a	n/a	"2021-02-15 13:55:49.810685"	"2021-02-15 13:55:50.496057"	44	6.15933533333333
"S210215"	"Conflict_Resolution"	"RIGHT"	"RIGHT"	405.328499999996	800.0000016	n/a	n/a	n/a	n/a	"False"	n/a	n/a	"2021-02-15 13:55:51.314254"	"2021-02-15 13:55:51.927804"	45	6.15933533333333
"S210215"	"Conflict_Resolution"	"LEFT"	"LEFT"	476.595999999972	1016.6666687	n/a	n/a	n/a	n/a	"True"	n/a	n/a	"2021-02-15 13:55:52.962853"	"2021-02-15 13:55:53.647997"	46	6.15933533333333
"S210215"	"Conflict_Resolution"	"RIGHT"	"RIGHT"	423.386300000061	933.3333352	n/a	n/a	n/a	n/a	"False"	n/a	n/a	"2021-02-15 13:55:54.600754"	"2021-02-15 13:55:55.232058"	47	6.15933533333333
"S210215"	"Conflict_Resolution"	"LEFT"	"LEFT"	361.0367	1066.6666688	n/a	n/a	n/a	n/a	"False"	n/a	n/a	"2021-02-15 13:55:56.318318"	"2021-02-15 13:55:56.888354"	48	6.15933533333333
"S210215"	"Conflict_Resolution"	"LEFT"	"LEFT"	477.278500000011	1000.000002	n/a	n/a	n/a	n/a	"True"	n/a	n/a	"2021-02-15 13:55:57.905906"	"2021-02-15 13:55:58.590970"	49	6.15933533333333
"S210215"	"Conflict_Resolution"	"RIGHT"	"RIGHT"	773.16780000001	1000.000002	n/a	n/a	n/a	n/a	"True"	n/a	n/a	"2021-02-15 13:55:59.610802"	"2021-02-15 13:56:00.591860"	50	6.15933533333333
"S210215"	"Conflict_Resolution"	"LEFT"	"LEFT"	449.00610000002	683.3333347	n/a	n/a	n/a	n/a	"True"	n/a	n/a	"2021-02-15 13:56:01.295028"	"2021-02-15 13:56:01.952321"	51	6.15933533333333
"S210215"	"Conflict_Resolution"	"RIGHT"	"RIGHT"	421.988299999953	1133.3333356	n/a	n/a	n/a	n/a	"False"	n/a	n/a	"2021-02-15 13:56:03.105672"	"2021-02-15 13:56:03.735844"	52	6.15933533333333
"S210215"	"Conflict_Resolution"	"RIGHT"	"RIGHT"	991.346799999974	533.3333344	n/a	n/a	n/a	n/a	"True"	n/a	n/a	"2021-02-15 13:56:04.288253"	"2021-02-15 13:56:05.489160"	53	6.15933533333333
"S210215"	"Conflict_Resolution"	"LEFT"	"LEFT"	529.648699999939	850.0000017	n/a	n/a	n/a	n/a	"True"	n/a	n/a	"2021-02-15 13:56:06.358593"	"2021-02-15 13:56:07.096068"	54	6.15933533333333
"S210215"	"Conflict_Resolution"	"RIGHT"	"RIGHT"	562.766000000011	1483.3333363	n/a	n/a	n/a	n/a	"True"	n/a	n/a	"2021-02-15 13:56:08.597099"	"2021-02-15 13:56:09.367403"	55	6.15933533333333
"S210215"	"Conflict_Resolution"	"LEFT"	"LEFT"	520.68149999991	1116.6666689	n/a	n/a	n/a	n/a	"True"	n/a	n/a	"2021-02-15 13:56:10.503339"	"2021-02-15 13:56:11.232163"	56	6.15933533333333
"S210215"	"Conflict_Resolution"	"RIGHT"	"RIGHT"	443.252199999961	1433.3333362	n/a	n/a	n/a	n/a	"False"	n/a	n/a	"2021-02-15 13:56:12.683919"	"2021-02-15 13:56:13.334809"	57	6.15933533333333
"S210215"	"Conflict_Resolution"	"RIGHT"	"LEFT"	580.33910000006	633.3333346	n/a	n/a	n/a	n/a	"True"	n/a	n/a	"2021-02-15 13:56:13.987066"	"2021-02-15 13:56:14.775933"	58	6.15933533333333
"S210215"	"Conflict_Resolution"	"LEFT"	"LEFT"	532.716199999982	1400.0000028	n/a	n/a	n/a	n/a	"False"	n/a	n/a	"2021-02-15 13:56:16.195378"	"2021-02-15 13:56:16.935993"	59	6.15933533333333
"S210215"	"Conflict_Resolution"	"RIGHT"	"RIGHT"	477.232100000037	1383.3333361	n/a	n/a	n/a	n/a	"True"	n/a	n/a	"2021-02-15 13:56:18.338661"	"2021-02-15 13:56:19.023838"	60	6.15933533333333
"S210215"	"Conflict_Resolution"	"LEFT"	"LEFT"	529.758099999981	683.3333347	n/a	n/a	n/a	n/a	"False"	n/a	n/a	"2021-02-15 13:56:19.725518"	"2021-02-15 13:56:20.462519"	61	6.15933533333333
"S210215"	"Conflict_Resolution"	"RIGHT"	"RIGHT"	708.031899999924	1233.3333358	n/a	n/a	n/a	n/a	"True"	n/a	n/a	"2021-02-15 13:56:21.715808"	"2021-02-15 13:56:22.630408"	62	6.15933533333333
"S210215"	"Conflict_Resolution"	"RIGHT"	"RIGHT"	640.799000000015	1366.6666694	n/a	n/a	n/a	n/a	"False"	n/a	n/a	"2021-02-15 13:56:24.014892"	"2021-02-15 13:56:24.863277"	63	6.15933533333333
"S210215"	"Conflict_Resolution"	"LEFT"	"LEFT"	669.322100000045	633.3333346	n/a	n/a	n/a	n/a	"True"	n/a	n/a	"2021-02-15 13:56:25.514668"	"2021-02-15 13:56:26.392137"	64	6.15933533333333
"S210215"	"Conflict_Resolution"	"RIGHT"	"RIGHT"	630.808399999978	1150.0000023	n/a	n/a	n/a	n/a	"True"	n/a	n/a	"2021-02-15 13:56:27.560606"	"2021-02-15 13:56:28.398807"	65	6.15933533333333
"S210215"	"Conflict_Resolution"	"RIGHT"	"RIGHT"	507.867399999895	650.0000013	n/a	n/a	n/a	n/a	"False"	n/a	n/a	"2021-02-15 13:56:29.068045"	"2021-02-15 13:56:29.782799"	66	6.15933533333333
"S210215"	"Conflict_Resolution"	"RIGHT"	"RIGHT"	542.915600000015	583.3333345	n/a	n/a	n/a	n/a	"True"	n/a	n/a	"2021-02-15 13:56:30.385189"	"2021-02-15 13:56:31.135612"	67	6.15933533333333
"S210215"	"Conflict_Resolution"	"LEFT"	"LEFT"	473.648099999991	866.6666684	n/a	n/a	n/a	n/a	"False"	n/a	n/a	"2021-02-15 13:56:32.022359"	"2021-02-15 13:56:32.704090"	68	6.15933533333333
"S210215"	"Conflict_Resolution"	"RIGHT"	"RIGHT"	470.728400000098	783.3333349	n/a	n/a	n/a	n/a	"False"	n/a	n/a	"2021-02-15 13:56:33.504544"	"2021-02-15 13:56:34.183395"	69	6.15933533333333
"S210215"	"Conflict_Resolution"	"LEFT"	"LEFT"	628.682300000037	1216.6666691	n/a	n/a	n/a	n/a	"True"	n/a	n/a	"2021-02-15 13:56:35.419191"	"2021-02-15 13:56:36.255529"	70	6.15933533333333
"S210215"	"Conflict_Resolution"	"LEFT"	"LEFT"	496.90309999994	900.0000018	n/a	n/a	n/a	n/a	"False"	n/a	n/a	"2021-02-15 13:56:37.175084"	"2021-02-15 13:56:37.880206"	71	6.15933533333333
"S210215"	"Conflict_Resolution"	"LEFT"	"LEFT"	471.04980000006	916.6666685	n/a	n/a	n/a	n/a	"False"	n/a	n/a	"2021-02-15 13:56:38.815824"	"2021-02-15 13:56:39.495198"	72	6.15933533333333
"S210215"	"Conflict_Resolution"	"RIGHT"	"RIGHT"	547.278699999993	1433.3333362	n/a	n/a	n/a	n/a	"True"	n/a	n/a	"2021-02-15 13:56:40.948488"	"2021-02-15 13:56:41.703463"	73	6.15933533333333
"S210215"	"Conflict_Resolution"	"LEFT"	"LEFT"	469.816000000037	783.3333349	n/a	n/a	n/a	n/a	"True"	n/a	n/a	"2021-02-15 13:56:42.505753"	"2021-02-15 13:56:43.183196"	74	6.15933533333333
"S210215"	"Conflict_Resolution"	"RIGHT"	"RIGHT"	522.629700000039	1266.6666692	n/a	n/a	n/a	n/a	"True"	n/a	n/a	"2021-02-15 13:56:44.468627"	"2021-02-15 13:56:45.199610"	75	6.15933533333333
"S210215"	"Conflict_Resolution"	"RIGHT"	"RIGHT"	631.063700000027	1333.333336	n/a	n/a	n/a	n/a	"False"	n/a	n/a	"2021-02-15 13:56:46.552587"	"2021-02-15 13:56:47.392017"	76	6.15933533333333
"S210215"	"Conflict_Resolution"	"LEFT"	"LEFT"	532.01480000007	1400.0000028	n/a	n/a	n/a	n/a	"True"	n/a	n/a	"2021-02-15 13:56:48.811822"	"2021-02-15 13:56:49.550789"	77	6.15933533333333
"S210215"	"Conflict_Resolution"	"RIGHT"	"RIGHT"	469.713299999967	1366.6666694	n/a	n/a	n/a	n/a	"True"	n/a	n/a	"2021-02-15 13:56:50.937402"	"2021-02-15 13:56:51.614584"	78	6.15933533333333
"S210215"	"Conflict_Resolution"	"RIGHT"	"RIGHT"	499.838700000055	1050.0000021	n/a	n/a	n/a	n/a	"True"	n/a	n/a	"2021-02-15 13:56:52.683981"	"2021-02-15 13:56:53.390659"	79	6.15933533333333
"S210215"	"Conflict_Resolution"	"LEFT"	"LEFT"	468.151400000011	1250.0000025	n/a	n/a	n/a	n/a	"True"	n/a	n/a	"2021-02-15 13:56:54.659241"	"2021-02-15 13:56:55.335446"	80	6.15933533333333
"S210215"	"Conflict_Resolution"	"RIGHT"	"RIGHT"	537.090600000056	1466.6666696	n/a	n/a	n/a	n/a	"True"	n/a	n/a	"2021-02-15 13:56:56.822816"	"2021-02-15 13:56:57.568333"	81	6.15933533333333
"S210215"	"Conflict_Resolution"	"RIGHT"	"RIGHT"	473.807800000031	1233.3333358	n/a	n/a	n/a	n/a	"False"	n/a	n/a	"2021-02-15 13:56:58.822137"	"2021-02-15 13:56:59.504267"	82	6.15933533333333
"S210215"	"Conflict_Resolution"	"RIGHT"	"RIGHT"	508.822699999996	1183.3333357	n/a	n/a	n/a	n/a	"True"	n/a	n/a	"2021-02-15 13:57:00.706356"	"2021-02-15 13:57:01.423015"	83	6.15933533333333
"S210215"	"Conflict_Resolution"	"RIGHT"	"RIGHT"	442.367600000011	850.0000017	n/a	n/a	n/a	n/a	"False"	n/a	n/a	"2021-02-15 13:57:02.293568"	"2021-02-15 13:57:02.943828"	84	6.15933533333333
"S210215"	"Conflict_Resolution"	"LEFT"	"LEFT"	507.518000000005	1200.0000024	n/a	n/a	n/a	n/a	"False"	n/a	n/a	"2021-02-15 13:57:04.163889"	"2021-02-15 13:57:04.879618"	85	6.15933533333333
"S210215"	"Conflict_Resolution"	"LEFT"	"LEFT"	550.34240000009	966.6666686	n/a	n/a	n/a	n/a	"True"	n/a	n/a	"2021-02-15 13:57:05.864677"	"2021-02-15 13:57:06.622683"	86	6.15933533333333
"S210215"	"Conflict_Resolution"	"LEFT"	"LEFT"	568.497099999945	566.6666678	n/a	n/a	n/a	n/a	"True"	n/a	n/a	"2021-02-15 13:57:07.207084"	"2021-02-15 13:57:07.982891"	87	6.15933533333333
"S210215"	"Conflict_Resolution"	"RIGHT"	"RIGHT"	540.736299999935	600.0000012	n/a	n/a	n/a	n/a	"True"	n/a	n/a	"2021-02-15 13:57:08.603089"	"2021-02-15 13:57:09.352163"	88	6.15933533333333
"S210215"	"Conflict_Resolution"	"LEFT"	"LEFT"	535.247000000027	1350.0000027	n/a	n/a	n/a	n/a	"False"	n/a	n/a	"2021-02-15 13:57:10.720301"	"2021-02-15 13:57:11.463877"	89	6.15933533333333
"S210215"	"Conflict_Resolution"	"LEFT"	"LEFT"	465.313299999934	866.6666684	n/a	n/a	n/a	n/a	"True"	n/a	n/a	"2021-02-15 13:57:12.350246"	"2021-02-15 13:57:13.023444"	90	6.15933533333333
"S210215"	"Conflict_Resolution"	"LEFT"	"LEFT"	462.746700000025	950.0000019	n/a	n/a	n/a	n/a	"True"	n/a	n/a	"2021-02-15 13:57:13.992591"	"2021-02-15 13:57:14.662806"	91	6.15933533333333
"S210215"	"Conflict_Resolution"	"LEFT"	"LEFT"	376.76149999993	1166.666669	n/a	n/a	n/a	n/a	"False"	n/a	n/a	"2021-02-15 13:57:15.846780"	"2021-02-15 13:57:16.432161"	92	6.15933533333333
"S210215"	"Conflict_Resolution"	"RIGHT"	"RIGHT"	481.380300000069	883.3333351	n/a	n/a	n/a	n/a	"False"	n/a	n/a	"2021-02-15 13:57:17.335369"	"2021-02-15 13:57:18.023528"	93	6.15933533333333
"S210215"	"Conflict_Resolution"	"LEFT"	"LEFT"	549.1320000001	1416.6666695	n/a	n/a	n/a	n/a	"True"	n/a	n/a	"2021-02-15 13:57:19.459412"	"2021-02-15 13:57:20.216386"	94	6.15933533333333
"S210215"	"Conflict_Resolution"	"RIGHT"	"RIGHT"	563.699000000042	600.0000012	n/a	n/a	n/a	n/a	"False"	n/a	n/a	"2021-02-15 13:57:20.836035"	"2021-02-15 13:57:21.608081"	95	6.15933533333333
"S210215"	"Conflict_Resolution"	"RIGHT"	"RIGHT"	573.914999999943	500.000001	n/a	n/a	n/a	n/a	"False"	n/a	n/a	"2021-02-15 13:57:22.129771"	"2021-02-15 13:57:22.911357"	96	6.15933533333333
"S210215"	"Conflict_Resolution"	"RIGHT"	"RIGHT"	518.829399999959	950.0000019	n/a	n/a	n/a	n/a	"True"	n/a	n/a	"2021-02-15 13:57:23.880883"	"2021-02-15 13:57:24.607479"	97	6.15933533333333
"S210215"	"Conflict_Resolution"	"LEFT"	"LEFT"	562.293199999999	1466.6666696	n/a	n/a	n/a	n/a	"True"	n/a	n/a	"2021-02-15 13:57:26.092800"	"2021-02-15 13:57:26.863545"	98	6.15933533333333
"S210215"	"Conflict_Resolution"	"RIGHT"	"RIGHT"	693.202700000029	550.0000011	n/a	n/a	n/a	n/a	"False"	n/a	n/a	"2021-02-15 13:57:27.434602"	"2021-02-15 13:57:28.335204"	99	6.15933533333333
"S210215"	"Conflict_Resolution"	"RIGHT"	"RIGHT"	418.70670000003	700.0000014	n/a	n/a	n/a	n/a	"False"	n/a	n/a	"2021-02-15 13:57:29.052790"	"2021-02-15 13:57:29.678604"	100	6.15933533333333
"S210215"	"Conflict_Resolution"	"RIGHT"	"RIGHT"	571.497000000022	633.3333346	n/a	n/a	n/a	n/a	"False"	n/a	n/a	"2021-02-15 13:57:30.331897"	"2021-02-15 13:57:31.111415"	101	6.15933533333333
"S210215"	"Conflict_Resolution"	"LEFT"	"LEFT"	521.846600000003	533.3333344	n/a	n/a	n/a	n/a	"True"	n/a	n/a	"2021-02-15 13:57:31.669422"	"2021-02-15 13:57:32.398547"	102	6.15933533333333
"S210215"	"Conflict_Resolution"	"RIGHT"	"RIGHT"	552.435700000046	733.3333348	n/a	n/a	n/a	n/a	"False"	n/a	n/a	"2021-02-15 13:57:33.151307"	"2021-02-15 13:57:33.911237"	103	6.15933533333333
"S210215"	"Conflict_Resolution"	"LEFT"	"LEFT"	548.585399999979	666.666668	n/a	n/a	n/a	n/a	"True"	n/a	n/a	"2021-02-15 13:57:34.594448"	"2021-02-15 13:57:35.351942"	104	6.15933533333333
"S210215"	"Conflict_Resolution"	"LEFT"	"LEFT"	596.250199999986	616.6666679	n/a	n/a	n/a	n/a	"True"	n/a	n/a	"2021-02-15 13:57:35.986744"	"2021-02-15 13:57:36.793322"	105	6.15933533333333
"S210215"	"Conflict_Resolution"	"RIGHT"	"RIGHT"	528.857799999969	900.0000018	n/a	n/a	n/a	n/a	"True"	n/a	n/a	"2021-02-15 13:57:37.710911"	"2021-02-15 13:57:38.447917"	106	6.15933533333333
"S210215"	"Conflict_Resolution"	"LEFT"	"LEFT"	501.053400000046	1200.0000024	n/a	n/a	n/a	n/a	"True"	n/a	n/a	"2021-02-15 13:57:39.666137"	"2021-02-15 13:57:40.374742"	107	6.15933533333333
"S210215"	"Conflict_Resolution"	"RIGHT"	"RIGHT"	431.374399999982	950.0000019	n/a	n/a	n/a	n/a	"False"	n/a	n/a	"2021-02-15 13:57:41.343979"	"2021-02-15 13:57:41.983471"	108	6.15933533333333
"S210215"	"Conflict_Resolution"	"RIGHT"	"RIGHT"	395.326300000079	833.333335	n/a	n/a	n/a	n/a	"False"	n/a	n/a	"2021-02-15 13:57:42.835865"	"2021-02-15 13:57:43.439959"	109	6.15933533333333
"S210215"	"Conflict_Resolution"	"RIGHT"	"RIGHT"	427.570100000025	1033.3333354	n/a	n/a	n/a	n/a	"False"	n/a	n/a	"2021-02-15 13:57:44.491652"	"2021-02-15 13:57:45.130246"	110	6.15933533333333
"S210215"	"Conflict_Resolution"	"LEFT"	"LEFT"	489.468600000009	816.6666683	n/a	n/a	n/a	n/a	"True"	n/a	n/a	"2021-02-15 13:57:45.965624"	"2021-02-15 13:57:46.663643"	111	6.15933533333333
"S210215"	"Conflict_Resolution"	"LEFT"	"LEFT"	377.349600000002	1100.0000022	n/a	n/a	n/a	n/a	"False"	n/a	n/a	"2021-02-15 13:57:47.781515"	"2021-02-15 13:57:48.368204"	112	6.15933533333333
"S210215"	"Conflict_Resolution"	"RIGHT"	"RIGHT"	467.780199999993	1416.6666695	n/a	n/a	n/a	n/a	"False"	n/a	n/a	"2021-02-15 13:57:49.804158"	"2021-02-15 13:57:50.480023"	113	6.15933533333333
"S210215"	"Conflict_Resolution"	"RIGHT"	"RIGHT"	550.986699999953	1316.6666693	n/a	n/a	n/a	n/a	"True"	n/a	n/a	"2021-02-15 13:57:51.816449"	"2021-02-15 13:57:52.575921"	114	6.15933533333333
"S210215"	"Conflict_Resolution"	"RIGHT"	"RIGHT"	542.667800000004	1333.333336	n/a	n/a	n/a	n/a	"True"	n/a	n/a	"2021-02-15 13:57:53.928740"	"2021-02-15 13:57:54.679018"	115	6.15933533333333
"S210215"	"Conflict_Resolution"	"LEFT"	"LEFT"	442.707799999994	1466.6666696	n/a	n/a	n/a	n/a	"False"	n/a	n/a	"2021-02-15 13:57:56.164743"	"2021-02-15 13:57:56.814454"	116	6.15933533333333
"S210215"	"Conflict_Resolution"	"LEFT"	"LEFT"	470.668200000091	1150.0000023	n/a	n/a	n/a	n/a	"True"	n/a	n/a	"2021-02-15 13:57:57.984885"	"2021-02-15 13:57:58.663673"	117	6.15933533333333
"S210215"	"Conflict_Resolution"	"RIGHT"	"RIGHT"	424.416299999962	900.0000018	n/a	n/a	n/a	n/a	"False"	n/a	n/a	"2021-02-15 13:57:59.583364"	"2021-02-15 13:58:00.217483"	118	6.15933533333333
"S210215"	"Conflict_Resolution"	"RIGHT"	"RIGHT"	389.387300000067	750.0000015	n/a	n/a	n/a	n/a	"False"	n/a	n/a	"2021-02-15 13:58:00.985939"	"2021-02-15 13:58:01.582575"	119	6.15933533333333
"S210215"	"Conflict_Resolution"	"LEFT"	"LEFT"	465.384099999937	716.6666681	n/a	n/a	n/a	n/a	"False"	n/a	n/a	"2021-02-15 13:58:02.317683"	"2021-02-15 13:58:02.991023"	120	6.15933533333333
"S210215"	"Conflict_Resolution"	"LEFT"	"LEFT"	497.837300000015	900.0000018	n/a	n/a	n/a	n/a	"True"	n/a	n/a	"2021-02-15 13:58:03.909195"	"2021-02-15 13:58:04.615440"	121	6.15933533333333
"S210215"	"Conflict_Resolution"	"LEFT"	"LEFT"	377.788499999951	1500.000003	n/a	n/a	n/a	n/a	"False"	n/a	n/a	"2021-02-15 13:58:06.133077"	"2021-02-15 13:58:06.718412"	122	6.15933533333333
"S210215"	"Conflict_Resolution"	"RIGHT"	"RIGHT"	801.922700000091	500.000001	n/a	n/a	n/a	n/a	"True"	n/a	n/a	"2021-02-15 13:58:07.237061"	"2021-02-15 13:58:08.247499"	123	6.15933533333333
"S210215"	"Conflict_Resolution"	"RIGHT"	"RIGHT"	443.941300000006	1183.3333357	n/a	n/a	n/a	n/a	"False"	n/a	n/a	"2021-02-15 13:58:09.451802"	"2021-02-15 13:58:10.103563"	124	6.15933533333333
"S210215"	"Conflict_Resolution"	"RIGHT"	"RIGHT"	481.530700000008	1216.6666691	n/a	n/a	n/a	n/a	"True"	n/a	n/a	"2021-02-15 13:58:11.342194"	"2021-02-15 13:58:12.030421"	125	6.15933533333333
"S210215"	"Conflict_Resolution"	"LEFT"	"LEFT"	430.153300000029	783.3333349	n/a	n/a	n/a	n/a	"False"	n/a	n/a	"2021-02-15 13:58:12.833242"	"2021-02-15 13:58:13.470955"	126	6.15933533333333
"S210215"	"Conflict_Resolution"	"RIGHT"	"RIGHT"	508.115799999928	650.0000013	n/a	n/a	n/a	n/a	"True"	n/a	n/a	"2021-02-15 13:58:14.139808"	"2021-02-15 13:58:14.855593"	127	6.15933533333333
"S210215"	"Conflict_Resolution"	"RIGHT"	"RIGHT"	475.814499999956	1466.6666696	n/a	n/a	n/a	n/a	"False"	n/a	n/a	"2021-02-15 13:58:16.339955"	"2021-02-15 13:58:17.024197"	128	6.15933533333333
"S210215"	"Conflict_Resolution"	"RIGHT"	"RIGHT"	519.978200000082	1283.3333359	n/a	n/a	n/a	n/a	"False"	n/a	n/a	"2021-02-15 13:58:18.327244"	"2021-02-15 13:58:19.056293"	129	6.15933533333333
"S210215"	"Conflict_Resolution"	"LEFT"	"LEFT"	537.317899999948	666.666668	n/a	n/a	n/a	n/a	"False"	n/a	n/a	"2021-02-15 13:58:19.741778"	"2021-02-15 13:58:20.487406"	130	6.15933533333333
"S210215"	"Conflict_Resolution"	"RIGHT"	"RIGHT"	370.29050000001	1266.6666692	n/a	n/a	n/a	n/a	"False"	n/a	n/a	"2021-02-15 13:58:21.773478"	"2021-02-15 13:58:22.352308"	131	6.15933533333333
"S210215"	"Conflict_Resolution"	"LEFT"	"LEFT"	670.492299999978	1100.0000022	n/a	n/a	n/a	n/a	"True"	n/a	n/a	"2021-02-15 13:58:23.473366"	"2021-02-15 13:58:24.353222"	132	6.15933533333333
"S210215"	"Conflict_Resolution"	"LEFT"	"LEFT"	410.419100000013	816.6666683	n/a	n/a	n/a	n/a	"False"	n/a	n/a	"2021-02-15 13:58:25.189178"	"2021-02-15 13:58:25.807291"	133	6.15933533333333
"S210215"	"Conflict_Resolution"	"RIGHT"	"RIGHT"	482.968000000028	850.0000017	n/a	n/a	n/a	n/a	"True"	n/a	n/a	"2021-02-15 13:58:26.676658"	"2021-02-15 13:58:27.368280"	134	6.15933533333333
"S210215"	"Conflict_Resolution"	"LEFT"	"LEFT"	520.056899999986	1500.000003	n/a	n/a	n/a	n/a	"True"	n/a	n/a	"2021-02-15 13:58:28.887752"	"2021-02-15 13:58:29.614764"	135	6.15933533333333
"S210215"	"Conflict_Resolution"	"RIGHT"	"RIGHT"	601.643200000012	683.3333347	n/a	n/a	n/a	n/a	"False"	n/a	n/a	"2021-02-15 13:58:30.317802"	"2021-02-15 13:58:31.127114"	136	6.15933533333333
"S210215"	"Conflict_Resolution"	"RIGHT"	"RIGHT"	403.669499999978	1050.0000021	n/a	n/a	n/a	n/a	"False"	n/a	n/a	"2021-02-15 13:58:32.196240"	"2021-02-15 13:58:32.807331"	137	6.15933533333333
"S210215"	"Conflict_Resolution"	"LEFT"	"LEFT"	418.310600000041	1266.6666692	n/a	n/a	n/a	n/a	"False"	n/a	n/a	"2021-02-15 13:58:34.093366"	"2021-02-15 13:58:34.719004"	138	6.15933533333333
"S210215"	"Conflict_Resolution"	"LEFT"	"LEFT"	528.251800000135	766.6666682	n/a	n/a	n/a	n/a	"False"	n/a	n/a	"2021-02-15 13:58:35.503098"	"2021-02-15 13:58:36.239085"	139	6.15933533333333
"S210215"	"Conflict_Resolution"	"RIGHT"	"RIGHT"	524.343599999838	800.0000016	n/a	n/a	n/a	n/a	"True"	n/a	n/a	"2021-02-15 13:58:37.059438"	"2021-02-15 13:58:37.790482"	140	6.15933533333333
"S210215"	"Conflict_Resolution"	"RIGHT"	"RIGHT"	745.972700000038	1100.0000022	n/a	n/a	n/a	n/a	"True"	n/a	n/a	"2021-02-15 13:58:38.909652"	"2021-02-15 13:58:39.862379"	141	6.15933533333333
"S210215"	"Conflict_Resolution"	"RIGHT"	"RIGHT"	521.1276	550.0000011	n/a	n/a	n/a	n/a	"True"	n/a	n/a	"2021-02-15 13:58:40.430407"	"2021-02-15 13:58:41.158458"	142	6.15933533333333
"S210215"	"Conflict_Resolution"	"LEFT"	"LEFT"	585.7539000001	1300.0000026	n/a	n/a	n/a	n/a	"False"	n/a	n/a	"2021-02-15 13:58:42.477556"	"2021-02-15 13:58:43.272267"	143	6.15933533333333
"S210215"	"Conflict_Resolution"	"RIGHT"	"RIGHT"	505.711000000019	1416.6666695	n/a	n/a	n/a	n/a	"True"	n/a	n/a	"2021-02-15 13:58:44.709679"	"2021-02-15 13:58:45.422626"	144	6.15933533333333
"S210215"	"Conflict_Resolution"	"LEFT"	"LEFT"	451.246300000093	850.0000017	n/a	n/a	n/a	n/a	"False"	n/a	n/a	"2021-02-15 13:58:46.291971"	"2021-02-15 13:58:46.951601"	145	6.15933533333333
"S210215"	"Conflict_Resolution"	"LEFT"	"LEFT"	716.822699999966	583.3333345	n/a	n/a	n/a	n/a	"True"	n/a	n/a	"2021-02-15 13:58:47.554644"	"2021-02-15 13:58:48.478402"	146	6.15933533333333
"S210215"	"Conflict_Resolution"	"LEFT"	"LEFT"	445.19060000016	1016.6666687	n/a	n/a	n/a	n/a	"False"	n/a	n/a	"2021-02-15 13:58:49.514597"	"2021-02-15 13:58:50.167509"	147	6.15933533333333
"S210215"	"Conflict_Resolution"	"RIGHT"	"RIGHT"	479.364400000122	933.3333352	n/a	n/a	n/a	n/a	"True"	n/a	n/a	"2021-02-15 13:58:51.120021"	"2021-02-15 13:58:51.806487"	148	6.15933533333333
"S210215"	"Conflict_Resolution"	"LEFT"	"LEFT"	460.856800000101	633.3333346	n/a	n/a	n/a	n/a	"False"	n/a	n/a	"2021-02-15 13:58:52.458333"	"2021-02-15 13:58:53.128055"	149	6.15933533333333
"S210215"	"Conflict_Resolution"	"RIGHT"	"RIGHT"	449.228799999901	1216.6666691	n/a	n/a	n/a	n/a	"False"	n/a	n/a	"2021-02-15 13:58:54.366129"	"2021-02-15 13:58:55.023839"	150	6.15933533333333
"S210215"	"Conflict_Resolution"	"LEFT"	"LEFT"	461.8246	566.6666678	n/a	n/a	n/a	n/a	"False"	n/a	n/a	"2021-02-15 13:58:55.609776"	"2021-02-15 13:58:56.278960"	151	6.15933533333333
"S210215"	"Conflict_Resolution"	"LEFT"	"LEFT"	475.500700000111	1050.0000021	n/a	n/a	n/a	n/a	"True"	n/a	n/a	"2021-02-15 13:58:57.347361"	"2021-02-15 13:58:58.031900"	152	6.15933533333333
"S210215"	"Conflict_Resolution"	"LEFT"	"LEFT"	417.720500000087	1066.6666688	n/a	n/a	n/a	n/a	"True"	n/a	n/a	"2021-02-15 13:58:59.118041"	"2021-02-15 13:58:59.742930"	153	6.15933533333333
"S210215"	"Conflict_Resolution"	"LEFT"	"LEFT"	521.444499999916	516.6666677	n/a	n/a	n/a	n/a	"False"	n/a	n/a	"2021-02-15 13:59:00.278018"	"2021-02-15 13:59:01.007814"	154	6.15933533333333
"S210215"	"Conflict_Resolution"	"RIGHT"	"RIGHT"	397.341900000129	1000.000002	n/a	n/a	n/a	n/a	"False"	n/a	n/a	"2021-02-15 13:59:02.026236"	"2021-02-15 13:59:02.630618"	155	6.15933533333333
"S210215"	"Conflict_Resolution"	"LEFT"	"LEFT"	499.025999999958	1266.6666692	n/a	n/a	n/a	n/a	"True"	n/a	n/a	"2021-02-15 13:59:03.915955"	"2021-02-15 13:59:04.623154"	156	6.15933533333333
"S210215"	"Conflict_Resolution"	"LEFT"	"LEFT"	450.381500000049	1300.0000026	n/a	n/a	n/a	n/a	"True"	n/a	n/a	"2021-02-15 13:59:05.940358"	"2021-02-15 13:59:06.601619"	157	6.15933533333333
"S210215"	"Conflict_Resolution"	"LEFT"	"LEFT"	382.220000000189	1316.6666693	n/a	n/a	n/a	n/a	"False"	n/a	n/a	"2021-02-15 13:59:07.937655"	"2021-02-15 13:59:08.527466"	158	6.15933533333333
"S210215"	"Conflict_Resolution"	"RIGHT"	"RIGHT"	607.564700000012	733.3333348	n/a	n/a	n/a	n/a	"True"	n/a	n/a	"2021-02-15 13:59:09.280004"	"2021-02-15 13:59:10.094784"	159	6.15933533333333
"S210215"	"Conflict_Resolution"	"LEFT"	"LEFT"	427.399599999944	1216.6666691	n/a	n/a	n/a	n/a	"False"	n/a	n/a	"2021-02-15 13:59:11.332018"	"2021-02-15 13:59:11.966617"	160	6.15933533333333
"S210215"	"Processing_Speed"	"LEFT"	"DOWN"	999.495499999995	883.3333351	n/a	n/a	n/a	n/a	n/a	n/a	n/a	"2021-02-15 13:42:47.312761"	"2021-02-15 13:42:48.539551"	1	1.94807228333333
"S210215"	"Processing_Speed"	"RIGHT"	"DOWN"	310.242599999995	1500.000003	n/a	n/a	n/a	n/a	n/a	n/a	n/a	"2021-02-15 13:42:50.050559"	"2021-02-15 13:42:50.569124"	2	1.94807228333333
"S210215"	"Processing_Speed"	"RIGHT"	"DOWN"	303.981999999991	783.3333349	n/a	n/a	n/a	n/a	n/a	n/a	n/a	"2021-02-15 13:42:51.361241"	"2021-02-15 13:42:51.875082"	3	1.94807228333333
"S210215"	"Processing_Speed"	"RIGHT"	"DOWN"	286.260600000006	1150.0000023	n/a	n/a	n/a	n/a	n/a	n/a	n/a	"2021-02-15 13:42:53.033988"	"2021-02-15 13:42:53.532068"	4	1.94807228333333
"S210215"	"Processing_Speed"	"LEFT"	"DOWN"	321.080200000011	633.3333346	n/a	n/a	n/a	n/a	n/a	n/a	n/a	"2021-02-15 13:42:54.175390"	"2021-02-15 13:42:54.706434"	5	1.94807228333333
"S210215"	"Processing_Speed"	"LEFT"	"DOWN"	281.135800000001	1216.6666691	n/a	n/a	n/a	n/a	n/a	n/a	n/a	"2021-02-15 13:42:55.935209"	"2021-02-15 13:42:56.424912"	6	1.94807228333333
"S210215"	"Processing_Speed"	"LEFT"	"DOWN"	353.314999999995	1266.6666692	n/a	n/a	n/a	n/a	n/a	n/a	n/a	"2021-02-15 13:42:57.702539"	"2021-02-15 13:42:58.269022"	7	1.94807228333333
"S210215"	"Processing_Speed"	"LEFT"	"DOWN"	323.473700000008	1500.000003	n/a	n/a	n/a	n/a	n/a	n/a	n/a	"2021-02-15 13:42:59.780588"	"2021-02-15 13:43:00.312630"	8	1.94807228333333
"S210215"	"Processing_Speed"	"RIGHT"	"DOWN"	288.606299999998	1333.333336	n/a	n/a	n/a	n/a	n/a	n/a	n/a	"2021-02-15 13:43:01.656014"	"2021-02-15 13:43:02.156348"	9	1.94807228333333
"S210215"	"Processing_Speed"	"RIGHT"	"DOWN"	435.721099999995	600.0000012	n/a	n/a	n/a	n/a	n/a	n/a	n/a	"2021-02-15 13:43:02.764691"	"2021-02-15 13:43:03.409059"	10	1.94807228333333
"S210215"	"Processing_Speed"	"RIGHT"	"DOWN"	282.209600000002	1116.6666689	n/a	n/a	n/a	n/a	n/a	n/a	n/a	"2021-02-15 13:43:04.533828"	"2021-02-15 13:43:05.023573"	11	1.94807228333333
"S210215"	"Processing_Speed"	"LEFT"	"DOWN"	323.521	700.0000014	n/a	n/a	n/a	n/a	n/a	n/a	n/a	"2021-02-15 13:43:05.733307"	"2021-02-15 13:43:06.264828"	12	1.94807228333333
"S210215"	"Processing_Speed"	"LEFT"	"DOWN"	312.01329999999	783.3333349	n/a	n/a	n/a	n/a	n/a	n/a	n/a	"2021-02-15 13:43:07.056813"	"2021-02-15 13:43:07.576020"	13	1.94807228333333
"S210215"	"Processing_Speed"	"RIGHT"	"DOWN"	255.983700000002	1183.3333357	n/a	n/a	n/a	n/a	n/a	n/a	n/a	"2021-02-15 13:43:08.768262"	"2021-02-15 13:43:09.233275"	14	1.94807228333333
"S210215"	"Processing_Speed"	"RIGHT"	"DOWN"	305.508500000002	733.3333348	n/a	n/a	n/a	n/a	n/a	n/a	n/a	"2021-02-15 13:43:09.974637"	"2021-02-15 13:43:10.489280"	15	1.94807228333333
"S210215"	"Processing_Speed"	"LEFT"	"DOWN"	296.301999999997	566.6666678	n/a	n/a	n/a	n/a	n/a	n/a	n/a	"2021-02-15 13:43:11.064383"	"2021-02-15 13:43:11.569054"	16	1.94807228333333
"S210215"	"Processing_Speed"	"RIGHT"	"DOWN"	276.002099999999	1266.6666692	n/a	n/a	n/a	n/a	n/a	n/a	n/a	"2021-02-15 13:43:12.844231"	"2021-02-15 13:43:13.328932"	17	1.94807228333333
"S210215"	"Processing_Speed"	"LEFT"	"DOWN"	400.721000000004	533.3333344	n/a	n/a	n/a	n/a	n/a	n/a	n/a	"2021-02-15 13:43:13.871481"	"2021-02-15 13:43:14.480938"	18	1.94807228333333
"S210215"	"Processing_Speed"	"RIGHT"	"DOWN"	239.375100000004	1366.6666694	n/a	n/a	n/a	n/a	n/a	n/a	n/a	"2021-02-15 13:43:15.857387"	"2021-02-15 13:43:16.304670"	19	1.94807228333333
"S210215"	"Processing_Speed"	"RIGHT"	"DOWN"	311.331100000004	1400.0000028	n/a	n/a	n/a	n/a	n/a	n/a	n/a	"2021-02-15 13:43:17.713132"	"2021-02-15 13:43:18.231708"	20	1.94807228333333
"S210215"	"Processing_Speed"	"RIGHT"	"DOWN"	410.327600000002	533.3333344	n/a	n/a	n/a	n/a	n/a	n/a	n/a	"2021-02-15 13:43:18.774770"	"2021-02-15 13:43:19.392169"	21	1.94807228333333
"S210215"	"Processing_Speed"	"LEFT"	"DOWN"	287.407900000005	600.0000012	n/a	n/a	n/a	n/a	n/a	n/a	n/a	"2021-02-15 13:43:20.000845"	"2021-02-15 13:43:20.497023"	22	1.94807228333333
"S210215"	"Processing_Speed"	"LEFT"	"DOWN"	317.972099999992	1400.0000028	n/a	n/a	n/a	n/a	n/a	n/a	n/a	"2021-02-15 13:43:21.906287"	"2021-02-15 13:43:22.432525"	23	1.94807228333333
"S210215"	"Processing_Speed"	"RIGHT"	"DOWN"	301.305600000006	1050.0000021	n/a	n/a	n/a	n/a	n/a	n/a	n/a	"2021-02-15 13:43:23.490664"	"2021-02-15 13:43:24.000087"	24	1.94807228333333
"S210215"	"Processing_Speed"	"LEFT"	"DOWN"	290.300500000001	733.3333348	n/a	n/a	n/a	n/a	n/a	n/a	n/a	"2021-02-15 13:43:24.742102"	"2021-02-15 13:43:25.241173"	25	1.94807228333333
"S210215"	"Processing_Speed"	"RIGHT"	"DOWN"	314.5904	500.000001	n/a	n/a	n/a	n/a	n/a	n/a	n/a	"2021-02-15 13:43:25.749869"	"2021-02-15 13:43:26.271473"	26	1.94807228333333
"S210215"	"Processing_Speed"	"RIGHT"	"DOWN"	306.602299999994	950.0000019	n/a	n/a	n/a	n/a	n/a	n/a	n/a	"2021-02-15 13:43:27.229999"	"2021-02-15 13:43:27.743584"	27	1.94807228333333
"S210215"	"Processing_Speed"	"LEFT"	"DOWN"	317.552500000005	850.0000017	n/a	n/a	n/a	n/a	n/a	n/a	n/a	"2021-02-15 13:43:28.602491"	"2021-02-15 13:43:29.128855"	28	1.94807228333333
"S210215"	"Processing_Speed"	"RIGHT"	"DOWN"	275.982299999995	1433.3333362	n/a	n/a	n/a	n/a	n/a	n/a	n/a	"2021-02-15 13:43:30.572338"	"2021-02-15 13:43:31.056988"	29	1.94807228333333
"S210215"	"Processing_Speed"	"RIGHT"	"DOWN"	299.473600000013	1083.3333355	n/a	n/a	n/a	n/a	n/a	n/a	n/a	"2021-02-15 13:43:32.149082"	"2021-02-15 13:43:32.655663"	30	1.94807228333333
"S210215"	"Processing_Speed"	"LEFT"	"DOWN"	225.759100000005	1366.6666694	n/a	n/a	n/a	n/a	n/a	n/a	n/a	"2021-02-15 13:43:34.030820"	"2021-02-15 13:43:34.463449"	31	1.94807228333333
"S210215"	"Processing_Speed"	"RIGHT"	"DOWN"	283.757200000011	916.6666685	n/a	n/a	n/a	n/a	n/a	n/a	n/a	"2021-02-15 13:43:35.389056"	"2021-02-15 13:43:35.880442"	32	1.94807228333333
"S210215"	"Processing_Speed"	"LEFT"	"DOWN"	306.633699999992	916.6666685	n/a	n/a	n/a	n/a	n/a	n/a	n/a	"2021-02-15 13:43:36.805521"	"2021-02-15 13:43:37.320399"	33	1.94807228333333
"S210215"	"Processing_Speed"	"RIGHT"	"DOWN"	262.972700000006	1216.6666691	n/a	n/a	n/a	n/a	n/a	n/a	n/a	"2021-02-15 13:43:38.545678"	"2021-02-15 13:43:39.016881"	34	1.94807228333333
"S210215"	"Processing_Speed"	"RIGHT"	"DOWN"	284.568300000018	1466.6666696	n/a	n/a	n/a	n/a	n/a	n/a	n/a	"2021-02-15 13:43:40.491964"	"2021-02-15 13:43:40.984690"	35	1.94807228333333
"S210215"	"Processing_Speed"	"RIGHT"	"DOWN"	340.598999999997	850.0000017	n/a	n/a	n/a	n/a	n/a	n/a	n/a	"2021-02-15 13:43:41.843442"	"2021-02-15 13:43:42.392445"	36	1.94807228333333
"S210215"	"Processing_Speed"	"LEFT"	"DOWN"	322.854500000005	1116.6666689	n/a	n/a	n/a	n/a	n/a	n/a	n/a	"2021-02-15 13:43:43.517538"	"2021-02-15 13:43:44.048540"	37	1.94807228333333
"S210215"	"Processing_Speed"	"LEFT"	"DOWN"	292.897199999999	1466.6666696	n/a	n/a	n/a	n/a	n/a	n/a	n/a	"2021-02-15 13:43:45.523687"	"2021-02-15 13:43:46.025193"	38	1.94807228333333
"S210215"	"Processing_Speed"	"RIGHT"	"DOWN"	337.805599999996	1300.0000026	n/a	n/a	n/a	n/a	n/a	n/a	n/a	"2021-02-15 13:43:47.334811"	"2021-02-15 13:43:47.879588"	39	1.94807228333333
"S210215"	"Processing_Speed"	"LEFT"	"DOWN"	266.986800000012	1300.0000026	n/a	n/a	n/a	n/a	n/a	n/a	n/a	"2021-02-15 13:43:49.189041"	"2021-02-15 13:43:49.663760"	40	1.94807228333333
"S210215"	"Processing_Speed"	"LEFT"	"DOWN"	310.099699999995	1433.3333362	n/a	n/a	n/a	n/a	n/a	n/a	n/a	"2021-02-15 13:43:51.106669"	"2021-02-15 13:43:51.625224"	41	1.94807228333333
"S210215"	"Processing_Speed"	"LEFT"	"DOWN"	327.198199999998	983.3333353	n/a	n/a	n/a	n/a	n/a	n/a	n/a	"2021-02-15 13:43:52.616655"	"2021-02-15 13:43:53.151721"	42	1.94807228333333
"S210215"	"Processing_Speed"	"LEFT"	"DOWN"	328.584799999987	1183.3333357	n/a	n/a	n/a	n/a	n/a	n/a	n/a	"2021-02-15 13:43:54.343497"	"2021-02-15 13:43:54.881059"	43	1.94807228333333
"S210215"	"Processing_Speed"	"LEFT"	"DOWN"	320.30850000001	950.0000019	n/a	n/a	n/a	n/a	n/a	n/a	n/a	"2021-02-15 13:43:55.840073"	"2021-02-15 13:43:56.368603"	44	1.94807228333333
"S210215"	"Processing_Speed"	"LEFT"	"DOWN"	374.392199999988	816.6666683	n/a	n/a	n/a	n/a	n/a	n/a	n/a	"2021-02-15 13:43:57.193901"	"2021-02-15 13:43:57.776979"	45	1.94807228333333
"S210215"	"Processing_Speed"	"LEFT"	"DOWN"	257.513999999986	1333.333336	n/a	n/a	n/a	n/a	n/a	n/a	n/a	"2021-02-15 13:43:59.118797"	"2021-02-15 13:43:59.584108"	46	1.94807228333333
"S210215"	"Processing_Speed"	"RIGHT"	"DOWN"	332.526300000012	883.3333351	n/a	n/a	n/a	n/a	n/a	n/a	n/a	"2021-02-15 13:44:00.475477"	"2021-02-15 13:44:01.016558"	47	1.94807228333333
"S210215"	"Processing_Speed"	"LEFT"	"DOWN"	394.589499999995	500.000001	n/a	n/a	n/a	n/a	n/a	n/a	n/a	"2021-02-15 13:44:01.525659"	"2021-02-15 13:44:02.129045"	48	1.94807228333333
"S210215"	"Processing_Speed"	"LEFT"	"DOWN"	275.298499999991	1083.3333355	n/a	n/a	n/a	n/a	n/a	n/a	n/a	"2021-02-15 13:44:03.221340"	"2021-02-15 13:44:03.705074"	49	1.94807228333333
"S210215"	"Processing_Speed"	"RIGHT"	"DOWN"	354.844799999995	700.0000014	n/a	n/a	n/a	n/a	n/a	n/a	n/a	"2021-02-15 13:44:04.413275"	"2021-02-15 13:44:04.975898"	50	1.94807228333333
"S210215"	"Processing_Speed"	"RIGHT"	"DOWN"	336.528999999985	566.6666678	n/a	n/a	n/a	n/a	n/a	n/a	n/a	"2021-02-15 13:44:05.551932"	"2021-02-15 13:44:06.097239"	51	1.94807228333333
"S210215"	"Processing_Speed"	"LEFT"	"DOWN"	293.325699999997	1016.6666687	n/a	n/a	n/a	n/a	n/a	n/a	n/a	"2021-02-15 13:44:07.122693"	"2021-02-15 13:44:07.624351"	52	1.94807228333333
"S210215"	"Processing_Speed"	"LEFT"	"DOWN"	277.58799999998	1050.0000021	n/a	n/a	n/a	n/a	n/a	n/a	n/a	"2021-02-15 13:44:08.682750"	"2021-02-15 13:44:09.167488"	53	1.94807228333333
"S210215"	"Processing_Speed"	"RIGHT"	"DOWN"	287.013600000023	633.3333346	n/a	n/a	n/a	n/a	n/a	n/a	n/a	"2021-02-15 13:44:09.808825"	"2021-02-15 13:44:10.303618"	54	1.94807228333333
"S210215"	"Processing_Speed"	"LEFT"	"DOWN"	293.396399999978	666.666668	n/a	n/a	n/a	n/a	n/a	n/a	n/a	"2021-02-15 13:44:10.978814"	"2021-02-15 13:44:11.480110"	55	1.94807228333333
"S210215"	"Processing_Speed"	"RIGHT"	"DOWN"	304.46649999999	983.3333353	n/a	n/a	n/a	n/a	n/a	n/a	n/a	"2021-02-15 13:44:12.472204"	"2021-02-15 13:44:12.985152"	56	1.94807228333333
"S210215"	"Processing_Speed"	"LEFT"	"DOWN"	272.59380000001	1150.0000023	n/a	n/a	n/a	n/a	n/a	n/a	n/a	"2021-02-15 13:44:14.143377"	"2021-02-15 13:44:14.623385"	57	1.94807228333333
"S210215"	"Processing_Speed"	"RIGHT"	"DOWN"	287.574899999981	816.6666683	n/a	n/a	n/a	n/a	n/a	n/a	n/a	"2021-02-15 13:44:15.448732"	"2021-02-15 13:44:15.943642"	58	1.94807228333333
"S210215"	"Processing_Speed"	"RIGHT"	"DOWN"	292.879700000015	666.666668	n/a	n/a	n/a	n/a	n/a	n/a	n/a	"2021-02-15 13:44:16.620167"	"2021-02-15 13:44:17.120489"	59	1.94807228333333
"S210215"	"Processing_Speed"	"RIGHT"	"DOWN"	318.222399999996	1016.6666687	n/a	n/a	n/a	n/a	n/a	n/a	n/a	"2021-02-15 13:44:18.146005"	"2021-02-15 13:44:18.671896"	60	1.94807228333333
"S210215"	"Response_Inhibition"	"LEFT"	"LEFT"	300.511400000005	1466.6666696	n/a	n/a	n/a	n/a	n/a	n/a	n/a	"2021-02-15 13:47:35.795435"	"2021-02-15 13:47:36.304115"	1	6.02486856666667
"S210215"	"Response_Inhibition"	"RIGHT"	"RIGHT"	435.445399999992	1100.0000022	n/a	n/a	n/a	n/a	n/a	n/a	n/a	"2021-02-15 13:47:37.412342"	"2021-02-15 13:47:38.056437"	2	6.02486856666667
"S210215"	"Response_Inhibition"	"LEFT"	"Time_Max_Exceeded"	1500.06113349999	733.3333348	n/a	n/a	n/a	n/a	n/a	n/a	n/a	"2021-02-15 13:47:38.798850"	"2021-02-15 13:47:40.301374"	3	6.02486856666667
"S210215"	"Response_Inhibition"	"LEFT"	"Time_Max_Exceeded"	1500.05050009997	883.3333351	n/a	n/a	n/a	n/a	n/a	n/a	n/a	"2021-02-15 13:47:41.195525"	"2021-02-15 13:47:42.698519"	4	6.02486856666667
"S210215"	"Response_Inhibition"	"LEFT"	"LEFT"	618.835199999978	1433.3333362	n/a	n/a	n/a	n/a	n/a	n/a	n/a	"2021-02-15 13:47:44.141242"	"2021-02-15 13:47:44.968365"	5	6.02486856666667
"S210215"	"Response_Inhibition"	"LEFT"	"LEFT"	510.604199999989	800.0000016	n/a	n/a	n/a	n/a	n/a	n/a	n/a	"2021-02-15 13:47:45.777613"	"2021-02-15 13:47:46.495369"	6	6.02486856666667
"S210215"	"Response_Inhibition"	"RIGHT"	"RIGHT"	437.055000500043	1000.000002	n/a	n/a	n/a	n/a	n/a	n/a	n/a	"2021-02-15 13:47:47.503690"	"2021-02-15 13:47:48.152953"	7	6.02486856666667
"S210215"	"Response_Inhibition"	"LEFT"	"LEFT"	587.485500000014	1066.6666688	n/a	n/a	n/a	n/a	n/a	n/a	n/a	"2021-02-15 13:47:49.228868"	"2021-02-15 13:47:50.023418"	8	6.02486856666667
"S210215"	"Response_Inhibition"	"RIGHT"	"RIGHT"	436.101767099998	1416.6666695	n/a	n/a	n/a	n/a	n/a	n/a	n/a	"2021-02-15 13:47:51.448239"	"2021-02-15 13:47:52.096857"	9	6.02486856666667
"S210215"	"Response_Inhibition"	"RIGHT"	"RIGHT"	768.681399999991	1150.0000023	n/a	n/a	n/a	n/a	n/a	n/a	n/a	"2021-02-15 13:47:53.255434"	"2021-02-15 13:47:54.231786"	10	6.02486856666667
"S210215"	"Response_Inhibition"	"LEFT"	"Time_Max_Exceeded"	1500.07400009997	533.3333344	n/a	n/a	n/a	n/a	n/a	n/a	n/a	"2021-02-15 13:47:54.773946"	"2021-02-15 13:47:56.277509"	11	6.02486856666667
"S210215"	"Response_Inhibition"	"LEFT"	"LEFT"	585.616600000037	1416.6666695	n/a	n/a	n/a	n/a	n/a	n/a	n/a	"2021-02-15 13:47:57.702658"	"2021-02-15 13:47:58.495486"	12	6.02486856666667
"S210215"	"Response_Inhibition"	"LEFT"	"LEFT"	760.811400000023	783.3333349	n/a	n/a	n/a	n/a	n/a	n/a	n/a	"2021-02-15 13:47:59.287403"	"2021-02-15 13:48:00.256186"	13	6.02486856666667
"S210215"	"Response_Inhibition"	"RIGHT"	"Time_Max_Exceeded"	1500.08133400004	1100.0000022	n/a	n/a	n/a	n/a	n/a	n/a	n/a	"2021-02-15 13:48:01.364851"	"2021-02-15 13:48:02.868061"	14	6.02486856666667
"S210215"	"Response_Inhibition"	"LEFT"	"Time_Max_Exceeded"	1500.05563359999	783.3333349	n/a	n/a	n/a	n/a	n/a	n/a	n/a	"2021-02-15 13:48:03.660995"	"2021-02-15 13:48:05.164246"	15	6.02486856666667
"S210215"	"Response_Inhibition"	"LEFT"	"LEFT"	824.612500000001	850.0000017	n/a	n/a	n/a	n/a	n/a	n/a	n/a	"2021-02-15 13:48:06.022998"	"2021-02-15 13:48:07.056132"	16	6.02486856666667
"S210215"	"Response_Inhibition"	"RIGHT"	"Time_Max_Exceeded"	1500.0569336	683.3333347	n/a	n/a	n/a	n/a	n/a	n/a	n/a	"2021-02-15 13:48:07.747933"	"2021-02-15 13:48:09.252096"	17	6.02486856666667
"S210215"	"Response_Inhibition"	"RIGHT"	"RIGHT"	696.382699999958	1266.6666692	n/a	n/a	n/a	n/a	n/a	n/a	n/a	"2021-02-15 13:48:10.527612"	"2021-02-15 13:48:11.431679"	18	6.02486856666667
"S210215"	"Response_Inhibition"	"RIGHT"	"RIGHT"	758.560299999999	1433.3333362	n/a	n/a	n/a	n/a	n/a	n/a	n/a	"2021-02-15 13:48:12.873325"	"2021-02-15 13:48:13.841062"	19	6.02486856666667
"S210215"	"Response_Inhibition"	"RIGHT"	"RIGHT"	645.575800000017	1216.6666691	n/a	n/a	n/a	n/a	n/a	n/a	n/a	"2021-02-15 13:48:15.066490"	"2021-02-15 13:48:15.920200"	20	6.02486856666667
"S210215"	"Response_Inhibition"	"RIGHT"	"Time_Max_Exceeded"	1500.05256730002	516.6666677	n/a	n/a	n/a	n/a	n/a	n/a	n/a	"2021-02-15 13:48:16.445408"	"2021-02-15 13:48:17.949243"	21	6.02486856666667
"S210215"	"Response_Inhibition"	"RIGHT"	"Time_Max_Exceeded"	1500.0515339	1316.6666693	n/a	n/a	n/a	n/a	n/a	n/a	n/a	"2021-02-15 13:48:19.274888"	"2021-02-15 13:48:20.778245"	22	6.02486856666667
"S210215"	"Response_Inhibition"	"RIGHT"	"RIGHT"	782.933500000013	533.3333344	n/a	n/a	n/a	n/a	n/a	n/a	n/a	"2021-02-15 13:48:21.321206"	"2021-02-15 13:48:22.311907"	23	6.02486856666667
"S210215"	"Response_Inhibition"	"RIGHT"	"RIGHT"	853.486199999963	850.0000017	n/a	n/a	n/a	n/a	n/a	n/a	n/a	"2021-02-15 13:48:23.170856"	"2021-02-15 13:48:24.233277"	24	6.02486856666667
"S210215"	"Response_Inhibition"	"LEFT"	"LEFT"	760.084099999972	1150.0000023	n/a	n/a	n/a	n/a	n/a	n/a	n/a	"2021-02-15 13:48:25.391711"	"2021-02-15 13:48:26.359488"	25	6.02486856666667
"S210215"	"Response_Inhibition"	"LEFT"	"Time_Max_Exceeded"	1500.06383360002	1183.3333357	n/a	n/a	n/a	n/a	n/a	n/a	n/a	"2021-02-15 13:48:27.551506"	"2021-02-15 13:48:29.054501"	26	6.02486856666667
"S210215"	"Response_Inhibition"	"RIGHT"	"RIGHT"	616.370099999983	583.3333345	n/a	n/a	n/a	n/a	n/a	n/a	n/a	"2021-02-15 13:48:29.647948"	"2021-02-15 13:48:30.472315"	27	6.02486856666667
"S210215"	"Response_Inhibition"	"RIGHT"	"Time_Max_Exceeded"	1500.0490004	1033.3333354	n/a	n/a	n/a	n/a	n/a	n/a	n/a	"2021-02-15 13:48:31.514104"	"2021-02-15 13:48:33.016881"	28	6.02486856666667
"S210215"	"Response_Inhibition"	"RIGHT"	"RIGHT"	677.780799999994	783.3333349	n/a	n/a	n/a	n/a	n/a	n/a	n/a	"2021-02-15 13:48:33.810174"	"2021-02-15 13:48:34.696336"	29	6.02486856666667
"S210215"	"Response_Inhibition"	"LEFT"	"LEFT"	738.594199999966	633.3333346	n/a	n/a	n/a	n/a	n/a	n/a	n/a	"2021-02-15 13:48:35.341687"	"2021-02-15 13:48:36.289765"	30	6.02486856666667
"S210215"	"Response_Inhibition"	"RIGHT"	"RIGHT"	444.779400000016	833.333335	n/a	n/a	n/a	n/a	n/a	n/a	n/a	"2021-02-15 13:48:37.131184"	"2021-02-15 13:48:37.784436"	31	6.02486856666667
"S210215"	"Response_Inhibition"	"LEFT"	"LEFT"	628.215600000033	600.0000012	n/a	n/a	n/a	n/a	n/a	n/a	n/a	"2021-02-15 13:48:38.395874"	"2021-02-15 13:48:39.230719"	32	6.02486856666667
"S210215"	"Response_Inhibition"	"LEFT"	"LEFT"	627.099100000009	950.0000019	n/a	n/a	n/a	n/a	n/a	n/a	n/a	"2021-02-15 13:48:40.188722"	"2021-02-15 13:48:41.023494"	33	6.02486856666667
"S210215"	"Response_Inhibition"	"LEFT"	"Time_Max_Exceeded"	1500.06846699999	1450.0000029	n/a	n/a	n/a	n/a	n/a	n/a	n/a	"2021-02-15 13:48:42.482882"	"2021-02-15 13:48:43.986679"	34	6.02486856666667
"S210215"	"Response_Inhibition"	"RIGHT"	"Time_Max_Exceeded"	1500.06143380002	933.3333352	n/a	n/a	n/a	n/a	n/a	n/a	n/a	"2021-02-15 13:48:44.931213"	"2021-02-15 13:48:46.433957"	35	6.02486856666667
"S210215"	"Response_Inhibition"	"RIGHT"	"RIGHT"	619.059399999969	1000.000002	n/a	n/a	n/a	n/a	n/a	n/a	n/a	"2021-02-15 13:48:47.445348"	"2021-02-15 13:48:48.272308"	36	6.02486856666667
"S210215"	"Response_Inhibition"	"RIGHT"	"Time_Max_Exceeded"	1500.18496670001	616.6666679	n/a	n/a	n/a	n/a	n/a	n/a	n/a	"2021-02-15 13:48:48.898661"	"2021-02-15 13:48:50.402234"	37	6.02486856666667
"S210215"	"Response_Inhibition"	"LEFT"	"Time_Max_Exceeded"	1500.07880060003	1300.0000026	n/a	n/a	n/a	n/a	n/a	n/a	n/a	"2021-02-15 13:48:51.712748"	"2021-02-15 13:48:53.215780"	38	6.02486856666667
"S210215"	"Response_Inhibition"	"RIGHT"	"RIGHT"	801.97290000001	500.000001	n/a	n/a	n/a	n/a	n/a	n/a	n/a	"2021-02-15 13:48:53.726568"	"2021-02-15 13:48:54.735823"	39	6.02486856666667
"S210215"	"Response_Inhibition"	"LEFT"	"LEFT"	647.799899999995	1333.333336	n/a	n/a	n/a	n/a	n/a	n/a	n/a	"2021-02-15 13:48:56.080473"	"2021-02-15 13:48:56.936695"	40	6.02486856666667
"S210215"	"Response_Inhibition"	"RIGHT"	"Time_Max_Exceeded"	1500.07063350002	566.6666678	n/a	n/a	n/a	n/a	n/a	n/a	n/a	"2021-02-15 13:48:57.515310"	"2021-02-15 13:48:59.018626"	41	6.02486856666667
"S210215"	"Response_Inhibition"	"RIGHT"	"RIGHT"	611.445899999978	733.3333348	n/a	n/a	n/a	n/a	n/a	n/a	n/a	"2021-02-15 13:48:59.764570"	"2021-02-15 13:49:00.584443"	42	6.02486856666667
"S210215"	"Response_Inhibition"	"LEFT"	"LEFT"	708.917799999995	1216.6666691	n/a	n/a	n/a	n/a	n/a	n/a	n/a	"2021-02-15 13:49:01.810604"	"2021-02-15 13:49:02.727691"	43	6.02486856666667
"S210215"	"Response_Inhibition"	"LEFT"	"LEFT"	675.958700000024	1266.6666692	n/a	n/a	n/a	n/a	n/a	n/a	n/a	"2021-02-15 13:49:04.003897"	"2021-02-15 13:49:04.888043"	44	6.02486856666667
"S210215"	"Response_Inhibition"	"LEFT"	"LEFT"	645.214599999974	1250.0000025	n/a	n/a	n/a	n/a	n/a	n/a	n/a	"2021-02-15 13:49:06.146764"	"2021-02-15 13:49:06.999771"	45	6.02486856666667
"S210215"	"Response_Inhibition"	"LEFT"	"LEFT"	636.917199999971	1050.0000021	n/a	n/a	n/a	n/a	n/a	n/a	n/a	"2021-02-15 13:49:08.058941"	"2021-02-15 13:49:08.903599"	46	6.02486856666667
"S210215"	"Response_Inhibition"	"LEFT"	"LEFT"	450.600400399996	1216.6666691	n/a	n/a	n/a	n/a	n/a	n/a	n/a	"2021-02-15 13:49:10.129888"	"2021-02-15 13:49:10.792222"	47	6.02486856666667
"S210215"	"Response_Inhibition"	"RIGHT"	"RIGHT"	709.401000000014	816.6666683	n/a	n/a	n/a	n/a	n/a	n/a	n/a	"2021-02-15 13:49:11.618052"	"2021-02-15 13:49:12.535652"	48	6.02486856666667
"S210215"	"Response_Inhibition"	"RIGHT"	"RIGHT"	651.454700000045	1116.6666689	n/a	n/a	n/a	n/a	n/a	n/a	n/a	"2021-02-15 13:49:13.660874"	"2021-02-15 13:49:14.522282"	49	6.02486856666667
"S210215"	"Response_Inhibition"	"RIGHT"	"Time_Max_Exceeded"	1500.06290059998	1200.0000024	n/a	n/a	n/a	n/a	n/a	n/a	n/a	"2021-02-15 13:49:15.732796"	"2021-02-15 13:49:17.235890"	50	6.02486856666667
"S210215"	"Response_Inhibition"	"RIGHT"	"Time_Max_Exceeded"	1500.0735334	733.3333348	n/a	n/a	n/a	n/a	n/a	n/a	n/a	"2021-02-15 13:49:17.979129"	"2021-02-15 13:49:19.482623"	51	6.02486856666667
"S210215"	"Response_Inhibition"	"LEFT"	"LEFT"	734.105700000043	1100.0000022	n/a	n/a	n/a	n/a	n/a	n/a	n/a	"2021-02-15 13:49:20.594187"	"2021-02-15 13:49:21.537364"	52	6.02486856666667
"S210215"	"Response_Inhibition"	"LEFT"	"LEFT"	719.718999999998	900.0000018	n/a	n/a	n/a	n/a	n/a	n/a	n/a	"2021-02-15 13:49:22.448081"	"2021-02-15 13:49:23.376218"	53	6.02486856666667
"S210215"	"Response_Inhibition"	"RIGHT"	"RIGHT"	709.070499999996	1050.0000021	n/a	n/a	n/a	n/a	n/a	n/a	n/a	"2021-02-15 13:49:24.434975"	"2021-02-15 13:49:25.352601"	54	6.02486856666667
"S210215"	"Response_Inhibition"	"RIGHT"	"Time_Max_Exceeded"	1500.0539672	1400.0000028	n/a	n/a	n/a	n/a	n/a	n/a	n/a	"2021-02-15 13:49:26.762056"	"2021-02-15 13:49:28.265060"	55	6.02486856666667
"S210215"	"Response_Inhibition"	"RIGHT"	"Time_Max_Exceeded"	1500.05910020002	766.6666682	n/a	n/a	n/a	n/a	n/a	n/a	n/a	"2021-02-15 13:49:29.041551"	"2021-02-15 13:49:30.544772"	56	6.02486856666667
"S210215"	"Response_Inhibition"	"LEFT"	"Time_Max_Exceeded"	1500.06433379999	583.3333345	n/a	n/a	n/a	n/a	n/a	n/a	n/a	"2021-02-15 13:49:31.138304"	"2021-02-15 13:49:32.642028"	57	6.02486856666667
"S210215"	"Response_Inhibition"	"LEFT"	"LEFT"	785.43860000002	850.0000017	n/a	n/a	n/a	n/a	n/a	n/a	n/a	"2021-02-15 13:49:33.502103"	"2021-02-15 13:49:34.495455"	58	6.02486856666667
"S210215"	"Response_Inhibition"	"LEFT"	"LEFT"	625.46610000004	733.3333348	n/a	n/a	n/a	n/a	n/a	n/a	n/a	"2021-02-15 13:49:35.237989"	"2021-02-15 13:49:36.071837"	59	6.02486856666667
"S210215"	"Response_Inhibition"	"LEFT"	"LEFT"	743.579000000011	516.6666677	n/a	n/a	n/a	n/a	n/a	n/a	n/a	"2021-02-15 13:49:36.600483"	"2021-02-15 13:49:37.552888"	60	6.02486856666667
"S210215"	"Response_Inhibition"	"LEFT"	"Time_Max_Exceeded"	1500.05833400004	833.333335	n/a	n/a	n/a	n/a	n/a	n/a	n/a	"2021-02-15 13:49:38.395053"	"2021-02-15 13:49:39.898360"	61	6.02486856666667
"S210215"	"Response_Inhibition"	"RIGHT"	"RIGHT"	680.637200000035	700.0000014	n/a	n/a	n/a	n/a	n/a	n/a	n/a	"2021-02-15 13:49:40.607480"	"2021-02-15 13:49:41.496004"	62	6.02486856666667
"S210215"	"Response_Inhibition"	"LEFT"	"LEFT"	701.814800000022	1016.6666687	n/a	n/a	n/a	n/a	n/a	n/a	n/a	"2021-02-15 13:49:42.522407"	"2021-02-15 13:49:43.432857"	63	6.02486856666667
"S210215"	"Response_Inhibition"	"LEFT"	"LEFT"	794.953499999963	1483.3333363	n/a	n/a	n/a	n/a	n/a	n/a	n/a	"2021-02-15 13:49:44.925544"	"2021-02-15 13:49:45.928093"	64	6.02486856666667
"S210215"	"Response_Inhibition"	"RIGHT"	"RIGHT"	593.209600000023	1050.0000021	n/a	n/a	n/a	n/a	n/a	n/a	n/a	"2021-02-15 13:49:46.991074"	"2021-02-15 13:49:47.791808"	65	6.02486856666667
"S210215"	"Response_Inhibition"	"LEFT"	"LEFT"	820.468499999947	666.666668	n/a	n/a	n/a	n/a	n/a	n/a	n/a	"2021-02-15 13:49:48.467529"	"2021-02-15 13:49:49.495875"	66	6.02486856666667
"S210215"	"Response_Inhibition"	"LEFT"	"LEFT"	635.668100000032	900.0000018	n/a	n/a	n/a	n/a	n/a	n/a	n/a	"2021-02-15 13:49:50.404437"	"2021-02-15 13:49:51.247712"	67	6.02486856666667
"S210215"	"Response_Inhibition"	"LEFT"	"Time_Max_Exceeded"	1500.05810019997	916.6666685	n/a	n/a	n/a	n/a	n/a	n/a	n/a	"2021-02-15 13:49:52.174326"	"2021-02-15 13:49:53.677702"	68	6.02486856666667
"S210215"	"Response_Inhibition"	"LEFT"	"LEFT"	615.789500000005	950.0000019	n/a	n/a	n/a	n/a	n/a	n/a	n/a	"2021-02-15 13:49:54.640259"	"2021-02-15 13:49:55.464093"	69	6.02486856666667
"S210215"	"Response_Inhibition"	"RIGHT"	"RIGHT"	831.053899999972	950.0000019	n/a	n/a	n/a	n/a	n/a	n/a	n/a	"2021-02-15 13:49:56.424487"	"2021-02-15 13:49:57.466183"	70	6.02486856666667
"S210215"	"Response_Inhibition"	"LEFT"	"LEFT"	556.482500000016	1383.3333361	n/a	n/a	n/a	n/a	n/a	n/a	n/a	"2021-02-15 13:49:58.859496"	"2021-02-15 13:49:59.625056"	71	6.02486856666667
"S210215"	"Response_Inhibition"	"LEFT"	"LEFT"	701.791400000047	1000.000002	n/a	n/a	n/a	n/a	n/a	n/a	n/a	"2021-02-15 13:50:00.633573"	"2021-02-15 13:50:01.543818"	72	6.02486856666667
"S210215"	"Response_Inhibition"	"RIGHT"	"RIGHT"	579.625700000065	1466.6666696	n/a	n/a	n/a	n/a	n/a	n/a	n/a	"2021-02-15 13:50:03.019884"	"2021-02-15 13:50:03.807771"	73	6.02486856666667
"S210215"	"Response_Inhibition"	"LEFT"	"LEFT"	546.891000000073	1466.6666696	n/a	n/a	n/a	n/a	n/a	n/a	n/a	"2021-02-15 13:50:05.285282"	"2021-02-15 13:50:06.039629"	74	6.02486856666667
"S210215"	"Response_Inhibition"	"RIGHT"	"RIGHT"	571.120999999948	916.6666685	n/a	n/a	n/a	n/a	n/a	n/a	n/a	"2021-02-15 13:50:06.964670"	"2021-02-15 13:50:07.743472"	75	6.02486856666667
"S210215"	"Response_Inhibition"	"RIGHT"	"RIGHT"	691.644999999994	900.0000018	n/a	n/a	n/a	n/a	n/a	n/a	n/a	"2021-02-15 13:50:08.652425"	"2021-02-15 13:50:09.553016"	76	6.02486856666667
"S210215"	"Response_Inhibition"	"RIGHT"	"RIGHT"	570.112999999992	1083.3333355	n/a	n/a	n/a	n/a	n/a	n/a	n/a	"2021-02-15 13:50:10.646168"	"2021-02-15 13:50:11.422707"	77	6.02486856666667
"S210215"	"Response_Inhibition"	"RIGHT"	"RIGHT"	601.886199999967	1366.6666694	n/a	n/a	n/a	n/a	n/a	n/a	n/a	"2021-02-15 13:50:12.798240"	"2021-02-15 13:50:13.607923"	78	6.02486856666667
"S210215"	"Response_Inhibition"	"LEFT"	"LEFT"	601.253399999905	1350.0000027	n/a	n/a	n/a	n/a	n/a	n/a	n/a	"2021-02-15 13:50:14.966284"	"2021-02-15 13:50:15.775860"	79	6.02486856666667
"S210215"	"Response_Inhibition"	"LEFT"	"LEFT"	487.437	1400.0000028	n/a	n/a	n/a	n/a	n/a	n/a	n/a	"2021-02-15 13:50:17.184573"	"2021-02-15 13:50:17.880773"	80	6.02486856666667
"S210215"	"Response_Inhibition"	"LEFT"	"Time_Max_Exceeded"	1500.05546729999	700.0000014	n/a	n/a	n/a	n/a	n/a	n/a	n/a	"2021-02-15 13:50:18.588927"	"2021-02-15 13:50:20.092701"	81	6.02486856666667
"S210215"	"Response_Inhibition"	"RIGHT"	"RIGHT"	484.593800000084	1133.3333356	n/a	n/a	n/a	n/a	n/a	n/a	n/a	"2021-02-15 13:50:21.235707"	"2021-02-15 13:50:21.929079"	82	6.02486856666667
"S210215"	"Response_Inhibition"	"LEFT"	"LEFT"	605.348499999991	966.6666686	n/a	n/a	n/a	n/a	n/a	n/a	n/a	"2021-02-15 13:50:22.906035"	"2021-02-15 13:50:23.720177"	83	6.02486856666667
"S210215"	"Response_Inhibition"	"LEFT"	"Time_Max_Exceeded"	1500.05266700002	1050.0000021	n/a	n/a	n/a	n/a	n/a	n/a	n/a	"2021-02-15 13:50:24.779512"	"2021-02-15 13:50:26.282990"	84	6.02486856666667
"S210215"	"Response_Inhibition"	"LEFT"	"LEFT"	629.827599999999	550.0000011	n/a	n/a	n/a	n/a	n/a	n/a	n/a	"2021-02-15 13:50:26.842501"	"2021-02-15 13:50:27.679733"	85	6.02486856666667
"S210215"	"Response_Inhibition"	"RIGHT"	"RIGHT"	612.454999999954	883.3333351	n/a	n/a	n/a	n/a	n/a	n/a	n/a	"2021-02-15 13:50:28.571930"	"2021-02-15 13:50:29.392713"	86	6.02486856666667
"S210215"	"Response_Inhibition"	"LEFT"	"Time_Max_Exceeded"	1500.05413340008	1366.6666694	n/a	n/a	n/a	n/a	n/a	n/a	n/a	"2021-02-15 13:50:30.767991"	"2021-02-15 13:50:32.270849"	87	6.02486856666667
"S210215"	"Response_Inhibition"	"RIGHT"	"RIGHT"	644.171899999947	1316.6666693	n/a	n/a	n/a	n/a	n/a	n/a	n/a	"2021-02-15 13:50:33.596952"	"2021-02-15 13:50:34.448577"	88	6.02486856666667
"S210215"	"Response_Inhibition"	"LEFT"	"LEFT"	576.329999999984	1133.3333356	n/a	n/a	n/a	n/a	n/a	n/a	n/a	"2021-02-15 13:50:35.591418"	"2021-02-15 13:50:36.375412"	89	6.02486856666667
"S210215"	"Response_Inhibition"	"LEFT"	"LEFT"	734.939600000075	566.6666678	n/a	n/a	n/a	n/a	n/a	n/a	n/a	"2021-02-15 13:50:36.953871"	"2021-02-15 13:50:37.900650"	90	6.02486856666667
"S210215"	"Response_Inhibition"	"RIGHT"	"RIGHT"	459.216900000001	1216.6666691	n/a	n/a	n/a	n/a	n/a	n/a	n/a	"2021-02-15 13:50:39.125498"	"2021-02-15 13:50:39.793776"	91	6.02486856666667
"S210215"	"Response_Inhibition"	"RIGHT"	"RIGHT"	519.154599999979	1350.0000027	n/a	n/a	n/a	n/a	n/a	n/a	n/a	"2021-02-15 13:50:41.152727"	"2021-02-15 13:50:41.880375"	92	6.02486856666667
"S210215"	"Response_Inhibition"	"LEFT"	"LEFT"	854.000100000007	1200.0000024	n/a	n/a	n/a	n/a	n/a	n/a	n/a	"2021-02-15 13:50:43.089951"	"2021-02-15 13:50:44.151624"	93	6.02486856666667
"S210215"	"Response_Inhibition"	"RIGHT"	"RIGHT"	512.952699999914	750.0000015	n/a	n/a	n/a	n/a	n/a	n/a	n/a	"2021-02-15 13:50:44.911152"	"2021-02-15 13:50:45.632310"	94	6.02486856666667
"S210215"	"Response_Inhibition"	"RIGHT"	"RIGHT"	451.77990000002	1450.0000029	n/a	n/a	n/a	n/a	n/a	n/a	n/a	"2021-02-15 13:50:47.091926"	"2021-02-15 13:50:47.753194"	95	6.02486856666667
"S210215"	"Response_Inhibition"	"RIGHT"	"RIGHT"	434.351900000024	866.6666684	n/a	n/a	n/a	n/a	n/a	n/a	n/a	"2021-02-15 13:50:48.629708"	"2021-02-15 13:50:49.274034"	96	6.02486856666667
"S210215"	"Response_Inhibition"	"RIGHT"	"Time_Max_Exceeded"	1500.0685005	850.0000017	n/a	n/a	n/a	n/a	n/a	n/a	n/a	"2021-02-15 13:50:50.135505"	"2021-02-15 13:50:51.640033"	97	6.02486856666667
"S210215"	"Response_Inhibition"	"LEFT"	"Time_Max_Exceeded"	1500.09663370005	1100.0000022	n/a	n/a	n/a	n/a	n/a	n/a	n/a	"2021-02-15 13:50:52.751270"	"2021-02-15 13:50:54.256252"	98	6.02486856666667
"S210215"	"Response_Inhibition"	"RIGHT"	"RIGHT"	734.527200000002	950.0000019	n/a	n/a	n/a	n/a	n/a	n/a	n/a	"2021-02-15 13:50:55.217195"	"2021-02-15 13:50:56.164320"	99	6.02486856666667
"S210215"	"Response_Inhibition"	"RIGHT"	"RIGHT"	756.620999999996	533.3333344	n/a	n/a	n/a	n/a	n/a	n/a	n/a	"2021-02-15 13:50:56.706873"	"2021-02-15 13:50:57.671947"	100	6.02486856666667
"S210215"	"Response_Inhibition"	"LEFT"	"Time_Max_Exceeded"	1500.06099999996	1316.6666693	n/a	n/a	n/a	n/a	n/a	n/a	n/a	"2021-02-15 13:50:58.998470"	"2021-02-15 13:51:00.498467"	101	6.02486856666667
"S210215"	"Response_Inhibition"	"RIGHT"	"RIGHT"	634.453899999926	633.3333346	n/a	n/a	n/a	n/a	n/a	n/a	n/a	"2021-02-15 13:51:01.141348"	"2021-02-15 13:51:01.985127"	102	6.02486856666667
"S210215"	"Response_Inhibition"	"RIGHT"	"RIGHT"	612.252299999909	1016.6666687	n/a	n/a	n/a	n/a	n/a	n/a	n/a	"2021-02-15 13:51:03.011542"	"2021-02-15 13:51:03.831989"	103	6.02486856666667
"S210215"	"Response_Inhibition"	"LEFT"	"LEFT"	728.61219999993	750.0000015	n/a	n/a	n/a	n/a	n/a	n/a	n/a	"2021-02-15 13:51:04.591465"	"2021-02-15 13:51:05.527627"	104	6.02486856666667
"S210215"	"Response_Inhibition"	"RIGHT"	"Time_Max_Exceeded"	1500.07246689999	900.0000018	n/a	n/a	n/a	n/a	n/a	n/a	n/a	"2021-02-15 13:51:06.436201"	"2021-02-15 13:51:07.939747"	105	6.02486856666667
"S210215"	"Response_Inhibition"	"RIGHT"	"RIGHT"	568.806300000006	1233.3333358	n/a	n/a	n/a	n/a	n/a	n/a	n/a	"2021-02-15 13:51:09.182732"	"2021-02-15 13:51:09.959700"	106	6.02486856666667
"S210215"	"Response_Inhibition"	"LEFT"	"Time_Max_Exceeded"	1500.06330029999	1033.3333354	n/a	n/a	n/a	n/a	n/a	n/a	n/a	"2021-02-15 13:51:11.002004"	"2021-02-15 13:51:12.505149"	107	6.02486856666667
"S210215"	"Response_Inhibition"	"LEFT"	"LEFT"	579.246600000033	816.6666683	n/a	n/a	n/a	n/a	n/a	n/a	n/a	"2021-02-15 13:51:13.332668"	"2021-02-15 13:51:14.119562"	108	6.02486856666667
"S210215"	"Response_Inhibition"	"RIGHT"	"RIGHT"	520.040699999981	1383.3333361	n/a	n/a	n/a	n/a	n/a	n/a	n/a	"2021-02-15 13:51:15.512069"	"2021-02-15 13:51:16.239727"	109	6.02486856666667
"S210215"	"Response_Inhibition"	"LEFT"	"LEFT"	555.669599999987	683.3333347	n/a	n/a	n/a	n/a	n/a	n/a	n/a	"2021-02-15 13:51:16.931940"	"2021-02-15 13:51:17.697004"	110	6.02486856666667
"S210215"	"Response_Inhibition"	"RIGHT"	"RIGHT"	440.045400000031	1150.0000023	n/a	n/a	n/a	n/a	n/a	n/a	n/a	"2021-02-15 13:51:18.856248"	"2021-02-15 13:51:19.504324"	111	6.02486856666667
"S210215"	"Response_Inhibition"	"RIGHT"	"RIGHT"	469.582166999926	1333.333336	n/a	n/a	n/a	n/a	n/a	n/a	n/a	"2021-02-15 13:51:20.846769"	"2021-02-15 13:51:21.529252"	112	6.02486856666667
"S210215"	"Response_Inhibition"	"RIGHT"	"RIGHT"	811.491100000012	1266.6666692	n/a	n/a	n/a	n/a	n/a	n/a	n/a	"2021-02-15 13:51:22.804113"	"2021-02-15 13:51:23.823804"	113	6.02486856666667
"S210215"	"Response_Inhibition"	"RIGHT"	"Time_Max_Exceeded"	1500.0507003	1283.3333359	n/a	n/a	n/a	n/a	n/a	n/a	n/a	"2021-02-15 13:51:25.115232"	"2021-02-15 13:51:26.619417"	114	6.02486856666667
"S210215"	"Response_Inhibition"	"RIGHT"	"RIGHT"	748.061000000007	600.0000012	n/a	n/a	n/a	n/a	n/a	n/a	n/a	"2021-02-15 13:51:27.227803"	"2021-02-15 13:51:28.183380"	115	6.02486856666667
"S210215"	"Response_Inhibition"	"RIGHT"	"RIGHT"	750.683600000002	633.3333346	n/a	n/a	n/a	n/a	n/a	n/a	n/a	"2021-02-15 13:51:28.825168"	"2021-02-15 13:51:29.785181"	116	6.02486856666667
"S210215"	"Response_Inhibition"	"LEFT"	"LEFT"	807.239299999992	1166.666669	n/a	n/a	n/a	n/a	n/a	n/a	n/a	"2021-02-15 13:51:30.960299"	"2021-02-15 13:51:31.975735"	117	6.02486856666667
"S210215"	"Response_Inhibition"	"LEFT"	"LEFT"	637.167499999919	1266.6666692	n/a	n/a	n/a	n/a	n/a	n/a	n/a	"2021-02-15 13:51:33.250598"	"2021-02-15 13:51:34.094693"	118	6.02486856666667
"S210215"	"Response_Inhibition"	"LEFT"	"LEFT"	565.115600000013	1283.3333359	n/a	n/a	n/a	n/a	n/a	n/a	n/a	"2021-02-15 13:51:35.386260"	"2021-02-15 13:51:36.160293"	119	6.02486856666667
"S210215"	"Response_Inhibition"	"RIGHT"	"Time_Max_Exceeded"	1500.07046710009	800.0000016	n/a	n/a	n/a	n/a	n/a	n/a	n/a	"2021-02-15 13:51:36.970840"	"2021-02-15 13:51:38.474631"	120	6.02486856666667
"S210215"	"Response_Inhibition"	"RIGHT"	"Time_Max_Exceeded"	1500.05026679996	966.6666686	n/a	n/a	n/a	n/a	n/a	n/a	n/a	"2021-02-15 13:51:39.450569"	"2021-02-15 13:51:40.954125"	121	6.02486856666667
"S210215"	"Response_Inhibition"	"LEFT"	"LEFT"	544.753900000046	500.000001	n/a	n/a	n/a	n/a	n/a	n/a	n/a	"2021-02-15 13:51:41.463345"	"2021-02-15 13:51:42.215424"	122	6.02486856666667
"S210215"	"Response_Inhibition"	"RIGHT"	"RIGHT"	736.345099999994	1183.3333357	n/a	n/a	n/a	n/a	n/a	n/a	n/a	"2021-02-15 13:51:43.407095"	"2021-02-15 13:51:44.351592"	123	6.02486856666667
"S210215"	"Response_Inhibition"	"RIGHT"	"RIGHT"	681.329799999958	1366.6666694	n/a	n/a	n/a	n/a	n/a	n/a	n/a	"2021-02-15 13:51:45.726231"	"2021-02-15 13:51:46.615620"	124	6.02486856666667
"S210215"	"Response_Inhibition"	"LEFT"	"LEFT"	731.078000000025	1316.6666693	n/a	n/a	n/a	n/a	n/a	n/a	n/a	"2021-02-15 13:51:47.940325"	"2021-02-15 13:51:48.880284"	125	6.02486856666667
"S210215"	"Response_Inhibition"	"LEFT"	"LEFT"	579.14679999999	1500.000003	n/a	n/a	n/a	n/a	n/a	n/a	n/a	"2021-02-15 13:51:50.388580"	"2021-02-15 13:51:51.175388"	126	6.02486856666667
"S210215"	"Response_Inhibition"	"RIGHT"	"RIGHT"	712.046299999997	783.3333349	n/a	n/a	n/a	n/a	n/a	n/a	n/a	"2021-02-15 13:51:51.967887"	"2021-02-15 13:51:52.888001"	127	6.02486856666667
"S210215"	"Response_Inhibition"	"RIGHT"	"Time_Max_Exceeded"	1500.06096680003	1166.666669	n/a	n/a	n/a	n/a	n/a	n/a	n/a	"2021-02-15 13:51:54.063757"	"2021-02-15 13:51:55.567315"	128	6.02486856666667
"S210215"	"Response_Inhibition"	"RIGHT"	"RIGHT"	620.669300000031	650.0000013	n/a	n/a	n/a	n/a	n/a	n/a	n/a	"2021-02-15 13:51:56.227560"	"2021-02-15 13:51:57.056344"	129	6.02486856666667
"S210215"	"Response_Inhibition"	"RIGHT"	"RIGHT"	740.690299999983	666.666668	n/a	n/a	n/a	n/a	n/a	n/a	n/a	"2021-02-15 13:51:57.731505"	"2021-02-15 13:51:58.680259"	130	6.02486856666667
"S210215"	"Response_Inhibition"	"LEFT"	"LEFT"	488.54879999999	766.6666682	n/a	n/a	n/a	n/a	n/a	n/a	n/a	"2021-02-15 13:51:59.455352"	"2021-02-15 13:52:00.151714"	131	6.02486856666667
"S210215"	"Response_Inhibition"	"LEFT"	"LEFT"	456.902100000093	1366.6666694	n/a	n/a	n/a	n/a	n/a	n/a	n/a	"2021-02-15 13:52:01.526841"	"2021-02-15 13:52:02.191635"	132	6.02486856666667
"S210215"	"Response_Inhibition"	"LEFT"	"Time_Max_Exceeded"	1500.05416689991	633.3333346	n/a	n/a	n/a	n/a	n/a	n/a	n/a	"2021-02-15 13:52:02.833946"	"2021-02-15 13:52:04.337565"	133	6.02486856666667
"S210215"	"Response_Inhibition"	"RIGHT"	"RIGHT"	536.038800000028	550.0000011	n/a	n/a	n/a	n/a	n/a	n/a	n/a	"2021-02-15 13:52:04.895642"	"2021-02-15 13:52:05.640926"	134	6.02486856666667
"S210215"	"Response_Inhibition"	"LEFT"	"LEFT"	740.430899999978	616.6666679	n/a	n/a	n/a	n/a	n/a	n/a	n/a	"2021-02-15 13:52:06.267367"	"2021-02-15 13:52:07.215769"	135	6.02486856666667
"S210215"	"Response_Inhibition"	"LEFT"	"LEFT"	455.921300600045	1116.6666689	n/a	n/a	n/a	n/a	n/a	n/a	n/a	"2021-02-15 13:52:08.340964"	"2021-02-15 13:52:09.006704"	136	6.02486856666667
"S210215"	"Response_Inhibition"	"RIGHT"	"RIGHT"	755.627900000036	1300.0000026	n/a	n/a	n/a	n/a	n/a	n/a	n/a	"2021-02-15 13:52:10.316004"	"2021-02-15 13:52:11.279558"	137	6.02486856666667
"S210215"	"Response_Inhibition"	"LEFT"	"LEFT"	569.734400000016	1150.0000023	n/a	n/a	n/a	n/a	n/a	n/a	n/a	"2021-02-15 13:52:12.438105"	"2021-02-15 13:52:13.216024"	138	6.02486856666667
"S210215"	"Response_Inhibition"	"RIGHT"	"RIGHT"	580.052499999965	1483.3333363	n/a	n/a	n/a	n/a	n/a	n/a	n/a	"2021-02-15 13:52:14.707685"	"2021-02-15 13:52:15.496211"	139	6.02486856666667
"S210215"	"Response_Inhibition"	"LEFT"	"Time_Max_Exceeded"	1500.05676690004	1416.6666695	n/a	n/a	n/a	n/a	n/a	n/a	n/a	"2021-02-15 13:52:16.921565"	"2021-02-15 13:52:18.424385"	140	6.02486856666667
"S210215"	"Response_Inhibition"	"LEFT"	"Time_Max_Exceeded"	1500.05356720003	1233.3333358	n/a	n/a	n/a	n/a	n/a	n/a	n/a	"2021-02-15 13:52:19.667193"	"2021-02-15 13:52:21.171227"	141	6.02486856666667
"S210215"	"Response_Inhibition"	"RIGHT"	"RIGHT"	516.635900000097	983.3333353	n/a	n/a	n/a	n/a	n/a	n/a	n/a	"2021-02-15 13:52:22.164583"	"2021-02-15 13:52:22.888777"	142	6.02486856666667
"S210215"	"Response_Inhibition"	"RIGHT"	"Time_Max_Exceeded"	1500.05793369993	1250.0000025	n/a	n/a	n/a	n/a	n/a	n/a	n/a	"2021-02-15 13:52:24.147451"	"2021-02-15 13:52:25.650535"	143	6.02486856666667
"S210215"	"Response_Inhibition"	"LEFT"	"LEFT"	633.814100000109	866.6666684	n/a	n/a	n/a	n/a	n/a	n/a	n/a	"2021-02-15 13:52:26.526981"	"2021-02-15 13:52:27.368157"	144	6.02486856666667
"S210215"	"Response_Inhibition"	"LEFT"	"LEFT"	867.672000000084	1083.3333355	n/a	n/a	n/a	n/a	n/a	n/a	n/a	"2021-02-15 13:52:28.460404"	"2021-02-15 13:52:29.534670"	145	6.02486856666667
"S210215"	"Response_Inhibition"	"RIGHT"	"Time_Max_Exceeded"	1500.06853340002	1066.6666688	n/a	n/a	n/a	n/a	n/a	n/a	n/a	"2021-02-15 13:52:30.609355"	"2021-02-15 13:52:32.113468"	146	6.02486856666667
"S210215"	"Response_Inhibition"	"RIGHT"	"RIGHT"	1060.15639999998	1416.6666695	n/a	n/a	n/a	n/a	n/a	n/a	n/a	"2021-02-15 13:52:33.539863"	"2021-02-15 13:52:34.808169"	147	6.02486856666667
"S210215"	"Response_Inhibition"	"LEFT"	"LEFT"	666.499799999997	716.6666681	n/a	n/a	n/a	n/a	n/a	n/a	n/a	"2021-02-15 13:52:35.533494"	"2021-02-15 13:52:36.406747"	148	6.02486856666667
"S210215"	"Response_Inhibition"	"RIGHT"	"Time_Max_Exceeded"	1500.05296709996	1500.000003	n/a	n/a	n/a	n/a	n/a	n/a	n/a	"2021-02-15 13:52:37.915374"	"2021-02-15 13:52:39.418629"	149	6.02486856666667
"S210215"	"Response_Inhibition"	"LEFT"	"Time_Max_Exceeded"	1500.06070040002	933.3333352	n/a	n/a	n/a	n/a	n/a	n/a	n/a	"2021-02-15 13:52:40.360980"	"2021-02-15 13:52:41.864015"	150	6.02486856666667
"S210215"	"Response_Inhibition"	"RIGHT"	"Time_Max_Exceeded"	1500.07093389999	716.6666681	n/a	n/a	n/a	n/a	n/a	n/a	n/a	"2021-02-15 13:52:42.589610"	"2021-02-15 13:52:44.093623"	151	6.02486856666667
"S210215"	"Response_Inhibition"	"LEFT"	"Time_Max_Exceeded"	1500.05076669997	983.3333353	n/a	n/a	n/a	n/a	n/a	n/a	n/a	"2021-02-15 13:52:45.085505"	"2021-02-15 13:52:46.588582"	152	6.02486856666667
"S210215"	"Response_Inhibition"	"LEFT"	"LEFT"	644.510800000035	533.3333344	n/a	n/a	n/a	n/a	n/a	n/a	n/a	"2021-02-15 13:52:47.131160"	"2021-02-15 13:52:47.984094"	153	6.02486856666667
"S210215"	"Response_Inhibition"	"RIGHT"	"RIGHT"	627.964700000007	683.3333347	n/a	n/a	n/a	n/a	n/a	n/a	n/a	"2021-02-15 13:52:48.675414"	"2021-02-15 13:52:49.511501"	154	6.02486856666667
"S210215"	"Response_Inhibition"	"RIGHT"	"Time_Max_Exceeded"	1500.06063349993	1466.6666696	n/a	n/a	n/a	n/a	n/a	n/a	n/a	"2021-02-15 13:52:50.987556"	"2021-02-15 13:52:52.490821"	155	6.02486856666667
"S210215"	"Response_Inhibition"	"RIGHT"	"Time_Max_Exceeded"	1500.08960010007	583.3333345	n/a	n/a	n/a	n/a	n/a	n/a	n/a	"2021-02-15 13:52:53.082914"	"2021-02-15 13:52:54.586079"	156	6.02486856666667
"S210215"	"Response_Inhibition"	"LEFT"	"Time_Max_Exceeded"	1500.08710049997	583.3333345	n/a	n/a	n/a	n/a	n/a	n/a	n/a	"2021-02-15 13:52:55.178752"	"2021-02-15 13:52:56.682793"	157	6.02486856666667
"S210215"	"Response_Inhibition"	"LEFT"	"Time_Max_Exceeded"	1500.04693390005	683.3333347	n/a	n/a	n/a	n/a	n/a	n/a	n/a	"2021-02-15 13:52:57.375948"	"2021-02-15 13:52:58.878632"	158	6.02486856666667
"S210215"	"Response_Inhibition"	"LEFT"	"LEFT"	688.934900000049	1000.000002	n/a	n/a	n/a	n/a	n/a	n/a	n/a	"2021-02-15 13:52:59.888003"	"2021-02-15 13:53:00.785512"	159	6.02486856666667
"S210215"	"Response_Inhibition"	"LEFT"	"LEFT"	659.879799999999	650.0000013	n/a	n/a	n/a	n/a	n/a	n/a	n/a	"2021-02-15 13:53:01.444398"	"2021-02-15 13:53:02.311750"	160	6.02486856666667
"S210215"	"Response_Selection"	"RIGHT"	"RIGHT"	310.694299999994	1400.0000028	n/a	n/a	n/a	n/a	n/a	n/a	n/a	"2021-02-15 13:44:58.697687"	"2021-02-15 13:44:59.217021"	1	2.66925213333333
"S210215"	"Response_Selection"	"LEFT"	"LEFT"	275.413100000009	1083.3333355	n/a	n/a	n/a	n/a	n/a	n/a	n/a	"2021-02-15 13:45:00.309358"	"2021-02-15 13:45:00.793272"	2	2.66925213333333
"S210215"	"Response_Selection"	"LEFT"	"LEFT"	345.056900000003	1316.6666693	n/a	n/a	n/a	n/a	n/a	n/a	n/a	"2021-02-15 13:45:02.119380"	"2021-02-15 13:45:02.671717"	3	2.66925213333333
"S210215"	"Response_Selection"	"RIGHT"	"RIGHT"	331.132299999979	933.3333352	n/a	n/a	n/a	n/a	n/a	n/a	n/a	"2021-02-15 13:45:03.613258"	"2021-02-15 13:45:04.151377"	4	2.66925213333333
"S210215"	"Response_Selection"	"RIGHT"	"RIGHT"	383.006299999977	1450.0000029	n/a	n/a	n/a	n/a	n/a	n/a	n/a	"2021-02-15 13:45:05.610440"	"2021-02-15 13:45:06.201600"	5	2.66925213333333
"S210215"	"Response_Selection"	"LEFT"	"LEFT"	297.442700000005	1116.6666689	n/a	n/a	n/a	n/a	n/a	n/a	n/a	"2021-02-15 13:45:07.326636"	"2021-02-15 13:45:07.832284"	6	2.66925213333333
"S210215"	"Response_Selection"	"LEFT"	"LEFT"	326.818800000012	1416.6666695	n/a	n/a	n/a	n/a	n/a	n/a	n/a	"2021-02-15 13:45:09.257067"	"2021-02-15 13:45:09.791637"	7	2.66925213333333
"S210215"	"Response_Selection"	"RIGHT"	"RIGHT"	358.784000000014	633.3333346	n/a	n/a	n/a	n/a	n/a	n/a	n/a	"2021-02-15 13:45:10.433993"	"2021-02-15 13:45:11.001001"	8	2.66925213333333
"S210215"	"Response_Selection"	"RIGHT"	"RIGHT"	371.574100000004	1083.3333355	n/a	n/a	n/a	n/a	n/a	n/a	n/a	"2021-02-15 13:45:12.093131"	"2021-02-15 13:45:12.672273"	9	2.66925213333333
"S210215"	"Response_Selection"	"RIGHT"	"RIGHT"	362.094400000018	1133.3333356	n/a	n/a	n/a	n/a	n/a	n/a	n/a	"2021-02-15 13:45:13.813872"	"2021-02-15 13:45:14.384477"	10	2.66925213333333
"S210215"	"Response_Selection"	"RIGHT"	"RIGHT"	355.053700000013	1300.0000026	n/a	n/a	n/a	n/a	n/a	n/a	n/a	"2021-02-15 13:45:15.692583"	"2021-02-15 13:45:16.256103"	11	2.66925213333333
"S210215"	"Response_Selection"	"RIGHT"	"RIGHT"	290.44159999998	1316.6666693	n/a	n/a	n/a	n/a	n/a	n/a	n/a	"2021-02-15 13:45:17.581745"	"2021-02-15 13:45:18.079756"	12	2.66925213333333
"S210215"	"Response_Selection"	"LEFT"	"LEFT"	317.498700000016	1466.6666696	n/a	n/a	n/a	n/a	n/a	n/a	n/a	"2021-02-15 13:45:19.554564"	"2021-02-15 13:45:20.080459"	13	2.66925213333333
"S210215"	"Response_Selection"	"RIGHT"	"RIGHT"	280.877500000003	1166.666669	n/a	n/a	n/a	n/a	n/a	n/a	n/a	"2021-02-15 13:45:21.255289"	"2021-02-15 13:45:21.743576"	14	2.66925213333333
"S210215"	"Response_Selection"	"LEFT"	"LEFT"	326.369900000003	650.0000013	n/a	n/a	n/a	n/a	n/a	n/a	n/a	"2021-02-15 13:45:22.401825"	"2021-02-15 13:45:22.935423"	15	2.66925213333333
"S210215"	"Response_Selection"	"LEFT"	"LEFT"	332.475299999999	683.3333347	n/a	n/a	n/a	n/a	n/a	n/a	n/a	"2021-02-15 13:45:23.627527"	"2021-02-15 13:45:24.168400"	16	2.66925213333333
"S210215"	"Response_Selection"	"RIGHT"	"RIGHT"	424.025099999994	783.3333349	n/a	n/a	n/a	n/a	n/a	n/a	n/a	"2021-02-15 13:45:24.960446"	"2021-02-15 13:45:25.593071"	17	2.66925213333333
"S210215"	"Response_Selection"	"RIGHT"	"RIGHT"	327.369900000008	983.3333353	n/a	n/a	n/a	n/a	n/a	n/a	n/a	"2021-02-15 13:45:26.585010"	"2021-02-15 13:45:27.119592"	18	2.66925213333333
"S210215"	"Response_Selection"	"RIGHT"	"RIGHT"	353.803099999993	1366.6666694	n/a	n/a	n/a	n/a	n/a	n/a	n/a	"2021-02-15 13:45:28.494768"	"2021-02-15 13:45:29.056276"	19	2.66925213333333
"S210215"	"Response_Selection"	"LEFT"	"LEFT"	329.7302	533.3333344	n/a	n/a	n/a	n/a	n/a	n/a	n/a	"2021-02-15 13:45:29.598837"	"2021-02-15 13:45:30.137305"	20	2.66925213333333
"S210215"	"Response_Selection"	"RIGHT"	"RIGHT"	267.952799999989	866.6666684	n/a	n/a	n/a	n/a	n/a	n/a	n/a	"2021-02-15 13:45:31.012315"	"2021-02-15 13:45:31.489211"	21	2.66925213333333
"S210215"	"Response_Selection"	"RIGHT"	"RIGHT"	324.732100000006	650.0000013	n/a	n/a	n/a	n/a	n/a	n/a	n/a	"2021-02-15 13:45:32.147247"	"2021-02-15 13:45:32.679363"	22	2.66925213333333
"S210215"	"Response_Selection"	"LEFT"	"LEFT"	259.170600000004	933.3333352	n/a	n/a	n/a	n/a	n/a	n/a	n/a	"2021-02-15 13:45:33.621530"	"2021-02-15 13:45:34.087663"	23	2.66925213333333
"S210215"	"Response_Selection"	"LEFT"	"LEFT"	320.433899999983	600.0000012	n/a	n/a	n/a	n/a	n/a	n/a	n/a	"2021-02-15 13:45:34.696078"	"2021-02-15 13:45:35.224195"	24	2.66925213333333
"S210215"	"Response_Selection"	"RIGHT"	"RIGHT"	336.286699999988	583.3333345	n/a	n/a	n/a	n/a	n/a	n/a	n/a	"2021-02-15 13:45:35.816320"	"2021-02-15 13:45:36.360863"	25	2.66925213333333
"S210215"	"Response_Selection"	"RIGHT"	"RIGHT"	310.793600000011	600.0000012	n/a	n/a	n/a	n/a	n/a	n/a	n/a	"2021-02-15 13:45:36.969317"	"2021-02-15 13:45:37.488885"	26	2.66925213333333
"S210215"	"Response_Selection"	"RIGHT"	"RIGHT"	321.483099999995	733.3333348	n/a	n/a	n/a	n/a	n/a	n/a	n/a	"2021-02-15 13:45:38.230865"	"2021-02-15 13:45:38.761075"	27	2.66925213333333
"S210215"	"Response_Selection"	"RIGHT"	"RIGHT"	306.726900000001	700.0000014	n/a	n/a	n/a	n/a	n/a	n/a	n/a	"2021-02-15 13:45:39.469714"	"2021-02-15 13:45:39.983620"	28	2.66925213333333
"S210215"	"Response_Selection"	"LEFT"	"LEFT"	345.264400000019	1366.6666694	n/a	n/a	n/a	n/a	n/a	n/a	n/a	"2021-02-15 13:45:41.359114"	"2021-02-15 13:45:41.912333"	29	2.66925213333333
"S210215"	"Response_Selection"	"LEFT"	"LEFT"	322.138899999999	733.3333348	n/a	n/a	n/a	n/a	n/a	n/a	n/a	"2021-02-15 13:45:42.654320"	"2021-02-15 13:45:43.183422"	30	2.66925213333333
"S210215"	"Response_Selection"	"LEFT"	"LEFT"	302.725500000008	1200.0000024	n/a	n/a	n/a	n/a	n/a	n/a	n/a	"2021-02-15 13:45:44.393742"	"2021-02-15 13:45:44.905282"	31	2.66925213333333
"S210215"	"Response_Selection"	"LEFT"	"LEFT"	260.85519999998	1033.3333354	n/a	n/a	n/a	n/a	n/a	n/a	n/a	"2021-02-15 13:45:45.947056"	"2021-02-15 13:45:46.416291"	32	2.66925213333333
"S210215"	"Response_Selection"	"RIGHT"	"RIGHT"	326.119799999958	833.333335	n/a	n/a	n/a	n/a	n/a	n/a	n/a	"2021-02-15 13:45:47.257831"	"2021-02-15 13:45:47.792609"	33	2.66925213333333
"S210215"	"Response_Selection"	"RIGHT"	"RIGHT"	353.068800000017	750.0000015	n/a	n/a	n/a	n/a	n/a	n/a	n/a	"2021-02-15 13:45:48.551209"	"2021-02-15 13:45:49.111710"	34	2.66925213333333
"S210215"	"Response_Selection"	"LEFT"	"LEFT"	300.203299999964	866.6666684	n/a	n/a	n/a	n/a	n/a	n/a	n/a	"2021-02-15 13:45:49.987957"	"2021-02-15 13:45:50.495646"	35	2.66925213333333
"S210215"	"Response_Selection"	"LEFT"	"LEFT"	331.874000000028	700.0000014	n/a	n/a	n/a	n/a	n/a	n/a	n/a	"2021-02-15 13:45:51.203786"	"2021-02-15 13:45:51.744377"	36	2.66925213333333
"S210215"	"Response_Selection"	"LEFT"	"LEFT"	313.353800000016	750.0000015	n/a	n/a	n/a	n/a	n/a	n/a	n/a	"2021-02-15 13:45:52.502429"	"2021-02-15 13:45:53.024291"	37	2.66925213333333
"S210215"	"Response_Selection"	"LEFT"	"LEFT"	256.507499999998	1166.666669	n/a	n/a	n/a	n/a	n/a	n/a	n/a	"2021-02-15 13:45:54.199850"	"2021-02-15 13:45:54.664685"	38	2.66925213333333
"S210215"	"Response_Selection"	"LEFT"	"LEFT"	301.795099999993	833.333335	n/a	n/a	n/a	n/a	n/a	n/a	n/a	"2021-02-15 13:45:55.506360"	"2021-02-15 13:45:56.015939"	39	2.66925213333333
"S210215"	"Response_Selection"	"RIGHT"	"RIGHT"	491.42710000001	916.6666685	n/a	n/a	n/a	n/a	n/a	n/a	n/a	"2021-02-15 13:45:56.941228"	"2021-02-15 13:45:57.639360"	40	2.66925213333333
"S210215"	"Response_Selection"	"LEFT"	"LEFT"	325.826600000028	1066.6666688	n/a	n/a	n/a	n/a	n/a	n/a	n/a	"2021-02-15 13:45:58.714002"	"2021-02-15 13:45:59.248201"	41	2.66925213333333
"S210215"	"Response_Selection"	"LEFT"	"LEFT"	424.155700000028	783.3333349	n/a	n/a	n/a	n/a	n/a	n/a	n/a	"2021-02-15 13:46:00.039907"	"2021-02-15 13:46:00.671723"	42	2.66925213333333
"S210215"	"Response_Selection"	"LEFT"	"LEFT"	350.328499999989	633.3333346	n/a	n/a	n/a	n/a	n/a	n/a	n/a	"2021-02-15 13:46:01.314008"	"2021-02-15 13:46:01.872323"	43	2.66925213333333
"S210215"	"Response_Selection"	"RIGHT"	"RIGHT"	261.133000000029	1466.6666696	n/a	n/a	n/a	n/a	n/a	n/a	n/a	"2021-02-15 13:46:03.347390"	"2021-02-15 13:46:03.816356"	44	2.66925213333333
"S210215"	"Response_Selection"	"RIGHT"	"RIGHT"	326.619999999991	1016.6666687	n/a	n/a	n/a	n/a	n/a	n/a	n/a	"2021-02-15 13:46:04.841635"	"2021-02-15 13:46:05.376205"	45	2.66925213333333
"S210215"	"Response_Selection"	"LEFT"	"LEFT"	379.1698	500.000001	n/a	n/a	n/a	n/a	n/a	n/a	n/a	"2021-02-15 13:46:05.884899"	"2021-02-15 13:46:06.471620"	46	2.66925213333333
"S210215"	"Response_Selection"	"LEFT"	"LEFT"	300.399999999968	1300.0000026	n/a	n/a	n/a	n/a	n/a	n/a	n/a	"2021-02-15 13:46:07.780098"	"2021-02-15 13:46:08.288130"	47	2.66925213333333
"S210215"	"Response_Selection"	"LEFT"	"LEFT"	371.895699999982	883.3333351	n/a	n/a	n/a	n/a	n/a	n/a	n/a	"2021-02-15 13:46:09.180292"	"2021-02-15 13:46:09.759381"	48	2.66925213333333
"S210215"	"Response_Selection"	"LEFT"	"LEFT"	348.011499999984	1500.000003	n/a	n/a	n/a	n/a	n/a	n/a	n/a	"2021-02-15 13:46:11.268477"	"2021-02-15 13:46:11.823760"	49	2.66925213333333
"S210215"	"Response_Selection"	"LEFT"	"LEFT"	392.374700000005	583.3333345	n/a	n/a	n/a	n/a	n/a	n/a	n/a	"2021-02-15 13:46:12.416210"	"2021-02-15 13:46:13.015607"	50	2.66925213333333
"S210215"	"Response_Selection"	"LEFT"	"LEFT"	306.275300000038	550.0000011	n/a	n/a	n/a	n/a	n/a	n/a	n/a	"2021-02-15 13:46:13.573534"	"2021-02-15 13:46:14.088124"	51	2.66925213333333
"S210215"	"Response_Selection"	"LEFT"	"LEFT"	309.501399999988	800.0000016	n/a	n/a	n/a	n/a	n/a	n/a	n/a	"2021-02-15 13:46:14.898581"	"2021-02-15 13:46:15.415715"	52	2.66925213333333
"S210215"	"Response_Selection"	"RIGHT"	"RIGHT"	354.134399999964	550.0000011	n/a	n/a	n/a	n/a	n/a	n/a	n/a	"2021-02-15 13:46:15.974288"	"2021-02-15 13:46:16.536299"	53	2.66925213333333
"S210215"	"Response_Selection"	"RIGHT"	"RIGHT"	340.161799999976	1266.6666692	n/a	n/a	n/a	n/a	n/a	n/a	n/a	"2021-02-15 13:46:17.812489"	"2021-02-15 13:46:18.360782"	54	2.66925213333333
"S210215"	"Response_Selection"	"RIGHT"	"RIGHT"	310.963800000025	1200.0000024	n/a	n/a	n/a	n/a	n/a	n/a	n/a	"2021-02-15 13:46:19.569319"	"2021-02-15 13:46:20.088978"	55	2.66925213333333
"S210215"	"Response_Selection"	"RIGHT"	"RIGHT"	385.336900000027	533.3333344	n/a	n/a	n/a	n/a	n/a	n/a	n/a	"2021-02-15 13:46:20.631025"	"2021-02-15 13:46:21.223440"	56	2.66925213333333
"S210215"	"Response_Selection"	"RIGHT"	"RIGHT"	349.677199999974	1216.6666691	n/a	n/a	n/a	n/a	n/a	n/a	n/a	"2021-02-15 13:46:22.450727"	"2021-02-15 13:46:23.010229"	57	2.66925213333333
"S210215"	"Response_Selection"	"LEFT"	"LEFT"	320.312600000022	1133.3333356	n/a	n/a	n/a	n/a	n/a	n/a	n/a	"2021-02-15 13:46:24.151747"	"2021-02-15 13:46:24.679593"	58	2.66925213333333
"S210215"	"Response_Selection"	"LEFT"	"LEFT"	327.644099999986	1016.6666687	n/a	n/a	n/a	n/a	n/a	n/a	n/a	"2021-02-15 13:46:25.705054"	"2021-02-15 13:46:26.240456"	59	2.66925213333333
"S210215"	"Response_Selection"	"RIGHT"	"RIGHT"	269.209199999977	1250.0000025	n/a	n/a	n/a	n/a	n/a	n/a	n/a	"2021-02-15 13:46:27.499364"	"2021-02-15 13:46:27.975589"	60	2.66925213333333
"S210215"	"Response_Selection"	"RIGHT"	"RIGHT"	321.177200000022	966.6666686	n/a	n/a	n/a	n/a	n/a	n/a	n/a	"2021-02-15 13:46:28.950557"	"2021-02-15 13:46:29.479391"	61	2.66925213333333
"S210215"	"Response_Selection"	"LEFT"	"LEFT"	317.780700000014	1450.0000029	n/a	n/a	n/a	n/a	n/a	n/a	n/a	"2021-02-15 13:46:30.938706"	"2021-02-15 13:46:31.463930"	62	2.66925213333333
"S210215"	"Response_Selection"	"RIGHT"	"RIGHT"	265.526100000045	1350.0000027	n/a	n/a	n/a	n/a	n/a	n/a	n/a	"2021-02-15 13:46:32.822980"	"2021-02-15 13:46:33.297261"	63	2.66925213333333
"S210215"	"Response_Selection"	"LEFT"	"LEFT"	291.687299999978	1266.6666692	n/a	n/a	n/a	n/a	n/a	n/a	n/a	"2021-02-15 13:46:34.572273"	"2021-02-15 13:46:35.072000"	64	2.66925213333333
"S210215"	"Response_Selection"	"LEFT"	"LEFT"	341.205300000013	1250.0000025	n/a	n/a	n/a	n/a	n/a	n/a	n/a	"2021-02-15 13:46:36.331318"	"2021-02-15 13:46:36.880060"	65	2.66925213333333
"S210215"	"Response_Selection"	"LEFT"	"LEFT"	288.377499999967	1400.0000028	n/a	n/a	n/a	n/a	n/a	n/a	n/a	"2021-02-15 13:46:38.288387"	"2021-02-15 13:46:38.785995"	66	2.66925213333333
"S210215"	"Response_Selection"	"LEFT"	"LEFT"	305.034299999988	916.6666685	n/a	n/a	n/a	n/a	n/a	n/a	n/a	"2021-02-15 13:46:39.710713"	"2021-02-15 13:46:40.224280"	67	2.66925213333333
"S210215"	"Response_Selection"	"LEFT"	"LEFT"	280.560600000001	966.6666686	n/a	n/a	n/a	n/a	n/a	n/a	n/a	"2021-02-15 13:46:41.199669"	"2021-02-15 13:46:41.687527"	68	2.66925213333333
"S210215"	"Response_Selection"	"RIGHT"	"RIGHT"	316.761799999995	883.3333351	n/a	n/a	n/a	n/a	n/a	n/a	n/a	"2021-02-15 13:46:42.579153"	"2021-02-15 13:46:43.103874"	69	2.66925213333333
"S210215"	"Response_Selection"	"LEFT"	"LEFT"	296.419200000003	983.3333353	n/a	n/a	n/a	n/a	n/a	n/a	n/a	"2021-02-15 13:46:44.096499"	"2021-02-15 13:46:44.600773"	70	2.66925213333333
"S210215"	"Response_Selection"	"RIGHT"	"RIGHT"	298.833500000001	1500.000003	n/a	n/a	n/a	n/a	n/a	n/a	n/a	"2021-02-15 13:46:46.109634"	"2021-02-15 13:46:46.615940"	71	2.66925213333333
"S210215"	"Response_Selection"	"RIGHT"	"RIGHT"	396.747100000027	683.3333347	n/a	n/a	n/a	n/a	n/a	n/a	n/a	"2021-02-15 13:46:47.308123"	"2021-02-15 13:46:47.913100"	72	2.66925213333333
"S210215"	"Response_Selection"	"LEFT"	"LEFT"	352.683299999967	1350.0000027	n/a	n/a	n/a	n/a	n/a	n/a	n/a	"2021-02-15 13:46:49.271798"	"2021-02-15 13:46:49.831639"	73	2.66925213333333
"S210215"	"Response_Selection"	"RIGHT"	"RIGHT"	346.789000000001	1116.6666689	n/a	n/a	n/a	n/a	n/a	n/a	n/a	"2021-02-15 13:46:50.957686"	"2021-02-15 13:46:51.512205"	74	2.66925213333333
"S210215"	"Response_Selection"	"RIGHT"	"RIGHT"	286.432699999978	1416.6666695	n/a	n/a	n/a	n/a	n/a	n/a	n/a	"2021-02-15 13:46:52.936966"	"2021-02-15 13:46:53.432184"	75	2.66925213333333
"S210215"	"Response_Selection"	"RIGHT"	"RIGHT"	294.612500000028	1033.3333354	n/a	n/a	n/a	n/a	n/a	n/a	n/a	"2021-02-15 13:46:54.473645"	"2021-02-15 13:46:54.975861"	76	2.66925213333333
"S210215"	"Response_Selection"	"LEFT"	"LEFT"	325.645099999974	1216.6666691	n/a	n/a	n/a	n/a	n/a	n/a	n/a	"2021-02-15 13:46:56.202597"	"2021-02-15 13:46:56.735555"	77	2.66925213333333
"S210215"	"Response_Selection"	"RIGHT"	"RIGHT"	271.903500000008	800.0000016	n/a	n/a	n/a	n/a	n/a	n/a	n/a	"2021-02-15 13:46:57.544143"	"2021-02-15 13:46:58.024856"	78	2.66925213333333
"S210215"	"Response_Selection"	"RIGHT"	"RIGHT"	339.979599999992	1066.6666688	n/a	n/a	n/a	n/a	n/a	n/a	n/a	"2021-02-15 13:46:59.100011"	"2021-02-15 13:46:59.647809"	79	2.66925213333333
"S210215"	"Response_Selection"	"RIGHT"	"RIGHT"	371.793500000024	500.000001	n/a	n/a	n/a	n/a	n/a	n/a	n/a	"2021-02-15 13:47:00.156669"	"2021-02-15 13:47:00.735859"	80	2.66925213333333
